"success","timeout","failed_images","failed_audio","failed_video","trial_type","trial_index","time_elapsed","internal_node_id","subject_id","condition_num","condition","workerId","hitId","rt","response","question_order","stimulus","task","image","correct_response","correct","question_idx","political_q_type"
"true","false","[]","[]","[]","preload","0","4740","0.0-0.0","to8pbtcvzd","0","positive_positive","A1E3MR98PNWZBD","32PT7WK7DMQZDFWWTTDZQ9DVF3I3D3","","","","","","","","","",""
"","","","","","survey-multi-select","1","17072","0.0-1.0","to8pbtcvzd","0","positive_positive","A1E3MR98PNWZBD","32PT7WK7DMQZDFWWTTDZQ9DVF3I3D3","12328","{""Consent"":[""<strong>I consent</strong>""]}","[0]","","","","","","",""
"","","","","","html-button-response","2","42783","0.0-2.0","to8pbtcvzd","0","positive_positive","A1E3MR98PNWZBD","32PT7WK7DMQZDFWWTTDZQ9DVF3I3D3","25709","0","","
               <div class=""instructions"" style=""text-align: left; width: 900px; margin: 0 auto;"">
                    <p>You may have heard discussions in the news or on social media about protecting the environment. One effort to protect the environment is to limit the amount of carbon dioxide in the atmosphere. Forests naturally help take carbon dioxide out of the atmosphere because trees need carbon to grow. Protecting forests so they can continue to remove carbon from the atmosphere is one way that we can help keep our planet healthy. The maps below show the carbon stored in forests from regions sampled around the world.</p>
                    <div style=""text-align: center;"">
                        <img src=images/exp3/examples_L.png style=""width: 90%; height: auto;"">
                    </div>
                    <p>Recent reports on the ongoing efforts to increase forest carbon storage indicate that we are having great success. Many people are excited about the current progress.</p>
                    <p>In this experiment, you will see a set of maps showing the amount of carbon stored in specific areas. Each map will have two regions that will be labeled with square (□) marks.</p>
                    <p>Your task is to report which of the two region shows more carbon storage using the left & right arrow keys.</p>
                </div>","instructions","","","","",""
"","","","","","image-keyboard-response","3","47370","0.0-3.0","to8pbtcvzd","0","positive_positive","A1E3MR98PNWZBD","32PT7WK7DMQZDFWWTTDZQ9DVF3I3D3","4583","arrowright","","images/exp3/B_L_S_6_right.png","map_trial","images/exp3/B_L_S_6_right.png","arrowright","true","",""
"","","","","","image-keyboard-response","4","48701","0.0-4.0","to8pbtcvzd","0","positive_positive","A1E3MR98PNWZBD","32PT7WK7DMQZDFWWTTDZQ9DVF3I3D3","1226","arrowleft","","images/exp3/B_L_S_7_left.png","map_trial","images/exp3/B_L_S_7_left.png","arrowleft","true","",""
"","","","","","image-keyboard-response","5","49696","0.0-5.0","to8pbtcvzd","0","positive_positive","A1E3MR98PNWZBD","32PT7WK7DMQZDFWWTTDZQ9DVF3I3D3","881","arrowright","","images/exp3/B_L_S_5_right.png","map_trial","images/exp3/B_L_S_5_right.png","arrowright","true","",""
"","","","","","image-keyboard-response","6","50830","0.0-6.0","to8pbtcvzd","0","positive_positive","A1E3MR98PNWZBD","32PT7WK7DMQZDFWWTTDZQ9DVF3I3D3","1030","arrowleft","","images/exp3/B_L_S_12_left.png","map_trial","images/exp3/B_L_S_12_left.png","arrowleft","true","",""
"","","","","","image-keyboard-response","7","52022","0.0-7.0","to8pbtcvzd","0","positive_positive","A1E3MR98PNWZBD","32PT7WK7DMQZDFWWTTDZQ9DVF3I3D3","1084","arrowleft","","images/exp3/B_L_S_11_left.png","map_trial","images/exp3/B_L_S_11_left.png","arrowleft","true","",""
"","","","","","image-keyboard-response","8","52993","0.0-8.0","to8pbtcvzd","0","positive_positive","A1E3MR98PNWZBD","32PT7WK7DMQZDFWWTTDZQ9DVF3I3D3","862","arrowright","","images/exp3/B_L_S_2_right.png","map_trial","images/exp3/B_L_S_2_right.png","arrowright","true","",""
"","","","","","image-keyboard-response","9","54049","0.0-9.0","to8pbtcvzd","0","positive_positive","A1E3MR98PNWZBD","32PT7WK7DMQZDFWWTTDZQ9DVF3I3D3","943","arrowleft","","images/exp3/B_L_S_8_left.png","map_trial","images/exp3/B_L_S_8_left.png","arrowleft","true","",""
"","","","","","image-keyboard-response","10","55150","0.0-10.0","to8pbtcvzd","0","positive_positive","A1E3MR98PNWZBD","32PT7WK7DMQZDFWWTTDZQ9DVF3I3D3","989","arrowright","","images/exp3/B_L_S_9_right.png","map_trial","images/exp3/B_L_S_9_right.png","arrowright","true","",""
"","","","","","image-keyboard-response","11","56191","0.0-11.0","to8pbtcvzd","0","positive_positive","A1E3MR98PNWZBD","32PT7WK7DMQZDFWWTTDZQ9DVF3I3D3","923","arrowright","","images/exp3/B_L_S_1_right.png","map_trial","images/exp3/B_L_S_1_right.png","arrowright","true","",""
"","","","","","image-keyboard-response","12","57254","0.0-12.0","to8pbtcvzd","0","positive_positive","A1E3MR98PNWZBD","32PT7WK7DMQZDFWWTTDZQ9DVF3I3D3","947","arrowleft","","images/exp3/B_L_S_3_left.png","map_trial","images/exp3/B_L_S_3_left.png","arrowleft","true","",""
"","","","","","image-keyboard-response","13","58508","0.0-13.0","to8pbtcvzd","0","positive_positive","A1E3MR98PNWZBD","32PT7WK7DMQZDFWWTTDZQ9DVF3I3D3","1142","arrowleft","","images/exp3/B_L_S_4_left.png","map_trial","images/exp3/B_L_S_4_left.png","arrowleft","true","",""
"","","","","","image-keyboard-response","14","59403","0.0-14.0","to8pbtcvzd","0","positive_positive","A1E3MR98PNWZBD","32PT7WK7DMQZDFWWTTDZQ9DVF3I3D3","779","arrowright","","images/exp3/B_L_S_10_right.png","map_trial","images/exp3/B_L_S_10_right.png","arrowright","true","",""
"","","","","","html-button-response","15","62367","0.0-15.0","to8pbtcvzd","0","positive_positive","A1E3MR98PNWZBD","32PT7WK7DMQZDFWWTTDZQ9DVF3I3D3","2854","0","","
            <div class=""instructions"" style=""text-align: left; width:600px; margin: 0 auto;"">
            <p>Great job! You have evaluated all the maps.</p>
            <p>You will now be presented with a series of statements where you will be asked to indicate your level of agreement or disagreement.<br>                Following that, you will be asked to answer a few demographic questions.</p>
            <p>Press 'Continue' when you are ready.</p>
            </div>
            ","","","","","",""
"","","","","","survey-likert","16","65904","0.0-16.0","to8pbtcvzd","0","positive_positive","A1E3MR98PNWZBD","32PT7WK7DMQZDFWWTTDZQ9DVF3I3D3","3434","{""Q0"":0}","[0]","","","","","","climate_q_5",""
"","","","","","survey-likert","17","70538","0.0-17.0","to8pbtcvzd","0","positive_positive","A1E3MR98PNWZBD","32PT7WK7DMQZDFWWTTDZQ9DVF3I3D3","4529","{""Q0"":1}","[0]","","","","","","climate_q_6",""
"","","","","","survey-likert","18","73031","0.0-18.0","to8pbtcvzd","0","positive_positive","A1E3MR98PNWZBD","32PT7WK7DMQZDFWWTTDZQ9DVF3I3D3","2387","{""Q0"":6}","[0]","","","","","","climate_q_2",""
"","","","","","survey-likert","19","75727","0.0-19.0","to8pbtcvzd","0","positive_positive","A1E3MR98PNWZBD","32PT7WK7DMQZDFWWTTDZQ9DVF3I3D3","2579","{""Q0"":0}","[0]","","","","","","climate_q_4",""
"","","","","","survey-likert","20","78999","0.0-20.0","to8pbtcvzd","0","positive_positive","A1E3MR98PNWZBD","32PT7WK7DMQZDFWWTTDZQ9DVF3I3D3","3162","{""Q0"":6}","[0]","","","","","","climate_q_1",""
"","","","","","survey-likert","21","81311","0.0-21.0","to8pbtcvzd","0","positive_positive","A1E3MR98PNWZBD","32PT7WK7DMQZDFWWTTDZQ9DVF3I3D3","2210","{""Q0"":5}","[0]","","","","","","climate_q_3",""
"","","","","","survey-multi-choice","22","82911","0.0-22.0","to8pbtcvzd","0","positive_positive","A1E3MR98PNWZBD","32PT7WK7DMQZDFWWTTDZQ9DVF3I3D3","1497","{""Q0"":""Yes""}","[0]","","","","","","climate_change_real",""
"","","","","","survey-likert","23","84561","0.0-23.0","to8pbtcvzd","0","positive_positive","A1E3MR98PNWZBD","32PT7WK7DMQZDFWWTTDZQ9DVF3I3D3","1537","{""Q0"":4}","[0]","","","","","","climate_worry",""
"","","","","","survey-likert","24","86375","0.0-24.0","to8pbtcvzd","0","positive_positive","A1E3MR98PNWZBD","32PT7WK7DMQZDFWWTTDZQ9DVF3I3D3","1704","{""Q0"":0}","[0]","","","","","","political_affiliation_1",""
"","","","","","survey-likert","25","87607","0.0-25.0-0.0","to8pbtcvzd","0","positive_positive","A1E3MR98PNWZBD","32PT7WK7DMQZDFWWTTDZQ9DVF3I3D3","1126","{""Q0"":0}","[0]","","","","","","political_affiliation_2","strong_democrat"
"","","","","","survey-text","26","96151","0.0-25.0-1.0","to8pbtcvzd","0","positive_positive","A1E3MR98PNWZBD","32PT7WK7DMQZDFWWTTDZQ9DVF3I3D3","8432","{""Age"":""55"",""Gender"":""Female"",""Race/ethnicity"":""White"",""Languages"":""English""}","","","","","","","",""
