"success","timeout","failed_images","failed_audio","failed_video","trial_type","trial_index","time_elapsed","internal_node_id","subject_id","condition_num","rt","stimulus","response","question_order","slider_start","image_path","practiceTrial","practiceTrialNum","correct","concept","repetition","map_id","hue","lightness","saturation","ishihara_plate","correct_response"
"true","false","[]","[]","[]","preload","0","200","0.0-0.0","0ppvgfx63n","14","","","","","","","","","","","","","","","","",""
"","","","","","html-button-response","1","2721","0.0-1.0","0ppvgfx63n","14","2520","Welcome to our experiment!<p>At the bottom of this screen, you will see a button that says ""Begin Experiment"".<br>Please only click that button when you are ready to complete the 25 minute experiment in one sitting.</p><p> Once you click that button, it will not be possible to restart the experiment.","0","","","","","","","","","","","","","",""
"true","","","","","fullscreen","2","8774","0.0-2.0","0ppvgfx63n","14","5045","","","","","","","","","","","","","","","",""
"","","","","","survey-multi-select","3","26450","0.0-3.0","0ppvgfx63n","14","17671","","{""Consent"":[""<strong>I consent</strong>""]}","[0]","","","","","","","","","","","","",""
"","","","","","html-button-response","4","30008","0.0-4.0","0ppvgfx63n","14","3554","Welcome! <p> This experiment involves two parts: demographic information, followed by the experimental task.<p> It will take about 25 minutes to complete both parts.","0","","","","","","","","","","","","","",""
"","","","","","survey-text","5","50967","0.0-5.0","0ppvgfx63n","14","20945","","{""Age"":""18"",""Gender"":""male"",""Race/ethnicity"":""white"",""Languages"":""english, partial spanish""}","","","","","","","","","","","","","",""
"","","","","","html-slider-response","6","90530","0.0-6.0","0ppvgfx63n","14","39560","
                            <div style='text-align:left; font-size:20px; line-height:25px; width: 1400px;'>
                                During this experiment you will be asked to rate how much you associate maps with                    different concepts.<br> Below, you can see some examples of the maps you will be asked to rate. Next to the maps
                    is the list of concepts.<br>You will be asked                    to rate how much you associate each map with each concept on a scale from 'not at all' to 'very much' like the
                    one below. <br><br>
                    Now, please look at the list of concepts and maps. For each concept, think about the map you associate 'very
                    much' with the concept.<br>                     When you see that map during the experiment, please rate it near the 'very much' endpoint of the
                    scale.<br>Now, please think about which map you associate 'not at all'                     with each concept. When you see that map during the experiment, please rate it near the 'not at all' endpoint
                    of the scale.<br>
                    Please use the full range of the scale. That is, if a map is somewhat associated with the concept, you would
                    click partway between the middle point and right side of the scale.                    You will be asked to rate each map for a given concept before moving on to the next concept.<br><br>Press the
                    'Continue' button for instructions on how to use the slider.                    <br><br>
                </div>

                <div style=""width: 500px; margin: 0 auto;"">
                    <!-- Centered text paragraphs -->
                    <div style=""text-align: center; width: 500px;"">
                        <p style=""font-size:25px; line-height:18px;"">calm</p>
                        <p style=""font-size:25px; line-height:18px;"">exciting</p>
                        <p style=""font-size:25px;line-height:18px;"">positive</p>
                        <p style=""font-size:25px;line-height:18px;"">negative</p>
                        <p style=""font-size:25px;line-height:18px;"">serious</p>
                        <p style=""font-size:25px;line-height:18px;"">playful</p>
                        <p style=""font-size:25px;line-height:18px;"">trustworthy</p>
                        <p style=""font-size:25px;line-height:18px;"">disturbing</p>
                    </div>

                    <!-- Grid section -->
                   <div style=""display: flex; justify-content: center; padding-top: 15px;"">
                    <div style=""display: grid; grid-template-columns: repeat(8, 80px); grid-gap: 5px; width: auto;"">
                        <img src=""images/Y_L_S_28.png"" alt=""map"" style=""width: 100%;""><img src=""images/G_D_U_13.png"" alt=""map"" style=""width: 100%;""><img src=""images/B_D_U_27.png"" alt=""map"" style=""width: 100%;""><img src=""images/Y_D_S_33.png"" alt=""map"" style=""width: 100%;""><img src=""images/R_D_S_02.png"" alt=""map"" style=""width: 100%;""><img src=""images/B_D_S_26.png"" alt=""map"" style=""width: 100%;""><img src=""images/Y_L_U_30.png"" alt=""map"" style=""width: 100%;""><img src=""images/R_L_U_44.png"" alt=""map"" style=""width: 100%;""><img src=""images/R_L_S_41.png"" alt=""map"" style=""width: 100%;""><img src=""images/B_L_U_23.png"" alt=""map"" style=""width: 100%;""><img src=""images/R_D_U_05.png"" alt=""map"" style=""width: 100%;""><img src=""images/G_D_S_12.png"" alt=""map"" style=""width: 100%;""><img src=""images/G_L_S_07.png"" alt=""map"" style=""width: 100%;""><img src=""images/B_L_S_15.png"" alt=""map"" style=""width: 100%;""><img src=""images/Y_D_U_37.png"" alt=""map"" style=""width: 100%;""><img src=""images/G_L_U_10.png"" alt=""map"" style=""width: 100%;"">
                    </div>
                </div>

                    <!-- Clear floats -->
                    <div style=""clear: both;""></div>
                </div>
                            ","5","","0","maps_anchoring.png","true","","","","","","","","","",""
"","","","","","html-button-response","7","100831","0.0-7.0","0ppvgfx63n","14","10298","<div style=""width:800px;""><p style=""text-align:left"">To move the slider, click and drag your cursor to the location of the scale where you would like to make your rating and then let go. When you let go of the slider, your response will be recorded and the next trial will begin. <br>
                    We are interested in your initial impressions of each map for the given concept, so please go with your first intuition. <br>
                    Before you begin the experiment, there will be four training trials for you to practice using the scale. <br>
                     When you are ready to start the training trials, please click ""Continue"".</p><br></div>","0","","","","","","","","","","","","","",""
"","","","","","html-slider-response","8","104157","0.0-8.0-0.0","0ppvgfx63n","14","NaN","<div style=""width:500px;"">
                                    <p style=""font-size:25px;"">Please move the slider all the way to the <br> right endpoint of the scale</p>

                                    </div>
                                </div>","200","","0","","true","0","true","","","","","","","",""
"","","","","","html-button-response","9","105843","0.0-8.0-1.0","0ppvgfx63n","14","1182","<p align='center'><b>Good job!</b> Click on 'Continue' to proceed.</p>","0","","","","","","","","","","","","","",""
"","","","","","html-slider-response","10","107996","0.0-9.0-0.0","0ppvgfx63n","14","NaN","<div style=""width:500px;"">
                                    <p style=""font-size:25px;"">Please move the slider all the way to the <br> left endpoint of the scale</p>

                                    </div>
                                </div>","-200","","0","","true","1","true","","","","","","","",""
"","","","","","html-button-response","11","109531","0.0-9.0-1.0","0ppvgfx63n","14","1031","<p align='center'><b>Good job!</b> Click on 'Continue' to proceed.</p>","0","","","","","","","","","","","","","",""
"","","","","","html-slider-response","12","113405","0.0-10.0-0.0","0ppvgfx63n","14","NaN","<div style=""width:500px;"">
                                    <p style=""font-size:25px;"">Please move the slider halfway between the center and right endpoint of the scale</p>

                                    </div>
                                </div>","104","","0","","true","2","true","","","","","","","",""
"","","","","","html-button-response","13","114725","0.0-10.0-1.0","0ppvgfx63n","14","816","<p align='center'><b>Good job!</b> Click on 'Continue' to proceed.</p>","0","","","","","","","","","","","","","",""
"","","","","","html-slider-response","14","118188","0.0-11.0-0.0","0ppvgfx63n","14","NaN","<div style=""width:500px;"">
                                    <p style=""font-size:25px;"">Please move the slider halfway between the center and left endpoint of the scale</p>

                                    </div>
                                </div>","-109","","0","","true","3","true","","","","","","","",""
"","","","","","html-button-response","15","119628","0.0-11.0-1.0","0ppvgfx63n","14","935","<p align='center'><b>Good job!</b> Click on 'Continue' to proceed.</p>","0","","","","","","","","","","","","","",""
"","","","","","html-button-response","16","121388","0.0-12.0","0ppvgfx63n","14","1758","<p>Great job! You've completed the practice trials. Now you will begin the main task.</p>","0","","","","","","","","","","","","","",""
"","","","","","html-button-response","17","124480","0.0-13.0","0ppvgfx63n","14","3090","<p>In this block of trials, you will be asked to rate how much you associate each map with:</p > <p style = 'font-size:150%; font-weight: bold'>trustworthy</p><br></br>","0","","","","","","","","","","","","","",""
"","","","","","html-slider-response","18","126496","0.0-14.0","0ppvgfx63n","14","NaN","<div style=""width:500px;"">
                            <p style=""font-size:50px; font-weight:bold;""
                            >trustworthy</p>
                            <div style=""width:240px; margin: auto;"">
                                <img src=""images/R_L_U_44.png"" style= ""width:200px""alt=""img"">
                            </div>
                        </div>","54","","0","images/R_L_U_44.png","","","","trustworthy","1","44","R","L","U","",""
"","","","","","html-slider-response","19","130054","0.0-15.0","0ppvgfx63n","14","NaN","<div style=""width:500px;"">
                            <p style=""font-size:50px; font-weight:bold;""
                            >trustworthy</p>
                            <div style=""width:240px; margin: auto;"">
                                <img src=""images/R_L_S_41.png"" style= ""width:200px""alt=""img"">
                            </div>
                        </div>","121","","0","images/R_L_S_41.png","","","","trustworthy","1","41","R","L","S","",""
"","","","","","html-slider-response","20","133540","0.0-16.0","0ppvgfx63n","14","NaN","<div style=""width:500px;"">
                            <p style=""font-size:50px; font-weight:bold;""
                            >trustworthy</p>
                            <div style=""width:240px; margin: auto;"">
                                <img src=""images/B_D_S_26.png"" style= ""width:200px""alt=""img"">
                            </div>
                        </div>","194","","0","images/B_D_S_26.png","","","","trustworthy","1","26","B","D","S","",""
"","","","","","html-slider-response","21","136030","0.0-17.0","0ppvgfx63n","14","NaN","<div style=""width:500px;"">
                            <p style=""font-size:50px; font-weight:bold;""
                            >trustworthy</p>
                            <div style=""width:240px; margin: auto;"">
                                <img src=""images/Y_D_U_37.png"" style= ""width:200px""alt=""img"">
                            </div>
                        </div>","-68","","0","images/Y_D_U_37.png","","","","trustworthy","1","37","Y","D","U","",""
"","","","","","html-slider-response","22","138796","0.0-18.0","0ppvgfx63n","14","NaN","<div style=""width:500px;"">
                            <p style=""font-size:50px; font-weight:bold;""
                            >trustworthy</p>
                            <div style=""width:240px; margin: auto;"">
                                <img src=""images/G_D_S_12.png"" style= ""width:200px""alt=""img"">
                            </div>
                        </div>","34","","0","images/G_D_S_12.png","","","","trustworthy","1","12","G","D","S","",""
"","","","","","html-slider-response","23","141579","0.0-19.0","0ppvgfx63n","14","NaN","<div style=""width:500px;"">
                            <p style=""font-size:50px; font-weight:bold;""
                            >trustworthy</p>
                            <div style=""width:240px; margin: auto;"">
                                <img src=""images/B_L_S_15.png"" style= ""width:200px""alt=""img"">
                            </div>
                        </div>","200","","0","images/B_L_S_15.png","","","","trustworthy","2","15","B","L","S","",""
"","","","","","html-slider-response","24","143971","0.0-20.0","0ppvgfx63n","14","NaN","<div style=""width:500px;"">
                            <p style=""font-size:50px; font-weight:bold;""
                            >trustworthy</p>
                            <div style=""width:240px; margin: auto;"">
                                <img src=""images/Y_D_U_37.png"" style= ""width:200px""alt=""img"">
                            </div>
                        </div>","-117","","0","images/Y_D_U_37.png","","","","trustworthy","2","37","Y","D","U","",""
"","","","","","html-slider-response","25","146599","0.0-21.0","0ppvgfx63n","14","NaN","<div style=""width:500px;"">
                            <p style=""font-size:50px; font-weight:bold;""
                            >trustworthy</p>
                            <div style=""width:240px; margin: auto;"">
                                <img src=""images/R_D_S_02.png"" style= ""width:200px""alt=""img"">
                            </div>
                        </div>","33","","0","images/R_D_S_02.png","","","","trustworthy","1","02","R","D","S","",""
"","","","","","html-slider-response","26","149559","0.0-22.0","0ppvgfx63n","14","NaN","<div style=""width:500px;"">
                            <p style=""font-size:50px; font-weight:bold;""
                            >trustworthy</p>
                            <div style=""width:240px; margin: auto;"">
                                <img src=""images/Y_L_S_28.png"" style= ""width:200px""alt=""img"">
                            </div>
                        </div>","-153","","0","images/Y_L_S_28.png","","","","trustworthy","2","28","Y","L","S","",""
"","","","","","html-slider-response","27","153048","0.0-23.0","0ppvgfx63n","14","NaN","<div style=""width:500px;"">
                            <p style=""font-size:50px; font-weight:bold;""
                            >trustworthy</p>
                            <div style=""width:240px; margin: auto;"">
                                <img src=""images/G_D_U_13.png"" style= ""width:200px""alt=""img"">
                            </div>
                        </div>","-67","","0","images/G_D_U_13.png","","","","trustworthy","1","13","G","D","U","",""
"","","","","","html-slider-response","28","155259","0.0-24.0","0ppvgfx63n","14","NaN","<div style=""width:500px;"">
                            <p style=""font-size:50px; font-weight:bold;""
                            >trustworthy</p>
                            <div style=""width:240px; margin: auto;"">
                                <img src=""images/G_L_U_10.png"" style= ""width:200px""alt=""img"">
                            </div>
                        </div>","73","","0","images/G_L_U_10.png","","","","trustworthy","1","10","G","L","U","",""
"","","","","","html-slider-response","29","158137","0.0-25.0","0ppvgfx63n","14","NaN","<div style=""width:500px;"">
                            <p style=""font-size:50px; font-weight:bold;""
                            >trustworthy</p>
                            <div style=""width:240px; margin: auto;"">
                                <img src=""images/B_L_U_23.png"" style= ""width:200px""alt=""img"">
                            </div>
                        </div>","162","","0","images/B_L_U_23.png","","","","trustworthy","2","23","B","L","U","",""
"","","","","","html-slider-response","30","161258","0.0-26.0","0ppvgfx63n","14","NaN","<div style=""width:500px;"">
                            <p style=""font-size:50px; font-weight:bold;""
                            >trustworthy</p>
                            <div style=""width:240px; margin: auto;"">
                                <img src=""images/R_D_S_02.png"" style= ""width:200px""alt=""img"">
                            </div>
                        </div>","54","","0","images/R_D_S_02.png","","","","trustworthy","2","02","R","D","S","",""
"","","","","","html-slider-response","31","163843","0.0-27.0","0ppvgfx63n","14","NaN","<div style=""width:500px;"">
                            <p style=""font-size:50px; font-weight:bold;""
                            >trustworthy</p>
                            <div style=""width:240px; margin: auto;"">
                                <img src=""images/B_L_U_23.png"" style= ""width:200px""alt=""img"">
                            </div>
                        </div>","154","","0","images/B_L_U_23.png","","","","trustworthy","1","23","B","L","U","",""
"","","","","","html-slider-response","32","166782","0.0-28.0","0ppvgfx63n","14","NaN","<div style=""width:500px;"">
                            <p style=""font-size:50px; font-weight:bold;""
                            >trustworthy</p>
                            <div style=""width:240px; margin: auto;"">
                                <img src=""images/R_D_U_05.png"" style= ""width:200px""alt=""img"">
                            </div>
                        </div>","-133","","0","images/R_D_U_05.png","","","","trustworthy","2","05","R","D","U","",""
"","","","","","html-slider-response","33","169225","0.0-29.0","0ppvgfx63n","14","NaN","<div style=""width:500px;"">
                            <p style=""font-size:50px; font-weight:bold;""
                            >trustworthy</p>
                            <div style=""width:240px; margin: auto;"">
                                <img src=""images/R_D_U_05.png"" style= ""width:200px""alt=""img"">
                            </div>
                        </div>","-124","","0","images/R_D_U_05.png","","","","trustworthy","1","05","R","D","U","",""
"","","","","","html-slider-response","34","172022","0.0-30.0","0ppvgfx63n","14","NaN","<div style=""width:500px;"">
                            <p style=""font-size:50px; font-weight:bold;""
                            >trustworthy</p>
                            <div style=""width:240px; margin: auto;"">
                                <img src=""images/Y_D_S_33.png"" style= ""width:200px""alt=""img"">
                            </div>
                        </div>","-79","","0","images/Y_D_S_33.png","","","","trustworthy","1","33","Y","D","S","",""
"","","","","","html-slider-response","35","174318","0.0-31.0","0ppvgfx63n","14","NaN","<div style=""width:500px;"">
                            <p style=""font-size:50px; font-weight:bold;""
                            >trustworthy</p>
                            <div style=""width:240px; margin: auto;"">
                                <img src=""images/G_D_S_12.png"" style= ""width:200px""alt=""img"">
                            </div>
                        </div>","-42","","0","images/G_D_S_12.png","","","","trustworthy","2","12","G","D","S","",""
"","","","","","html-slider-response","36","176615","0.0-32.0","0ppvgfx63n","14","NaN","<div style=""width:500px;"">
                            <p style=""font-size:50px; font-weight:bold;""
                            >trustworthy</p>
                            <div style=""width:240px; margin: auto;"">
                                <img src=""images/Y_D_S_33.png"" style= ""width:200px""alt=""img"">
                            </div>
                        </div>","-81","","0","images/Y_D_S_33.png","","","","trustworthy","2","33","Y","D","S","",""
"","","","","","html-slider-response","37","179463","0.0-33.0","0ppvgfx63n","14","NaN","<div style=""width:500px;"">
                            <p style=""font-size:50px; font-weight:bold;""
                            >trustworthy</p>
                            <div style=""width:240px; margin: auto;"">
                                <img src=""images/Y_L_U_30.png"" style= ""width:200px""alt=""img"">
                            </div>
                        </div>","-146","","0","images/Y_L_U_30.png","","","","trustworthy","1","30","Y","L","U","",""
"","","","","","html-slider-response","38","181732","0.0-34.0","0ppvgfx63n","14","NaN","<div style=""width:500px;"">
                            <p style=""font-size:50px; font-weight:bold;""
                            >trustworthy</p>
                            <div style=""width:240px; margin: auto;"">
                                <img src=""images/Y_L_U_30.png"" style= ""width:200px""alt=""img"">
                            </div>
                        </div>","-144","","0","images/Y_L_U_30.png","","","","trustworthy","2","30","Y","L","U","",""
"","","","","","html-slider-response","39","184501","0.0-35.0","0ppvgfx63n","14","NaN","<div style=""width:500px;"">
                            <p style=""font-size:50px; font-weight:bold;""
                            >trustworthy</p>
                            <div style=""width:240px; margin: auto;"">
                                <img src=""images/G_L_U_10.png"" style= ""width:200px""alt=""img"">
                            </div>
                        </div>","-16","","0","images/G_L_U_10.png","","","","trustworthy","2","10","G","L","U","",""
"","","","","","html-slider-response","40","186878","0.0-36.0","0ppvgfx63n","14","NaN","<div style=""width:500px;"">
                            <p style=""font-size:50px; font-weight:bold;""
                            >trustworthy</p>
                            <div style=""width:240px; margin: auto;"">
                                <img src=""images/G_D_U_13.png"" style= ""width:200px""alt=""img"">
                            </div>
                        </div>","-60","","0","images/G_D_U_13.png","","","","trustworthy","2","13","G","D","U","",""
"","","","","","html-slider-response","41","189121","0.0-37.0","0ppvgfx63n","14","NaN","<div style=""width:500px;"">
                            <p style=""font-size:50px; font-weight:bold;""
                            >trustworthy</p>
                            <div style=""width:240px; margin: auto;"">
                                <img src=""images/B_L_S_15.png"" style= ""width:200px""alt=""img"">
                            </div>
                        </div>","62","","0","images/B_L_S_15.png","","","","trustworthy","1","15","B","L","S","",""
"","","","","","html-slider-response","42","191232","0.0-38.0","0ppvgfx63n","14","NaN","<div style=""width:500px;"">
                            <p style=""font-size:50px; font-weight:bold;""
                            >trustworthy</p>
                            <div style=""width:240px; margin: auto;"">
                                <img src=""images/R_L_U_44.png"" style= ""width:200px""alt=""img"">
                            </div>
                        </div>","-54","","0","images/R_L_U_44.png","","","","trustworthy","2","44","R","L","U","",""
"","","","","","html-slider-response","43","194736","0.0-39.0","0ppvgfx63n","14","NaN","<div style=""width:500px;"">
                            <p style=""font-size:50px; font-weight:bold;""
                            >trustworthy</p>
                            <div style=""width:240px; margin: auto;"">
                                <img src=""images/B_D_U_27.png"" style= ""width:200px""alt=""img"">
                            </div>
                        </div>","-126","","0","images/B_D_U_27.png","","","","trustworthy","1","27","B","D","U","",""
"","","","","","html-slider-response","44","197498","0.0-40.0","0ppvgfx63n","14","NaN","<div style=""width:500px;"">
                            <p style=""font-size:50px; font-weight:bold;""
                            >trustworthy</p>
                            <div style=""width:240px; margin: auto;"">
                                <img src=""images/R_L_S_41.png"" style= ""width:200px""alt=""img"">
                            </div>
                        </div>","54","","0","images/R_L_S_41.png","","","","trustworthy","2","41","R","L","S","",""
"","","","","","html-slider-response","45","199422","0.0-41.0","0ppvgfx63n","14","NaN","<div style=""width:500px;"">
                            <p style=""font-size:50px; font-weight:bold;""
                            >trustworthy</p>
                            <div style=""width:240px; margin: auto;"">
                                <img src=""images/Y_L_S_28.png"" style= ""width:200px""alt=""img"">
                            </div>
                        </div>","-73","","0","images/Y_L_S_28.png","","","","trustworthy","1","28","Y","L","S","",""
"","","","","","html-slider-response","46","203071","0.0-42.0","0ppvgfx63n","14","NaN","<div style=""width:500px;"">
                            <p style=""font-size:50px; font-weight:bold;""
                            >trustworthy</p>
                            <div style=""width:240px; margin: auto;"">
                                <img src=""images/B_D_S_26.png"" style= ""width:200px""alt=""img"">
                            </div>
                        </div>","-19","","0","images/B_D_S_26.png","","","","trustworthy","2","26","B","D","S","",""
"","","","","","html-slider-response","47","205135","0.0-43.0","0ppvgfx63n","14","NaN","<div style=""width:500px;"">
                            <p style=""font-size:50px; font-weight:bold;""
                            >trustworthy</p>
                            <div style=""width:240px; margin: auto;"">
                                <img src=""images/B_D_U_27.png"" style= ""width:200px""alt=""img"">
                            </div>
                        </div>","-129","","0","images/B_D_U_27.png","","","","trustworthy","2","27","B","D","U","",""
"","","","","","html-slider-response","48","207504","0.0-44.0","0ppvgfx63n","14","NaN","<div style=""width:500px;"">
                            <p style=""font-size:50px; font-weight:bold;""
                            >trustworthy</p>
                            <div style=""width:240px; margin: auto;"">
                                <img src=""images/G_L_S_07.png"" style= ""width:200px""alt=""img"">
                            </div>
                        </div>","-31","","0","images/G_L_S_07.png","","","","trustworthy","2","07","G","L","S","",""
"","","","","","html-slider-response","49","209478","0.0-45.0","0ppvgfx63n","14","NaN","<div style=""width:500px;"">
                            <p style=""font-size:50px; font-weight:bold;""
                            >trustworthy</p>
                            <div style=""width:240px; margin: auto;"">
                                <img src=""images/G_L_S_07.png"" style= ""width:200px""alt=""img"">
                            </div>
                        </div>","-41","","0","images/G_L_S_07.png","","","","trustworthy","1","07","G","L","S","",""
"","","","","","html-button-response","50","211737","0.0-46.0","0ppvgfx63n","14","1755","<p>Great Job! You've finished block 1.<br></br> You have 7 block(s) left to go.<br></br></p>","0","","","","","","","","","","","","","",""
"","","","","","html-button-response","51","213442","0.0-47.0","0ppvgfx63n","14","1704","<p>In this block of trials, you will be asked to rate how much you associate each map with:</p > <p style = 'font-size:150%; font-weight: bold'>exciting</p><br></br>","0","","","","","","","","","","","","","",""
"","","","","","html-slider-response","52","214959","0.0-48.0","0ppvgfx63n","14","NaN","<div style=""width:500px;"">
                            <p style=""font-size:50px; font-weight:bold;""
                            >exciting</p>
                            <div style=""width:240px; margin: auto;"">
                                <img src=""images/R_L_U_44.png"" style= ""width:200px""alt=""img"">
                            </div>
                        </div>","-85","","0","images/R_L_U_44.png","","","","exciting","1","44","R","L","U","",""
"","","","","","html-slider-response","53","216951","0.0-49.0","0ppvgfx63n","14","NaN","<div style=""width:500px;"">
                            <p style=""font-size:50px; font-weight:bold;""
                            >exciting</p>
                            <div style=""width:240px; margin: auto;"">
                                <img src=""images/Y_L_U_30.png"" style= ""width:200px""alt=""img"">
                            </div>
                        </div>","-124","","0","images/Y_L_U_30.png","","","","exciting","2","30","Y","L","U","",""
"","","","","","html-slider-response","54","218973","0.0-50.0","0ppvgfx63n","14","NaN","<div style=""width:500px;"">
                            <p style=""font-size:50px; font-weight:bold;""
                            >exciting</p>
                            <div style=""width:240px; margin: auto;"">
                                <img src=""images/B_L_S_15.png"" style= ""width:200px""alt=""img"">
                            </div>
                        </div>","114","","0","images/B_L_S_15.png","","","","exciting","2","15","B","L","S","",""
"","","","","","html-slider-response","55","221811","0.0-51.0","0ppvgfx63n","14","NaN","<div style=""width:500px;"">
                            <p style=""font-size:50px; font-weight:bold;""
                            >exciting</p>
                            <div style=""width:240px; margin: auto;"">
                                <img src=""images/B_D_S_26.png"" style= ""width:200px""alt=""img"">
                            </div>
                        </div>","34","","0","images/B_D_S_26.png","","","","exciting","2","26","B","D","S","",""
"","","","","","html-slider-response","56","224205","0.0-52.0","0ppvgfx63n","14","NaN","<div style=""width:500px;"">
                            <p style=""font-size:50px; font-weight:bold;""
                            >exciting</p>
                            <div style=""width:240px; margin: auto;"">
                                <img src=""images/R_L_U_44.png"" style= ""width:200px""alt=""img"">
                            </div>
                        </div>","-44","","0","images/R_L_U_44.png","","","","exciting","2","44","R","L","U","",""
"","","","","","html-slider-response","57","226322","0.0-53.0","0ppvgfx63n","14","NaN","<div style=""width:500px;"">
                            <p style=""font-size:50px; font-weight:bold;""
                            >exciting</p>
                            <div style=""width:240px; margin: auto;"">
                                <img src=""images/B_D_U_27.png"" style= ""width:200px""alt=""img"">
                            </div>
                        </div>","-130","","0","images/B_D_U_27.png","","","","exciting","2","27","B","D","U","",""
"","","","","","html-slider-response","58","228363","0.0-54.0","0ppvgfx63n","14","NaN","<div style=""width:500px;"">
                            <p style=""font-size:50px; font-weight:bold;""
                            >exciting</p>
                            <div style=""width:240px; margin: auto;"">
                                <img src=""images/Y_L_U_30.png"" style= ""width:200px""alt=""img"">
                            </div>
                        </div>","-141","","0","images/Y_L_U_30.png","","","","exciting","1","30","Y","L","U","",""
"","","","","","html-slider-response","59","230353","0.0-55.0","0ppvgfx63n","14","NaN","<div style=""width:500px;"">
                            <p style=""font-size:50px; font-weight:bold;""
                            >exciting</p>
                            <div style=""width:240px; margin: auto;"">
                                <img src=""images/B_L_S_15.png"" style= ""width:200px""alt=""img"">
                            </div>
                        </div>","48","","0","images/B_L_S_15.png","","","","exciting","1","15","B","L","S","",""
"","","","","","html-slider-response","60","232447","0.0-56.0","0ppvgfx63n","14","NaN","<div style=""width:500px;"">
                            <p style=""font-size:50px; font-weight:bold;""
                            >exciting</p>
                            <div style=""width:240px; margin: auto;"">
                                <img src=""images/Y_D_U_37.png"" style= ""width:200px""alt=""img"">
                            </div>
                        </div>","-200","","0","images/Y_D_U_37.png","","","","exciting","1","37","Y","D","U","",""
"","","","","","html-slider-response","61","234656","0.0-57.0","0ppvgfx63n","14","NaN","<div style=""width:500px;"">
                            <p style=""font-size:50px; font-weight:bold;""
                            >exciting</p>
                            <div style=""width:240px; margin: auto;"">
                                <img src=""images/R_L_S_41.png"" style= ""width:200px""alt=""img"">
                            </div>
                        </div>","110","","0","images/R_L_S_41.png","","","","exciting","1","41","R","L","S","",""
"","","","","","html-slider-response","62","236648","0.0-58.0","0ppvgfx63n","14","NaN","<div style=""width:500px;"">
                            <p style=""font-size:50px; font-weight:bold;""
                            >exciting</p>
                            <div style=""width:240px; margin: auto;"">
                                <img src=""images/G_D_U_13.png"" style= ""width:200px""alt=""img"">
                            </div>
                        </div>","-91","","0","images/G_D_U_13.png","","","","exciting","1","13","G","D","U","",""
"","","","","","html-slider-response","63","238790","0.0-59.0","0ppvgfx63n","14","NaN","<div style=""width:500px;"">
                            <p style=""font-size:50px; font-weight:bold;""
                            >exciting</p>
                            <div style=""width:240px; margin: auto;"">
                                <img src=""images/Y_D_U_37.png"" style= ""width:200px""alt=""img"">
                            </div>
                        </div>","-170","","0","images/Y_D_U_37.png","","","","exciting","2","37","Y","D","U","",""
"","","","","","html-slider-response","64","241614","0.0-60.0","0ppvgfx63n","14","NaN","<div style=""width:500px;"">
                            <p style=""font-size:50px; font-weight:bold;""
                            >exciting</p>
                            <div style=""width:240px; margin: auto;"">
                                <img src=""images/G_L_S_07.png"" style= ""width:200px""alt=""img"">
                            </div>
                        </div>","58","","0","images/G_L_S_07.png","","","","exciting","1","07","G","L","S","",""
"","","","","","html-slider-response","65","244787","0.0-61.0","0ppvgfx63n","14","NaN","<div style=""width:500px;"">
                            <p style=""font-size:50px; font-weight:bold;""
                            >exciting</p>
                            <div style=""width:240px; margin: auto;"">
                                <img src=""images/Y_L_S_28.png"" style= ""width:200px""alt=""img"">
                            </div>
                        </div>","19","","0","images/Y_L_S_28.png","","","","exciting","2","28","Y","L","S","",""
"","","","","","html-slider-response","66","246919","0.0-62.0","0ppvgfx63n","14","NaN","<div style=""width:500px;"">
                            <p style=""font-size:50px; font-weight:bold;""
                            >exciting</p>
                            <div style=""width:240px; margin: auto;"">
                                <img src=""images/Y_D_S_33.png"" style= ""width:200px""alt=""img"">
                            </div>
                        </div>","-200","","0","images/Y_D_S_33.png","","","","exciting","1","33","Y","D","S","",""
"","","","","","html-slider-response","67","249203","0.0-63.0","0ppvgfx63n","14","NaN","<div style=""width:500px;"">
                            <p style=""font-size:50px; font-weight:bold;""
                            >exciting</p>
                            <div style=""width:240px; margin: auto;"">
                                <img src=""images/G_D_U_13.png"" style= ""width:200px""alt=""img"">
                            </div>
                        </div>","-158","","0","images/G_D_U_13.png","","","","exciting","2","13","G","D","U","",""
"","","","","","html-slider-response","68","251978","0.0-64.0","0ppvgfx63n","14","NaN","<div style=""width:500px;"">
                            <p style=""font-size:50px; font-weight:bold;""
                            >exciting</p>
                            <div style=""width:240px; margin: auto;"">
                                <img src=""images/R_D_S_02.png"" style= ""width:200px""alt=""img"">
                            </div>
                        </div>","-74","","0","images/R_D_S_02.png","","","","exciting","1","02","R","D","S","",""
"","","","","","html-slider-response","69","254104","0.0-65.0","0ppvgfx63n","14","NaN","<div style=""width:500px;"">
                            <p style=""font-size:50px; font-weight:bold;""
                            >exciting</p>
                            <div style=""width:240px; margin: auto;"">
                                <img src=""images/R_D_U_05.png"" style= ""width:200px""alt=""img"">
                            </div>
                        </div>","-87","","0","images/R_D_U_05.png","","","","exciting","1","05","R","D","U","",""
"","","","","","html-slider-response","70","256003","0.0-66.0","0ppvgfx63n","14","NaN","<div style=""width:500px;"">
                            <p style=""font-size:50px; font-weight:bold;""
                            >exciting</p>
                            <div style=""width:240px; margin: auto;"">
                                <img src=""images/B_D_S_26.png"" style= ""width:200px""alt=""img"">
                            </div>
                        </div>","-42","","0","images/B_D_S_26.png","","","","exciting","1","26","B","D","S","",""
"","","","","","html-slider-response","71","257954","0.0-67.0","0ppvgfx63n","14","NaN","<div style=""width:500px;"">
                            <p style=""font-size:50px; font-weight:bold;""
                            >exciting</p>
                            <div style=""width:240px; margin: auto;"">
                                <img src=""images/G_L_U_10.png"" style= ""width:200px""alt=""img"">
                            </div>
                        </div>","81","","0","images/G_L_U_10.png","","","","exciting","1","10","G","L","U","",""
"","","","","","html-slider-response","72","259937","0.0-68.0","0ppvgfx63n","14","NaN","<div style=""width:500px;"">
                            <p style=""font-size:50px; font-weight:bold;""
                            >exciting</p>
                            <div style=""width:240px; margin: auto;"">
                                <img src=""images/G_L_U_10.png"" style= ""width:200px""alt=""img"">
                            </div>
                        </div>","70","","0","images/G_L_U_10.png","","","","exciting","2","10","G","L","U","",""
"","","","","","html-slider-response","73","261842","0.0-69.0","0ppvgfx63n","14","NaN","<div style=""width:500px;"">
                            <p style=""font-size:50px; font-weight:bold;""
                            >exciting</p>
                            <div style=""width:240px; margin: auto;"">
                                <img src=""images/Y_L_S_28.png"" style= ""width:200px""alt=""img"">
                            </div>
                        </div>","-50","","0","images/Y_L_S_28.png","","","","exciting","1","28","Y","L","S","",""
"","","","","","html-slider-response","74","263806","0.0-70.0","0ppvgfx63n","14","NaN","<div style=""width:500px;"">
                            <p style=""font-size:50px; font-weight:bold;""
                            >exciting</p>
                            <div style=""width:240px; margin: auto;"">
                                <img src=""images/R_D_U_05.png"" style= ""width:200px""alt=""img"">
                            </div>
                        </div>","-106","","0","images/R_D_U_05.png","","","","exciting","2","05","R","D","U","",""
"","","","","","html-slider-response","75","265887","0.0-71.0","0ppvgfx63n","14","NaN","<div style=""width:500px;"">
                            <p style=""font-size:50px; font-weight:bold;""
                            >exciting</p>
                            <div style=""width:240px; margin: auto;"">
                                <img src=""images/B_D_U_27.png"" style= ""width:200px""alt=""img"">
                            </div>
                        </div>","-200","","0","images/B_D_U_27.png","","","","exciting","1","27","B","D","U","",""
"","","","","","html-slider-response","76","268202","0.0-72.0","0ppvgfx63n","14","NaN","<div style=""width:500px;"">
                            <p style=""font-size:50px; font-weight:bold;""
                            >exciting</p>
                            <div style=""width:240px; margin: auto;"">
                                <img src=""images/R_L_S_41.png"" style= ""width:200px""alt=""img"">
                            </div>
                        </div>","80","","0","images/R_L_S_41.png","","","","exciting","2","41","R","L","S","",""
"","","","","","html-slider-response","77","270049","0.0-73.0","0ppvgfx63n","14","NaN","<div style=""width:500px;"">
                            <p style=""font-size:50px; font-weight:bold;""
                            >exciting</p>
                            <div style=""width:240px; margin: auto;"">
                                <img src=""images/B_L_U_23.png"" style= ""width:200px""alt=""img"">
                            </div>
                        </div>","139","","0","images/B_L_U_23.png","","","","exciting","1","23","B","L","U","",""
"","","","","","html-slider-response","78","272541","0.0-74.0","0ppvgfx63n","14","NaN","<div style=""width:500px;"">
                            <p style=""font-size:50px; font-weight:bold;""
                            >exciting</p>
                            <div style=""width:240px; margin: auto;"">
                                <img src=""images/G_D_S_12.png"" style= ""width:200px""alt=""img"">
                            </div>
                        </div>","78","","0","images/G_D_S_12.png","","","","exciting","1","12","G","D","S","",""
"","","","","","html-slider-response","79","274381","0.0-75.0","0ppvgfx63n","14","NaN","<div style=""width:500px;"">
                            <p style=""font-size:50px; font-weight:bold;""
                            >exciting</p>
                            <div style=""width:240px; margin: auto;"">
                                <img src=""images/G_L_S_07.png"" style= ""width:200px""alt=""img"">
                            </div>
                        </div>","170","","0","images/G_L_S_07.png","","","","exciting","2","07","G","L","S","",""
"","","","","","html-slider-response","80","276285","0.0-76.0","0ppvgfx63n","14","NaN","<div style=""width:500px;"">
                            <p style=""font-size:50px; font-weight:bold;""
                            >exciting</p>
                            <div style=""width:240px; margin: auto;"">
                                <img src=""images/Y_D_S_33.png"" style= ""width:200px""alt=""img"">
                            </div>
                        </div>","-200","","0","images/Y_D_S_33.png","","","","exciting","2","33","Y","D","S","",""
"","","","","","html-slider-response","81","278298","0.0-77.0","0ppvgfx63n","14","NaN","<div style=""width:500px;"">
                            <p style=""font-size:50px; font-weight:bold;""
                            >exciting</p>
                            <div style=""width:240px; margin: auto;"">
                                <img src=""images/G_D_S_12.png"" style= ""width:200px""alt=""img"">
                            </div>
                        </div>","-53","","0","images/G_D_S_12.png","","","","exciting","2","12","G","D","S","",""
"","","","","","html-slider-response","82","280053","0.0-78.0","0ppvgfx63n","14","NaN","<div style=""width:500px;"">
                            <p style=""font-size:50px; font-weight:bold;""
                            >exciting</p>
                            <div style=""width:240px; margin: auto;"">
                                <img src=""images/B_L_U_23.png"" style= ""width:200px""alt=""img"">
                            </div>
                        </div>","200","","0","images/B_L_U_23.png","","","","exciting","2","23","B","L","U","",""
"","","","","","html-slider-response","83","285020","0.0-79.0","0ppvgfx63n","14","NaN","<div style=""width:500px;"">
                            <p style=""font-size:50px; font-weight:bold;""
                            >exciting</p>
                            <div style=""width:240px; margin: auto;"">
                                <img src=""images/R_D_S_02.png"" style= ""width:200px""alt=""img"">
                            </div>
                        </div>","-16","","0","images/R_D_S_02.png","","","","exciting","2","02","R","D","S","",""
"","","","","","html-button-response","84","286629","0.0-80.0","0ppvgfx63n","14","1107","<p>Great Job! You've finished block 2.<br></br> You have 6 block(s) left to go.<br></br></p>","0","","","","","","","","","","","","","",""
"","","","","","html-button-response","85","287533","0.0-81.0","0ppvgfx63n","14","902","<p>In this block of trials, you will be asked to rate how much you associate each map with:</p > <p style = 'font-size:150%; font-weight: bold'>playful</p><br></br>","0","","","","","","","","","","","","","",""
"","","","","","html-slider-response","86","289821","0.0-82.0","0ppvgfx63n","14","NaN","<div style=""width:500px;"">
                            <p style=""font-size:50px; font-weight:bold;""
                            >playful</p>
                            <div style=""width:240px; margin: auto;"">
                                <img src=""images/G_L_U_10.png"" style= ""width:200px""alt=""img"">
                            </div>
                        </div>","-119","","0","images/G_L_U_10.png","","","","playful","2","10","G","L","U","",""
"","","","","","html-slider-response","87","291756","0.0-83.0","0ppvgfx63n","14","NaN","<div style=""width:500px;"">
                            <p style=""font-size:50px; font-weight:bold;""
                            >playful</p>
                            <div style=""width:240px; margin: auto;"">
                                <img src=""images/B_L_S_15.png"" style= ""width:200px""alt=""img"">
                            </div>
                        </div>","200","","0","images/B_L_S_15.png","","","","playful","2","15","B","L","S","",""
"","","","","","html-slider-response","88","294412","0.0-84.0","0ppvgfx63n","14","NaN","<div style=""width:500px;"">
                            <p style=""font-size:50px; font-weight:bold;""
                            >playful</p>
                            <div style=""width:240px; margin: auto;"">
                                <img src=""images/B_L_U_23.png"" style= ""width:200px""alt=""img"">
                            </div>
                        </div>","132","","0","images/B_L_U_23.png","","","","playful","1","23","B","L","U","",""
"","","","","","html-slider-response","89","296032","0.0-85.0","0ppvgfx63n","14","NaN","<div style=""width:500px;"">
                            <p style=""font-size:50px; font-weight:bold;""
                            >playful</p>
                            <div style=""width:240px; margin: auto;"">
                                <img src=""images/G_D_U_13.png"" style= ""width:200px""alt=""img"">
                            </div>
                        </div>","-200","","0","images/G_D_U_13.png","","","","playful","2","13","G","D","U","",""
"","","","","","html-slider-response","90","297870","0.0-86.0","0ppvgfx63n","14","NaN","<div style=""width:500px;"">
                            <p style=""font-size:50px; font-weight:bold;""
                            >playful</p>
                            <div style=""width:240px; margin: auto;"">
                                <img src=""images/G_L_S_07.png"" style= ""width:200px""alt=""img"">
                            </div>
                        </div>","68","","0","images/G_L_S_07.png","","","","playful","1","07","G","L","S","",""
"","","","","","html-slider-response","91","299813","0.0-87.0","0ppvgfx63n","14","NaN","<div style=""width:500px;"">
                            <p style=""font-size:50px; font-weight:bold;""
                            >playful</p>
                            <div style=""width:240px; margin: auto;"">
                                <img src=""images/R_D_U_05.png"" style= ""width:200px""alt=""img"">
                            </div>
                        </div>","-200","","0","images/R_D_U_05.png","","","","playful","2","05","R","D","U","",""
"","","","","","html-slider-response","92","301860","0.0-88.0","0ppvgfx63n","14","NaN","<div style=""width:500px;"">
                            <p style=""font-size:50px; font-weight:bold;""
                            >playful</p>
                            <div style=""width:240px; margin: auto;"">
                                <img src=""images/Y_L_U_30.png"" style= ""width:200px""alt=""img"">
                            </div>
                        </div>","-200","","0","images/Y_L_U_30.png","","","","playful","1","30","Y","L","U","",""
"","","","","","html-slider-response","93","303810","0.0-89.0","0ppvgfx63n","14","NaN","<div style=""width:500px;"">
                            <p style=""font-size:50px; font-weight:bold;""
                            >playful</p>
                            <div style=""width:240px; margin: auto;"">
                                <img src=""images/B_L_S_15.png"" style= ""width:200px""alt=""img"">
                            </div>
                        </div>","200","","0","images/B_L_S_15.png","","","","playful","1","15","B","L","S","",""
"","","","","","html-slider-response","94","305523","0.0-90.0","0ppvgfx63n","14","NaN","<div style=""width:500px;"">
                            <p style=""font-size:50px; font-weight:bold;""
                            >playful</p>
                            <div style=""width:240px; margin: auto;"">
                                <img src=""images/Y_D_U_37.png"" style= ""width:200px""alt=""img"">
                            </div>
                        </div>","-200","","0","images/Y_D_U_37.png","","","","playful","2","37","Y","D","U","",""
"","","","","","html-slider-response","95","309267","0.0-91.0","0ppvgfx63n","14","NaN","<div style=""width:500px;"">
                            <p style=""font-size:50px; font-weight:bold;""
                            >playful</p>
                            <div style=""width:240px; margin: auto;"">
                                <img src=""images/Y_L_S_28.png"" style= ""width:200px""alt=""img"">
                            </div>
                        </div>","83","","0","images/Y_L_S_28.png","","","","playful","1","28","Y","L","S","",""
"","","","","","html-slider-response","96","311059","0.0-92.0","0ppvgfx63n","14","NaN","<div style=""width:500px;"">
                            <p style=""font-size:50px; font-weight:bold;""
                            >playful</p>
                            <div style=""width:240px; margin: auto;"">
                                <img src=""images/R_D_S_02.png"" style= ""width:200px""alt=""img"">
                            </div>
                        </div>","-200","","0","images/R_D_S_02.png","","","","playful","1","02","R","D","S","",""
"","","","","","html-slider-response","97","313204","0.0-93.0","0ppvgfx63n","14","NaN","<div style=""width:500px;"">
                            <p style=""font-size:50px; font-weight:bold;""
                            >playful</p>
                            <div style=""width:240px; margin: auto;"">
                                <img src=""images/G_L_S_07.png"" style= ""width:200px""alt=""img"">
                            </div>
                        </div>","132","","0","images/G_L_S_07.png","","","","playful","2","07","G","L","S","",""
"","","","","","html-slider-response","98","315246","0.0-94.0","0ppvgfx63n","14","NaN","<div style=""width:500px;"">
                            <p style=""font-size:50px; font-weight:bold;""
                            >playful</p>
                            <div style=""width:240px; margin: auto;"">
                                <img src=""images/Y_L_S_28.png"" style= ""width:200px""alt=""img"">
                            </div>
                        </div>","-163","","0","images/Y_L_S_28.png","","","","playful","2","28","Y","L","S","",""
"","","","","","html-slider-response","99","317591","0.0-95.0","0ppvgfx63n","14","NaN","<div style=""width:500px;"">
                            <p style=""font-size:50px; font-weight:bold;""
                            >playful</p>
                            <div style=""width:240px; margin: auto;"">
                                <img src=""images/Y_D_S_33.png"" style= ""width:200px""alt=""img"">
                            </div>
                        </div>","-200","","0","images/Y_D_S_33.png","","","","playful","1","33","Y","D","S","",""
"","","","","","html-slider-response","100","320099","0.0-96.0","0ppvgfx63n","14","NaN","<div style=""width:500px;"">
                            <p style=""font-size:50px; font-weight:bold;""
                            >playful</p>
                            <div style=""width:240px; margin: auto;"">
                                <img src=""images/B_L_U_23.png"" style= ""width:200px""alt=""img"">
                            </div>
                        </div>","134","","0","images/B_L_U_23.png","","","","playful","2","23","B","L","U","",""
"","","","","","html-slider-response","101","322339","0.0-97.0","0ppvgfx63n","14","NaN","<div style=""width:500px;"">
                            <p style=""font-size:50px; font-weight:bold;""
                            >playful</p>
                            <div style=""width:240px; margin: auto;"">
                                <img src=""images/R_L_U_44.png"" style= ""width:200px""alt=""img"">
                            </div>
                        </div>","-200","","0","images/R_L_U_44.png","","","","playful","2","44","R","L","U","",""
"","","","","","html-slider-response","102","324455","0.0-98.0","0ppvgfx63n","14","NaN","<div style=""width:500px;"">
                            <p style=""font-size:50px; font-weight:bold;""
                            >playful</p>
                            <div style=""width:240px; margin: auto;"">
                                <img src=""images/B_D_S_26.png"" style= ""width:200px""alt=""img"">
                            </div>
                        </div>","19","","0","images/B_D_S_26.png","","","","playful","1","26","B","D","S","",""
"","","","","","html-slider-response","103","327781","0.0-99.0","0ppvgfx63n","14","NaN","<div style=""width:500px;"">
                            <p style=""font-size:50px; font-weight:bold;""
                            >playful</p>
                            <div style=""width:240px; margin: auto;"">
                                <img src=""images/B_D_U_27.png"" style= ""width:200px""alt=""img"">
                            </div>
                        </div>","-200","","0","images/B_D_U_27.png","","","","playful","1","27","B","D","U","",""
"","","","","","html-slider-response","104","329670","0.0-100.0","0ppvgfx63n","14","NaN","<div style=""width:500px;"">
                            <p style=""font-size:50px; font-weight:bold;""
                            >playful</p>
                            <div style=""width:240px; margin: auto;"">
                                <img src=""images/R_D_S_02.png"" style= ""width:200px""alt=""img"">
                            </div>
                        </div>","-97","","0","images/R_D_S_02.png","","","","playful","2","02","R","D","S","",""
"","","","","","html-slider-response","105","331774","0.0-101.0","0ppvgfx63n","14","NaN","<div style=""width:500px;"">
                            <p style=""font-size:50px; font-weight:bold;""
                            >playful</p>
                            <div style=""width:240px; margin: auto;"">
                                <img src=""images/B_D_S_26.png"" style= ""width:200px""alt=""img"">
                            </div>
                        </div>","-78","","0","images/B_D_S_26.png","","","","playful","2","26","B","D","S","",""
"","","","","","html-slider-response","106","333349","0.0-102.0","0ppvgfx63n","14","NaN","<div style=""width:500px;"">
                            <p style=""font-size:50px; font-weight:bold;""
                            >playful</p>
                            <div style=""width:240px; margin: auto;"">
                                <img src=""images/Y_D_S_33.png"" style= ""width:200px""alt=""img"">
                            </div>
                        </div>","-200","","0","images/Y_D_S_33.png","","","","playful","2","33","Y","D","S","",""
"","","","","","html-slider-response","107","339379","0.0-103.0","0ppvgfx63n","14","NaN","<div style=""width:500px;"">
                            <p style=""font-size:50px; font-weight:bold;""
                            >playful</p>
                            <div style=""width:240px; margin: auto;"">
                                <img src=""images/G_D_S_12.png"" style= ""width:200px""alt=""img"">
                            </div>
                        </div>","-63","","0","images/G_D_S_12.png","","","","playful","1","12","G","D","S","",""
"","","","","","html-slider-response","108","341445","0.0-104.0","0ppvgfx63n","14","NaN","<div style=""width:500px;"">
                            <p style=""font-size:50px; font-weight:bold;""
                            >playful</p>
                            <div style=""width:240px; margin: auto;"">
                                <img src=""images/R_D_U_05.png"" style= ""width:200px""alt=""img"">
                            </div>
                        </div>","-140","","0","images/R_D_U_05.png","","","","playful","1","05","R","D","U","",""
"","","","","","html-slider-response","109","344037","0.0-105.0","0ppvgfx63n","14","NaN","<div style=""width:500px;"">
                            <p style=""font-size:50px; font-weight:bold;""
                            >playful</p>
                            <div style=""width:240px; margin: auto;"">
                                <img src=""images/R_L_S_41.png"" style= ""width:200px""alt=""img"">
                            </div>
                        </div>","50","","0","images/R_L_S_41.png","","","","playful","1","41","R","L","S","",""
"","","","","","html-slider-response","110","345870","0.0-106.0","0ppvgfx63n","14","NaN","<div style=""width:500px;"">
                            <p style=""font-size:50px; font-weight:bold;""
                            >playful</p>
                            <div style=""width:240px; margin: auto;"">
                                <img src=""images/R_L_S_41.png"" style= ""width:200px""alt=""img"">
                            </div>
                        </div>","63","","0","images/R_L_S_41.png","","","","playful","2","41","R","L","S","",""
"","","","","","html-slider-response","111","347428","0.0-107.0","0ppvgfx63n","14","NaN","<div style=""width:500px;"">
                            <p style=""font-size:50px; font-weight:bold;""
                            >playful</p>
                            <div style=""width:240px; margin: auto;"">
                                <img src=""images/Y_D_U_37.png"" style= ""width:200px""alt=""img"">
                            </div>
                        </div>","-200","","0","images/Y_D_U_37.png","","","","playful","1","37","Y","D","U","",""
"","","","","","html-slider-response","112","350871","0.0-108.0","0ppvgfx63n","14","NaN","<div style=""width:500px;"">
                            <p style=""font-size:50px; font-weight:bold;""
                            >playful</p>
                            <div style=""width:240px; margin: auto;"">
                                <img src=""images/G_D_S_12.png"" style= ""width:200px""alt=""img"">
                            </div>
                        </div>","-55","","0","images/G_D_S_12.png","","","","playful","2","12","G","D","S","",""
"","","","","","html-slider-response","113","352646","0.0-109.0","0ppvgfx63n","14","NaN","<div style=""width:500px;"">
                            <p style=""font-size:50px; font-weight:bold;""
                            >playful</p>
                            <div style=""width:240px; margin: auto;"">
                                <img src=""images/G_D_U_13.png"" style= ""width:200px""alt=""img"">
                            </div>
                        </div>","-94","","0","images/G_D_U_13.png","","","","playful","1","13","G","D","U","",""
"","","","","","html-slider-response","114","354426","0.0-110.0","0ppvgfx63n","14","NaN","<div style=""width:500px;"">
                            <p style=""font-size:50px; font-weight:bold;""
                            >playful</p>
                            <div style=""width:240px; margin: auto;"">
                                <img src=""images/B_D_U_27.png"" style= ""width:200px""alt=""img"">
                            </div>
                        </div>","-138","","0","images/B_D_U_27.png","","","","playful","2","27","B","D","U","",""
"","","","","","html-slider-response","115","356132","0.0-111.0","0ppvgfx63n","14","NaN","<div style=""width:500px;"">
                            <p style=""font-size:50px; font-weight:bold;""
                            >playful</p>
                            <div style=""width:240px; margin: auto;"">
                                <img src=""images/Y_L_U_30.png"" style= ""width:200px""alt=""img"">
                            </div>
                        </div>","-195","","0","images/Y_L_U_30.png","","","","playful","2","30","Y","L","U","",""
"","","","","","html-slider-response","116","358042","0.0-112.0","0ppvgfx63n","14","NaN","<div style=""width:500px;"">
                            <p style=""font-size:50px; font-weight:bold;""
                            >playful</p>
                            <div style=""width:240px; margin: auto;"">
                                <img src=""images/R_L_U_44.png"" style= ""width:200px""alt=""img"">
                            </div>
                        </div>","-155","","0","images/R_L_U_44.png","","","","playful","1","44","R","L","U","",""
"","","","","","html-slider-response","117","359789","0.0-113.0","0ppvgfx63n","14","NaN","<div style=""width:500px;"">
                            <p style=""font-size:50px; font-weight:bold;""
                            >playful</p>
                            <div style=""width:240px; margin: auto;"">
                                <img src=""images/G_L_U_10.png"" style= ""width:200px""alt=""img"">
                            </div>
                        </div>","49","","0","images/G_L_U_10.png","","","","playful","1","10","G","L","U","",""
"","","","","","html-button-response","118","380207","0.0-114.0","0ppvgfx63n","14","19911","<p>Great Job! You've finished block 3.<br></br> You have 5 block(s) left to go.<br></br></p>","0","","","","","","","","","","","","","",""
"","","","","","html-button-response","119","381543","0.0-115.0","0ppvgfx63n","14","1334","<p>In this block of trials, you will be asked to rate how much you associate each map with:</p > <p style = 'font-size:150%; font-weight: bold'>negative</p><br></br>","0","","","","","","","","","","","","","",""
"","","","","","html-slider-response","120","383592","0.0-116.0","0ppvgfx63n","14","NaN","<div style=""width:500px;"">
                            <p style=""font-size:50px; font-weight:bold;""
                            >negative</p>
                            <div style=""width:240px; margin: auto;"">
                                <img src=""images/R_D_S_02.png"" style= ""width:200px""alt=""img"">
                            </div>
                        </div>","142","","0","images/R_D_S_02.png","","","","negative","1","02","R","D","S","",""
"","","","","","html-slider-response","121","385589","0.0-117.0","0ppvgfx63n","14","NaN","<div style=""width:500px;"">
                            <p style=""font-size:50px; font-weight:bold;""
                            >negative</p>
                            <div style=""width:240px; margin: auto;"">
                                <img src=""images/Y_D_S_33.png"" style= ""width:200px""alt=""img"">
                            </div>
                        </div>","200","","0","images/Y_D_S_33.png","","","","negative","1","33","Y","D","S","",""
"","","","","","html-slider-response","122","387578","0.0-118.0","0ppvgfx63n","14","NaN","<div style=""width:500px;"">
                            <p style=""font-size:50px; font-weight:bold;""
                            >negative</p>
                            <div style=""width:240px; margin: auto;"">
                                <img src=""images/B_D_U_27.png"" style= ""width:200px""alt=""img"">
                            </div>
                        </div>","123","","0","images/B_D_U_27.png","","","","negative","2","27","B","D","U","",""
"","","","","","html-slider-response","123","389540","0.0-119.0","0ppvgfx63n","14","NaN","<div style=""width:500px;"">
                            <p style=""font-size:50px; font-weight:bold;""
                            >negative</p>
                            <div style=""width:240px; margin: auto;"">
                                <img src=""images/R_L_U_44.png"" style= ""width:200px""alt=""img"">
                            </div>
                        </div>","109","","0","images/R_L_U_44.png","","","","negative","2","44","R","L","U","",""
"","","","","","html-slider-response","124","391362","0.0-120.0","0ppvgfx63n","14","NaN","<div style=""width:500px;"">
                            <p style=""font-size:50px; font-weight:bold;""
                            >negative</p>
                            <div style=""width:240px; margin: auto;"">
                                <img src=""images/G_D_S_12.png"" style= ""width:200px""alt=""img"">
                            </div>
                        </div>","53","","0","images/G_D_S_12.png","","","","negative","2","12","G","D","S","",""
"","","","","","html-slider-response","125","393445","0.0-121.0","0ppvgfx63n","14","NaN","<div style=""width:500px;"">
                            <p style=""font-size:50px; font-weight:bold;""
                            >negative</p>
                            <div style=""width:240px; margin: auto;"">
                                <img src=""images/Y_L_S_28.png"" style= ""width:200px""alt=""img"">
                            </div>
                        </div>","109","","0","images/Y_L_S_28.png","","","","negative","2","28","Y","L","S","",""
"","","","","","html-slider-response","126","396113","0.0-122.0","0ppvgfx63n","14","NaN","<div style=""width:500px;"">
                            <p style=""font-size:50px; font-weight:bold;""
                            >negative</p>
                            <div style=""width:240px; margin: auto;"">
                                <img src=""images/G_L_S_07.png"" style= ""width:200px""alt=""img"">
                            </div>
                        </div>","-54","","0","images/G_L_S_07.png","","","","negative","2","07","G","L","S","",""
"","","","","","html-slider-response","127","398373","0.0-123.0","0ppvgfx63n","14","NaN","<div style=""width:500px;"">
                            <p style=""font-size:50px; font-weight:bold;""
                            >negative</p>
                            <div style=""width:240px; margin: auto;"">
                                <img src=""images/B_L_U_23.png"" style= ""width:200px""alt=""img"">
                            </div>
                        </div>","-181","","0","images/B_L_U_23.png","","","","negative","2","23","B","L","U","",""
"","","","","","html-slider-response","128","400562","0.0-124.0","0ppvgfx63n","14","NaN","<div style=""width:500px;"">
                            <p style=""font-size:50px; font-weight:bold;""
                            >negative</p>
                            <div style=""width:240px; margin: auto;"">
                                <img src=""images/Y_L_S_28.png"" style= ""width:200px""alt=""img"">
                            </div>
                        </div>","100","","0","images/Y_L_S_28.png","","","","negative","1","28","Y","L","S","",""
"","","","","","html-slider-response","129","403559","0.0-125.0","0ppvgfx63n","14","NaN","<div style=""width:500px;"">
                            <p style=""font-size:50px; font-weight:bold;""
                            >negative</p>
                            <div style=""width:240px; margin: auto;"">
                                <img src=""images/B_D_U_27.png"" style= ""width:200px""alt=""img"">
                            </div>
                        </div>","170","","0","images/B_D_U_27.png","","","","negative","1","27","B","D","U","",""
"","","","","","html-slider-response","130","406708","0.0-126.0","0ppvgfx63n","14","NaN","<div style=""width:500px;"">
                            <p style=""font-size:50px; font-weight:bold;""
                            >negative</p>
                            <div style=""width:240px; margin: auto;"">
                                <img src=""images/R_L_U_44.png"" style= ""width:200px""alt=""img"">
                            </div>
                        </div>","100","","0","images/R_L_U_44.png","","","","negative","1","44","R","L","U","",""
"","","","","","html-slider-response","131","409015","0.0-127.0","0ppvgfx63n","14","NaN","<div style=""width:500px;"">
                            <p style=""font-size:50px; font-weight:bold;""
                            >negative</p>
                            <div style=""width:240px; margin: auto;"">
                                <img src=""images/R_D_U_05.png"" style= ""width:200px""alt=""img"">
                            </div>
                        </div>","133","","0","images/R_D_U_05.png","","","","negative","2","05","R","D","U","",""
"","","","","","html-slider-response","132","411442","0.0-128.0","0ppvgfx63n","14","NaN","<div style=""width:500px;"">
                            <p style=""font-size:50px; font-weight:bold;""
                            >negative</p>
                            <div style=""width:240px; margin: auto;"">
                                <img src=""images/Y_D_U_37.png"" style= ""width:200px""alt=""img"">
                            </div>
                        </div>","200","","0","images/Y_D_U_37.png","","","","negative","2","37","Y","D","U","",""
"","","","","","html-slider-response","133","413219","0.0-129.0","0ppvgfx63n","14","NaN","<div style=""width:500px;"">
                            <p style=""font-size:50px; font-weight:bold;""
                            >negative</p>
                            <div style=""width:240px; margin: auto;"">
                                <img src=""images/B_L_S_15.png"" style= ""width:200px""alt=""img"">
                            </div>
                        </div>","-200","","0","images/B_L_S_15.png","","","","negative","2","15","B","L","S","",""
"","","","","","html-slider-response","134","415156","0.0-130.0","0ppvgfx63n","14","NaN","<div style=""width:500px;"">
                            <p style=""font-size:50px; font-weight:bold;""
                            >negative</p>
                            <div style=""width:240px; margin: auto;"">
                                <img src=""images/Y_L_U_30.png"" style= ""width:200px""alt=""img"">
                            </div>
                        </div>","49","","0","images/Y_L_U_30.png","","","","negative","1","30","Y","L","U","",""
"","","","","","html-slider-response","135","417271","0.0-131.0","0ppvgfx63n","14","NaN","<div style=""width:500px;"">
                            <p style=""font-size:50px; font-weight:bold;""
                            >negative</p>
                            <div style=""width:240px; margin: auto;"">
                                <img src=""images/R_L_S_41.png"" style= ""width:200px""alt=""img"">
                            </div>
                        </div>","97","","0","images/R_L_S_41.png","","","","negative","1","41","R","L","S","",""
"","","","","","html-slider-response","136","420521","0.0-132.0","0ppvgfx63n","14","NaN","<div style=""width:500px;"">
                            <p style=""font-size:50px; font-weight:bold;""
                            >negative</p>
                            <div style=""width:240px; margin: auto;"">
                                <img src=""images/Y_D_U_37.png"" style= ""width:200px""alt=""img"">
                            </div>
                        </div>","189","","0","images/Y_D_U_37.png","","","","negative","1","37","Y","D","U","",""
"","","","","","html-slider-response","137","422606","0.0-133.0","0ppvgfx63n","14","NaN","<div style=""width:500px;"">
                            <p style=""font-size:50px; font-weight:bold;""
                            >negative</p>
                            <div style=""width:240px; margin: auto;"">
                                <img src=""images/R_L_S_41.png"" style= ""width:200px""alt=""img"">
                            </div>
                        </div>","66","","0","images/R_L_S_41.png","","","","negative","2","41","R","L","S","",""
"","","","","","html-slider-response","138","424412","0.0-134.0","0ppvgfx63n","14","NaN","<div style=""width:500px;"">
                            <p style=""font-size:50px; font-weight:bold;""
                            >negative</p>
                            <div style=""width:240px; margin: auto;"">
                                <img src=""images/B_L_S_15.png"" style= ""width:200px""alt=""img"">
                            </div>
                        </div>","-200","","0","images/B_L_S_15.png","","","","negative","1","15","B","L","S","",""
"","","","","","html-slider-response","139","426612","0.0-135.0","0ppvgfx63n","14","NaN","<div style=""width:500px;"">
                            <p style=""font-size:50px; font-weight:bold;""
                            >negative</p>
                            <div style=""width:240px; margin: auto;"">
                                <img src=""images/G_L_U_10.png"" style= ""width:200px""alt=""img"">
                            </div>
                        </div>","-140","","0","images/G_L_U_10.png","","","","negative","2","10","G","L","U","",""
"","","","","","html-slider-response","140","428983","0.0-136.0","0ppvgfx63n","14","NaN","<div style=""width:500px;"">
                            <p style=""font-size:50px; font-weight:bold;""
                            >negative</p>
                            <div style=""width:240px; margin: auto;"">
                                <img src=""images/B_L_U_23.png"" style= ""width:200px""alt=""img"">
                            </div>
                        </div>","-137","","0","images/B_L_U_23.png","","","","negative","1","23","B","L","U","",""
"","","","","","html-slider-response","141","432496","0.0-137.0","0ppvgfx63n","14","NaN","<div style=""width:500px;"">
                            <p style=""font-size:50px; font-weight:bold;""
                            >negative</p>
                            <div style=""width:240px; margin: auto;"">
                                <img src=""images/B_D_S_26.png"" style= ""width:200px""alt=""img"">
                            </div>
                        </div>","-15","","0","images/B_D_S_26.png","","","","negative","1","26","B","D","S","",""
"","","","","","html-slider-response","142","441308","0.0-138.0","0ppvgfx63n","14","NaN","<div style=""width:500px;"">
                            <p style=""font-size:50px; font-weight:bold;""
                            >negative</p>
                            <div style=""width:240px; margin: auto;"">
                                <img src=""images/G_L_S_07.png"" style= ""width:200px""alt=""img"">
                            </div>
                        </div>","-62","","0","images/G_L_S_07.png","","","","negative","1","07","G","L","S","",""
"","","","","","html-slider-response","143","443612","0.0-139.0","0ppvgfx63n","14","NaN","<div style=""width:500px;"">
                            <p style=""font-size:50px; font-weight:bold;""
                            >negative</p>
                            <div style=""width:240px; margin: auto;"">
                                <img src=""images/G_L_U_10.png"" style= ""width:200px""alt=""img"">
                            </div>
                        </div>","-50","","0","images/G_L_U_10.png","","","","negative","1","10","G","L","U","",""
"","","","","","html-slider-response","144","446224","0.0-140.0","0ppvgfx63n","14","NaN","<div style=""width:500px;"">
                            <p style=""font-size:50px; font-weight:bold;""
                            >negative</p>
                            <div style=""width:240px; margin: auto;"">
                                <img src=""images/G_D_U_13.png"" style= ""width:200px""alt=""img"">
                            </div>
                        </div>","163","","0","images/G_D_U_13.png","","","","negative","2","13","G","D","U","",""
"","","","","","html-slider-response","145","449195","0.0-141.0","0ppvgfx63n","14","NaN","<div style=""width:500px;"">
                            <p style=""font-size:50px; font-weight:bold;""
                            >negative</p>
                            <div style=""width:240px; margin: auto;"">
                                <img src=""images/B_D_S_26.png"" style= ""width:200px""alt=""img"">
                            </div>
                        </div>","-42","","0","images/B_D_S_26.png","","","","negative","2","26","B","D","S","",""
"","","","","","html-slider-response","146","451912","0.0-142.0","0ppvgfx63n","14","NaN","<div style=""width:500px;"">
                            <p style=""font-size:50px; font-weight:bold;""
                            >negative</p>
                            <div style=""width:240px; margin: auto;"">
                                <img src=""images/R_D_S_02.png"" style= ""width:200px""alt=""img"">
                            </div>
                        </div>","130","","0","images/R_D_S_02.png","","","","negative","2","02","R","D","S","",""
"","","","","","html-slider-response","147","453879","0.0-143.0","0ppvgfx63n","14","NaN","<div style=""width:500px;"">
                            <p style=""font-size:50px; font-weight:bold;""
                            >negative</p>
                            <div style=""width:240px; margin: auto;"">
                                <img src=""images/G_D_U_13.png"" style= ""width:200px""alt=""img"">
                            </div>
                        </div>","126","","0","images/G_D_U_13.png","","","","negative","1","13","G","D","U","",""
"","","","","","html-slider-response","148","456157","0.0-144.0","0ppvgfx63n","14","NaN","<div style=""width:500px;"">
                            <p style=""font-size:50px; font-weight:bold;""
                            >negative</p>
                            <div style=""width:240px; margin: auto;"">
                                <img src=""images/G_D_S_12.png"" style= ""width:200px""alt=""img"">
                            </div>
                        </div>","24","","0","images/G_D_S_12.png","","","","negative","1","12","G","D","S","",""
"","","","","","html-slider-response","149","457975","0.0-145.0","0ppvgfx63n","14","NaN","<div style=""width:500px;"">
                            <p style=""font-size:50px; font-weight:bold;""
                            >negative</p>
                            <div style=""width:240px; margin: auto;"">
                                <img src=""images/Y_L_U_30.png"" style= ""width:200px""alt=""img"">
                            </div>
                        </div>","70","","0","images/Y_L_U_30.png","","","","negative","2","30","Y","L","U","",""
"","","","","","html-slider-response","150","460129","0.0-146.0","0ppvgfx63n","14","NaN","<div style=""width:500px;"">
                            <p style=""font-size:50px; font-weight:bold;""
                            >negative</p>
                            <div style=""width:240px; margin: auto;"">
                                <img src=""images/R_D_U_05.png"" style= ""width:200px""alt=""img"">
                            </div>
                        </div>","146","","0","images/R_D_U_05.png","","","","negative","1","05","R","D","U","",""
"","","","","","html-slider-response","151","462558","0.0-147.0","0ppvgfx63n","14","NaN","<div style=""width:500px;"">
                            <p style=""font-size:50px; font-weight:bold;""
                            >negative</p>
                            <div style=""width:240px; margin: auto;"">
                                <img src=""images/Y_D_S_33.png"" style= ""width:200px""alt=""img"">
                            </div>
                        </div>","197","","0","images/Y_D_S_33.png","","","","negative","2","33","Y","D","S","",""
"","","","","","html-button-response","152","464068","0.0-148.0","0ppvgfx63n","14","1006","<p>Great Job! You've finished block 4.<br></br> You have 4 block(s) left to go.<br></br></p>","0","","","","","","","","","","","","","",""
"","","","","","html-button-response","153","464790","0.0-149.0","0ppvgfx63n","14","720","<p>In this block of trials, you will be asked to rate how much you associate each map with:</p > <p style = 'font-size:150%; font-weight: bold'>serious</p><br></br>","0","","","","","","","","","","","","","",""
"","","","","","html-slider-response","154","466318","0.0-150.0","0ppvgfx63n","14","NaN","<div style=""width:500px;"">
                            <p style=""font-size:50px; font-weight:bold;""
                            >serious</p>
                            <div style=""width:240px; margin: auto;"">
                                <img src=""images/B_D_S_26.png"" style= ""width:200px""alt=""img"">
                            </div>
                        </div>","122","","0","images/B_D_S_26.png","","","","serious","1","26","B","D","S","",""
"","","","","","html-slider-response","155","468173","0.0-151.0","0ppvgfx63n","14","NaN","<div style=""width:500px;"">
                            <p style=""font-size:50px; font-weight:bold;""
                            >serious</p>
                            <div style=""width:240px; margin: auto;"">
                                <img src=""images/G_L_S_07.png"" style= ""width:200px""alt=""img"">
                            </div>
                        </div>","-200","","0","images/G_L_S_07.png","","","","serious","1","07","G","L","S","",""
"","","","","","html-slider-response","156","470036","0.0-152.0","0ppvgfx63n","14","NaN","<div style=""width:500px;"">
                            <p style=""font-size:50px; font-weight:bold;""
                            >serious</p>
                            <div style=""width:240px; margin: auto;"">
                                <img src=""images/R_D_S_02.png"" style= ""width:200px""alt=""img"">
                            </div>
                        </div>","200","","0","images/R_D_S_02.png","","","","serious","2","02","R","D","S","",""
"","","","","","html-slider-response","157","471946","0.0-153.0","0ppvgfx63n","14","NaN","<div style=""width:500px;"">
                            <p style=""font-size:50px; font-weight:bold;""
                            >serious</p>
                            <div style=""width:240px; margin: auto;"">
                                <img src=""images/B_D_U_27.png"" style= ""width:200px""alt=""img"">
                            </div>
                        </div>","200","","0","images/B_D_U_27.png","","","","serious","1","27","B","D","U","",""
"","","","","","html-slider-response","158","473961","0.0-154.0","0ppvgfx63n","14","NaN","<div style=""width:500px;"">
                            <p style=""font-size:50px; font-weight:bold;""
                            >serious</p>
                            <div style=""width:240px; margin: auto;"">
                                <img src=""images/R_L_U_44.png"" style= ""width:200px""alt=""img"">
                            </div>
                        </div>","87","","0","images/R_L_U_44.png","","","","serious","1","44","R","L","U","",""
"","","","","","html-slider-response","159","475545","0.0-155.0","0ppvgfx63n","14","NaN","<div style=""width:500px;"">
                            <p style=""font-size:50px; font-weight:bold;""
                            >serious</p>
                            <div style=""width:240px; margin: auto;"">
                                <img src=""images/B_L_S_15.png"" style= ""width:200px""alt=""img"">
                            </div>
                        </div>","-200","","0","images/B_L_S_15.png","","","","serious","1","15","B","L","S","",""
"","","","","","html-slider-response","160","477406","0.0-156.0","0ppvgfx63n","14","NaN","<div style=""width:500px;"">
                            <p style=""font-size:50px; font-weight:bold;""
                            >serious</p>
                            <div style=""width:240px; margin: auto;"">
                                <img src=""images/Y_D_U_37.png"" style= ""width:200px""alt=""img"">
                            </div>
                        </div>","200","","0","images/Y_D_U_37.png","","","","serious","1","37","Y","D","U","",""
"","","","","","html-slider-response","161","480593","0.0-157.0","0ppvgfx63n","14","NaN","<div style=""width:500px;"">
                            <p style=""font-size:50px; font-weight:bold;""
                            >serious</p>
                            <div style=""width:240px; margin: auto;"">
                                <img src=""images/Y_L_U_30.png"" style= ""width:200px""alt=""img"">
                            </div>
                        </div>","-51","","0","images/Y_L_U_30.png","","","","serious","2","30","Y","L","U","",""
"","","","","","html-slider-response","162","482596","0.0-158.0","0ppvgfx63n","14","NaN","<div style=""width:500px;"">
                            <p style=""font-size:50px; font-weight:bold;""
                            >serious</p>
                            <div style=""width:240px; margin: auto;"">
                                <img src=""images/R_L_U_44.png"" style= ""width:200px""alt=""img"">
                            </div>
                        </div>","94","","0","images/R_L_U_44.png","","","","serious","2","44","R","L","U","",""
"","","","","","html-slider-response","163","485002","0.0-159.0","0ppvgfx63n","14","NaN","<div style=""width:500px;"">
                            <p style=""font-size:50px; font-weight:bold;""
                            >serious</p>
                            <div style=""width:240px; margin: auto;"">
                                <img src=""images/Y_D_S_33.png"" style= ""width:200px""alt=""img"">
                            </div>
                        </div>","200","","0","images/Y_D_S_33.png","","","","serious","1","33","Y","D","S","",""
"","","","","","html-slider-response","164","488061","0.0-160.0","0ppvgfx63n","14","NaN","<div style=""width:500px;"">
                            <p style=""font-size:50px; font-weight:bold;""
                            >serious</p>
                            <div style=""width:240px; margin: auto;"">
                                <img src=""images/G_L_U_10.png"" style= ""width:200px""alt=""img"">
                            </div>
                        </div>","-127","","0","images/G_L_U_10.png","","","","serious","2","10","G","L","U","",""
"","","","","","html-slider-response","165","489689","0.0-161.0","0ppvgfx63n","14","NaN","<div style=""width:500px;"">
                            <p style=""font-size:50px; font-weight:bold;""
                            >serious</p>
                            <div style=""width:240px; margin: auto;"">
                                <img src=""images/Y_D_U_37.png"" style= ""width:200px""alt=""img"">
                            </div>
                        </div>","200","","0","images/Y_D_U_37.png","","","","serious","2","37","Y","D","U","",""
"","","","","","html-slider-response","166","491742","0.0-162.0","0ppvgfx63n","14","NaN","<div style=""width:500px;"">
                            <p style=""font-size:50px; font-weight:bold;""
                            >serious</p>
                            <div style=""width:240px; margin: auto;"">
                                <img src=""images/R_D_U_05.png"" style= ""width:200px""alt=""img"">
                            </div>
                        </div>","175","","0","images/R_D_U_05.png","","","","serious","2","05","R","D","U","",""
"","","","","","html-slider-response","167","493429","0.0-163.0","0ppvgfx63n","14","NaN","<div style=""width:500px;"">
                            <p style=""font-size:50px; font-weight:bold;""
                            >serious</p>
                            <div style=""width:240px; margin: auto;"">
                                <img src=""images/Y_L_U_30.png"" style= ""width:200px""alt=""img"">
                            </div>
                        </div>","67","","0","images/Y_L_U_30.png","","","","serious","1","30","Y","L","U","",""
"","","","","","html-slider-response","168","495247","0.0-164.0","0ppvgfx63n","14","NaN","<div style=""width:500px;"">
                            <p style=""font-size:50px; font-weight:bold;""
                            >serious</p>
                            <div style=""width:240px; margin: auto;"">
                                <img src=""images/Y_L_S_28.png"" style= ""width:200px""alt=""img"">
                            </div>
                        </div>","200","","0","images/Y_L_S_28.png","","","","serious","2","28","Y","L","S","",""
"","","","","","html-slider-response","169","497279","0.0-165.0","0ppvgfx63n","14","NaN","<div style=""width:500px;"">
                            <p style=""font-size:50px; font-weight:bold;""
                            >serious</p>
                            <div style=""width:240px; margin: auto;"">
                                <img src=""images/G_D_U_13.png"" style= ""width:200px""alt=""img"">
                            </div>
                        </div>","200","","0","images/G_D_U_13.png","","","","serious","2","13","G","D","U","",""
"","","","","","html-slider-response","170","500118","0.0-166.0","0ppvgfx63n","14","NaN","<div style=""width:500px;"">
                            <p style=""font-size:50px; font-weight:bold;""
                            >serious</p>
                            <div style=""width:240px; margin: auto;"">
                                <img src=""images/B_D_S_26.png"" style= ""width:200px""alt=""img"">
                            </div>
                        </div>","94","","0","images/B_D_S_26.png","","","","serious","2","26","B","D","S","",""
"","","","","","html-slider-response","171","502393","0.0-167.0","0ppvgfx63n","14","NaN","<div style=""width:500px;"">
                            <p style=""font-size:50px; font-weight:bold;""
                            >serious</p>
                            <div style=""width:240px; margin: auto;"">
                                <img src=""images/R_L_S_41.png"" style= ""width:200px""alt=""img"">
                            </div>
                        </div>","147","","0","images/R_L_S_41.png","","","","serious","2","41","R","L","S","",""
"","","","","","html-slider-response","172","504154","0.0-168.0","0ppvgfx63n","14","NaN","<div style=""width:500px;"">
                            <p style=""font-size:50px; font-weight:bold;""
                            >serious</p>
                            <div style=""width:240px; margin: auto;"">
                                <img src=""images/G_D_U_13.png"" style= ""width:200px""alt=""img"">
                            </div>
                        </div>","200","","0","images/G_D_U_13.png","","","","serious","1","13","G","D","U","",""
"","","","","","html-slider-response","173","505993","0.0-169.0","0ppvgfx63n","14","NaN","<div style=""width:500px;"">
                            <p style=""font-size:50px; font-weight:bold;""
                            >serious</p>
                            <div style=""width:240px; margin: auto;"">
                                <img src=""images/G_L_U_10.png"" style= ""width:200px""alt=""img"">
                            </div>
                        </div>","91","","0","images/G_L_U_10.png","","","","serious","1","10","G","L","U","",""
"","","","","","html-slider-response","174","507882","0.0-170.0","0ppvgfx63n","14","NaN","<div style=""width:500px;"">
                            <p style=""font-size:50px; font-weight:bold;""
                            >serious</p>
                            <div style=""width:240px; margin: auto;"">
                                <img src=""images/G_D_S_12.png"" style= ""width:200px""alt=""img"">
                            </div>
                        </div>","118","","0","images/G_D_S_12.png","","","","serious","2","12","G","D","S","",""
"","","","","","html-slider-response","175","509850","0.0-171.0","0ppvgfx63n","14","NaN","<div style=""width:500px;"">
                            <p style=""font-size:50px; font-weight:bold;""
                            >serious</p>
                            <div style=""width:240px; margin: auto;"">
                                <img src=""images/B_L_U_23.png"" style= ""width:200px""alt=""img"">
                            </div>
                        </div>","-194","","0","images/B_L_U_23.png","","","","serious","1","23","B","L","U","",""
"","","","","","html-slider-response","176","511879","0.0-172.0","0ppvgfx63n","14","NaN","<div style=""width:500px;"">
                            <p style=""font-size:50px; font-weight:bold;""
                            >serious</p>
                            <div style=""width:240px; margin: auto;"">
                                <img src=""images/R_D_U_05.png"" style= ""width:200px""alt=""img"">
                            </div>
                        </div>","123","","0","images/R_D_U_05.png","","","","serious","1","05","R","D","U","",""
"","","","","","html-slider-response","177","513727","0.0-173.0","0ppvgfx63n","14","NaN","<div style=""width:500px;"">
                            <p style=""font-size:50px; font-weight:bold;""
                            >serious</p>
                            <div style=""width:240px; margin: auto;"">
                                <img src=""images/B_L_S_15.png"" style= ""width:200px""alt=""img"">
                            </div>
                        </div>","-126","","0","images/B_L_S_15.png","","","","serious","2","15","B","L","S","",""
"","","","","","html-slider-response","178","515678","0.0-174.0","0ppvgfx63n","14","NaN","<div style=""width:500px;"">
                            <p style=""font-size:50px; font-weight:bold;""
                            >serious</p>
                            <div style=""width:240px; margin: auto;"">
                                <img src=""images/Y_L_S_28.png"" style= ""width:200px""alt=""img"">
                            </div>
                        </div>","114","","0","images/Y_L_S_28.png","","","","serious","1","28","Y","L","S","",""
"","","","","","html-slider-response","179","517827","0.0-175.0","0ppvgfx63n","14","NaN","<div style=""width:500px;"">
                            <p style=""font-size:50px; font-weight:bold;""
                            >serious</p>
                            <div style=""width:240px; margin: auto;"">
                                <img src=""images/R_D_S_02.png"" style= ""width:200px""alt=""img"">
                            </div>
                        </div>","166","","0","images/R_D_S_02.png","","","","serious","1","02","R","D","S","",""
"","","","","","html-slider-response","180","519457","0.0-176.0","0ppvgfx63n","14","NaN","<div style=""width:500px;"">
                            <p style=""font-size:50px; font-weight:bold;""
                            >serious</p>
                            <div style=""width:240px; margin: auto;"">
                                <img src=""images/B_L_U_23.png"" style= ""width:200px""alt=""img"">
                            </div>
                        </div>","-100","","0","images/B_L_U_23.png","","","","serious","2","23","B","L","U","",""
"","","","","","html-slider-response","181","521459","0.0-177.0","0ppvgfx63n","14","NaN","<div style=""width:500px;"">
                            <p style=""font-size:50px; font-weight:bold;""
                            >serious</p>
                            <div style=""width:240px; margin: auto;"">
                                <img src=""images/B_D_U_27.png"" style= ""width:200px""alt=""img"">
                            </div>
                        </div>","200","","0","images/B_D_U_27.png","","","","serious","2","27","B","D","U","",""
"","","","","","html-slider-response","182","525542","0.0-178.0","0ppvgfx63n","14","NaN","<div style=""width:500px;"">
                            <p style=""font-size:50px; font-weight:bold;""
                            >serious</p>
                            <div style=""width:240px; margin: auto;"">
                                <img src=""images/G_D_S_12.png"" style= ""width:200px""alt=""img"">
                            </div>
                        </div>","57","","0","images/G_D_S_12.png","","","","serious","1","12","G","D","S","",""
"","","","","","html-slider-response","183","528003","0.0-179.0","0ppvgfx63n","14","NaN","<div style=""width:500px;"">
                            <p style=""font-size:50px; font-weight:bold;""
                            >serious</p>
                            <div style=""width:240px; margin: auto;"">
                                <img src=""images/Y_D_S_33.png"" style= ""width:200px""alt=""img"">
                            </div>
                        </div>","200","","0","images/Y_D_S_33.png","","","","serious","2","33","Y","D","S","",""
