"success","timeout","failed_images","failed_audio","failed_video","trial_type","trial_index","time_elapsed","internal_node_id","subject_id","condition_num","rt","stimulus","response","question_order","slider_start","image_path","practiceTrial","practiceTrialNum","correct","concept","repetition","map_id","hue","lightness","saturation","ishihara_plate","correct_response"
"true","false","[]","[]","[]","preload","0","1993","0.0-0.0","13s4rsg2o5","11","","","","","","","","","","","","","","","","",""
"","","","","","html-button-response","1","3590","0.0-1.0","13s4rsg2o5","11","1595","Welcome to our experiment!<p>At the bottom of this screen, you will see a button that says ""Begin Experiment"".<br>Please only click that button when you are ready to complete the 25 minute experiment in one sitting.</p><p> Once you click that button, it will not be possible to restart the experiment.","0","","","","","","","","","","","","","",""
"true","","","","","fullscreen","2","5820","0.0-2.0","13s4rsg2o5","11","1228","","","","","","","","","","","","","","","",""
"","","","","","survey-multi-select","3","16155","0.0-3.0","13s4rsg2o5","11","10334","","{""Consent"":[""<strong>I consent</strong>""]}","[0]","","","","","","","","","","","","",""
"","","","","","html-button-response","4","18096","0.0-4.0","13s4rsg2o5","11","1938","Welcome! <p> This experiment involves two parts: demographic information, followed by the experimental task.<p> It will take about 25 minutes to complete both parts.","0","","","","","","","","","","","","","",""
"","","","","","survey-text","5","31055","0.0-5.0","13s4rsg2o5","11","12950","","{""Age"":""19"",""Gender"":""Male"",""Race/ethnicity"":""White"",""Languages"":""English, Spanish\n""}","","","","","","","","","","","","","",""
"","","","","","html-slider-response","6","46456","0.0-6.0","13s4rsg2o5","11","15398","
                            <div style='text-align:left; font-size:20px; line-height:25px; width: 1400px;'>
                                During this experiment you will be asked to rate how much you associate maps with                    different concepts.<br> Below, you can see some examples of the maps you will be asked to rate. Next to the maps
                    is the list of concepts.<br>You will be asked                    to rate how much you associate each map with each concept on a scale from 'not at all' to 'very much' like the
                    one below. <br><br>
                    Now, please look at the list of concepts and maps. For each concept, think about the map you associate 'very
                    much' with the concept.<br>                     When you see that map during the experiment, please rate it near the 'very much' endpoint of the
                    scale.<br>Now, please think about which map you associate 'not at all'                     with each concept. When you see that map during the experiment, please rate it near the 'not at all' endpoint
                    of the scale.<br>
                    Please use the full range of the scale. That is, if a map is somewhat associated with the concept, you would
                    click partway between the middle point and right side of the scale.                    You will be asked to rate each map for a given concept before moving on to the next concept.<br><br>Press the
                    'Continue' button for instructions on how to use the slider.                    <br><br>
                </div>

                <div style=""width: 500px; margin: 0 auto;"">
                    <!-- Centered text paragraphs -->
                    <div style=""text-align: center; width: 500px;"">
                        <p style=""font-size:25px; line-height:18px;"">calm</p>
                        <p style=""font-size:25px; line-height:18px;"">exciting</p>
                        <p style=""font-size:25px;line-height:18px;"">positive</p>
                        <p style=""font-size:25px;line-height:18px;"">negative</p>
                        <p style=""font-size:25px;line-height:18px;"">serious</p>
                        <p style=""font-size:25px;line-height:18px;"">playful</p>
                        <p style=""font-size:25px;line-height:18px;"">trustworthy</p>
                        <p style=""font-size:25px;line-height:18px;"">disturbing</p>
                    </div>

                    <!-- Grid section -->
                   <div style=""display: flex; justify-content: center; padding-top: 15px;"">
                    <div style=""display: grid; grid-template-columns: repeat(8, 80px); grid-gap: 5px; width: auto;"">
                        <img src=""images/B_D_S_13.png"" alt=""map"" style=""width: 100%;""><img src=""images/B_L_S_10.png"" alt=""map"" style=""width: 100%;""><img src=""images/Y_D_S_27.png"" alt=""map"" style=""width: 100%;""><img src=""images/R_L_S_30.png"" alt=""map"" style=""width: 100%;""><img src=""images/G_L_S_44.png"" alt=""map"" style=""width: 100%;""><img src=""images/Y_L_U_26.png"" alt=""map"" style=""width: 100%;""><img src=""images/Y_L_S_23.png"" alt=""map"" style=""width: 100%;""><img src=""images/G_L_U_02.png"" alt=""map"" style=""width: 100%;""><img src=""images/B_D_U_15.png"" alt=""map"" style=""width: 100%;""><img src=""images/G_D_S_05.png"" alt=""map"" style=""width: 100%;""><img src=""images/R_D_S_37.png"" alt=""map"" style=""width: 100%;""><img src=""images/R_D_U_41.png"" alt=""map"" style=""width: 100%;""><img src=""images/R_L_U_33.png"" alt=""map"" style=""width: 100%;""><img src=""images/G_D_U_07.png"" alt=""map"" style=""width: 100%;""><img src=""images/Y_D_U_28.png"" alt=""map"" style=""width: 100%;""><img src=""images/B_L_U_12.png"" alt=""map"" style=""width: 100%;"">
                    </div>
                </div>

                    <!-- Clear floats -->
                    <div style=""clear: both;""></div>
                </div>
                            ","null","","0","maps_anchoring.png","true","","","","","","","","","",""
"","","","","","html-button-response","7","47933","0.0-7.0","13s4rsg2o5","11","1476","<div style=""width:800px;""><p style=""text-align:left"">To move the slider, click and drag your cursor to the location of the scale where you would like to make your rating and then let go. When you let go of the slider, your response will be recorded and the next trial will begin. <br>
                    We are interested in your initial impressions of each map for the given concept, so please go with your first intuition. <br>
                    Before you begin the experiment, there will be four training trials for you to practice using the scale. <br>
                     When you are ready to start the training trials, please click ""Continue"".</p><br></div>","0","","","","","","","","","","","","","",""
"","","","","","html-slider-response","8","50470","0.0-8.0-0.0","13s4rsg2o5","11","NaN","<div style=""width:500px;"">
                                    <p style=""font-size:25px;"">Please move the slider all the way to the <br> right endpoint of the scale</p>

                                    </div>
                                </div>","200","","0","","true","0","true","","","","","","","",""
"","","","","","html-button-response","9","51634","0.0-8.0-1.0","13s4rsg2o5","11","661","<p align='center'><b>Good job!</b> Click on 'Continue' to proceed.</p>","0","","","","","","","","","","","","","",""
"","","","","","html-slider-response","10","52701","0.0-9.0-0.0","13s4rsg2o5","11","NaN","<div style=""width:500px;"">
                                    <p style=""font-size:25px;"">Please move the slider all the way to the <br> left endpoint of the scale</p>

                                    </div>
                                </div>","-200","","0","","true","1","true","","","","","","","",""
"","","","","","html-button-response","11","54400","0.0-9.0-1.0","13s4rsg2o5","11","1196","<p align='center'><b>Good job!</b> Click on 'Continue' to proceed.</p>","0","","","","","","","","","","","","","",""
"","","","","","html-slider-response","12","57104","0.0-10.0-0.0","13s4rsg2o5","11","NaN","<div style=""width:500px;"">
                                    <p style=""font-size:25px;"">Please move the slider halfway between the center and right endpoint of the scale</p>

                                    </div>
                                </div>","1","","0","","true","2","false","","","","","","","",""
"","","","","","html-button-response","13","58364","0.0-10.0-1.0","13s4rsg2o5","11","758","<p align='center'><b>Not quite!</b> The slider was not placed near the instructed located. Click on 'Continue' to try again. </p>","0","","","","","","","","","","","","","",""
"","","","","","html-slider-response","14","60727","0.0-10.1-0.1","13s4rsg2o5","11","NaN","<div style=""width:500px;"">
                                    <p style=""font-size:25px;"">Please move the slider halfway between the center and right endpoint of the scale</p>

                                    </div>
                                </div>","100","","0","","true","2","true","","","","","","","",""
"","","","","","html-button-response","15","61722","0.0-10.1-1.1","13s4rsg2o5","11","492","<p align='center'><b>Good job!</b> Click on 'Continue' to proceed.</p>","0","","","","","","","","","","","","","",""
"","","","","","html-slider-response","16","63004","0.0-11.0-0.0","13s4rsg2o5","11","NaN","<div style=""width:500px;"">
                                    <p style=""font-size:25px;"">Please move the slider halfway between the center and left endpoint of the scale</p>

                                    </div>
                                </div>","-94","","0","","true","3","true","","","","","","","",""
"","","","","","html-button-response","17","63991","0.0-11.0-1.0","13s4rsg2o5","11","484","<p align='center'><b>Good job!</b> Click on 'Continue' to proceed.</p>","0","","","","","","","","","","","","","",""
"","","","","","html-button-response","18","65055","0.0-12.0","13s4rsg2o5","11","1062","<p>Great job! You've completed the practice trials. Now you will begin the main task.</p>","0","","","","","","","","","","","","","",""
"","","","","","html-button-response","19","66606","0.0-13.0","13s4rsg2o5","11","1550","<p>In this block of trials, you will be asked to rate how much you associate each map with:</p > <p style = 'font-size:150%; font-weight: bold'>calm</p><br></br>","0","","","","","","","","","","","","","",""
"","","","","","html-slider-response","20","68656","0.0-14.0","13s4rsg2o5","11","NaN","<div style=""width:500px;"">
                            <p style=""font-size:50px; font-weight:bold;""
                            >calm</p>
                            <div style=""width:240px; margin: auto;"">
                                <img src=""images/R_L_S_30.png"" style= ""width:200px""alt=""img"">
                            </div>
                        </div>","-94","","0","images/R_L_S_30.png","","","","calm","2","30","R","L","S","",""
"","","","","","html-slider-response","21","71254","0.0-15.0","13s4rsg2o5","11","NaN","<div style=""width:500px;"">
                            <p style=""font-size:50px; font-weight:bold;""
                            >calm</p>
                            <div style=""width:240px; margin: auto;"">
                                <img src=""images/R_D_U_41.png"" style= ""width:200px""alt=""img"">
                            </div>
                        </div>","200","","0","images/R_D_U_41.png","","","","calm","1","41","R","D","U","",""
"","","","","","html-slider-response","22","73269","0.0-16.0","13s4rsg2o5","11","NaN","<div style=""width:500px;"">
                            <p style=""font-size:50px; font-weight:bold;""
                            >calm</p>
                            <div style=""width:240px; margin: auto;"">
                                <img src=""images/Y_L_S_23.png"" style= ""width:200px""alt=""img"">
                            </div>
                        </div>","-58","","0","images/Y_L_S_23.png","","","","calm","1","23","Y","L","S","",""
"","","","","","html-slider-response","23","75241","0.0-17.0","13s4rsg2o5","11","NaN","<div style=""width:500px;"">
                            <p style=""font-size:50px; font-weight:bold;""
                            >calm</p>
                            <div style=""width:240px; margin: auto;"">
                                <img src=""images/G_D_S_05.png"" style= ""width:200px""alt=""img"">
                            </div>
                        </div>","147","","0","images/G_D_S_05.png","","","","calm","2","05","G","D","S","",""
"","","","","","html-slider-response","24","77025","0.0-18.0","13s4rsg2o5","11","NaN","<div style=""width:500px;"">
                            <p style=""font-size:50px; font-weight:bold;""
                            >calm</p>
                            <div style=""width:240px; margin: auto;"">
                                <img src=""images/R_L_S_30.png"" style= ""width:200px""alt=""img"">
                            </div>
                        </div>","-70","","0","images/R_L_S_30.png","","","","calm","1","30","R","L","S","",""
"","","","","","html-slider-response","25","78576","0.0-19.0","13s4rsg2o5","11","NaN","<div style=""width:500px;"">
                            <p style=""font-size:50px; font-weight:bold;""
                            >calm</p>
                            <div style=""width:240px; margin: auto;"">
                                <img src=""images/R_D_S_37.png"" style= ""width:200px""alt=""img"">
                            </div>
                        </div>","98","","0","images/R_D_S_37.png","","","","calm","2","37","R","D","S","",""
"","","","","","html-slider-response","26","79967","0.0-20.0","13s4rsg2o5","11","NaN","<div style=""width:500px;"">
                            <p style=""font-size:50px; font-weight:bold;""
                            >calm</p>
                            <div style=""width:240px; margin: auto;"">
                                <img src=""images/G_L_S_44.png"" style= ""width:200px""alt=""img"">
                            </div>
                        </div>","36","","0","images/G_L_S_44.png","","","","calm","1","44","G","L","S","",""
"","","","","","html-slider-response","27","81222","0.0-21.0","13s4rsg2o5","11","NaN","<div style=""width:500px;"">
                            <p style=""font-size:50px; font-weight:bold;""
                            >calm</p>
                            <div style=""width:240px; margin: auto;"">
                                <img src=""images/G_L_S_44.png"" style= ""width:200px""alt=""img"">
                            </div>
                        </div>","44","","0","images/G_L_S_44.png","","","","calm","2","44","G","L","S","",""
"","","","","","html-slider-response","28","82947","0.0-22.0","13s4rsg2o5","11","NaN","<div style=""width:500px;"">
                            <p style=""font-size:50px; font-weight:bold;""
                            >calm</p>
                            <div style=""width:240px; margin: auto;"">
                                <img src=""images/B_D_U_15.png"" style= ""width:200px""alt=""img"">
                            </div>
                        </div>","180","","0","images/B_D_U_15.png","","","","calm","1","15","B","D","U","",""
"","","","","","html-slider-response","29","84410","0.0-23.0","13s4rsg2o5","11","NaN","<div style=""width:500px;"">
                            <p style=""font-size:50px; font-weight:bold;""
                            >calm</p>
                            <div style=""width:240px; margin: auto;"">
                                <img src=""images/Y_L_S_23.png"" style= ""width:200px""alt=""img"">
                            </div>
                        </div>","29","","0","images/Y_L_S_23.png","","","","calm","2","23","Y","L","S","",""
"","","","","","html-slider-response","30","85898","0.0-24.0","13s4rsg2o5","11","NaN","<div style=""width:500px;"">
                            <p style=""font-size:50px; font-weight:bold;""
                            >calm</p>
                            <div style=""width:240px; margin: auto;"">
                                <img src=""images/B_L_S_10.png"" style= ""width:200px""alt=""img"">
                            </div>
                        </div>","200","","0","images/B_L_S_10.png","","","","calm","2","10","B","L","S","",""
"","","","","","html-slider-response","31","87394","0.0-25.0","13s4rsg2o5","11","NaN","<div style=""width:500px;"">
                            <p style=""font-size:50px; font-weight:bold;""
                            >calm</p>
                            <div style=""width:240px; margin: auto;"">
                                <img src=""images/G_L_U_02.png"" style= ""width:200px""alt=""img"">
                            </div>
                        </div>","39","","0","images/G_L_U_02.png","","","","calm","2","02","G","L","U","",""
"","","","","","html-slider-response","32","88759","0.0-26.0","13s4rsg2o5","11","NaN","<div style=""width:500px;"">
                            <p style=""font-size:50px; font-weight:bold;""
                            >calm</p>
                            <div style=""width:240px; margin: auto;"">
                                <img src=""images/Y_D_S_27.png"" style= ""width:200px""alt=""img"">
                            </div>
                        </div>","-76","","0","images/Y_D_S_27.png","","","","calm","1","27","Y","D","S","",""
"","","","","","html-slider-response","33","90094","0.0-27.0","13s4rsg2o5","11","NaN","<div style=""width:500px;"">
                            <p style=""font-size:50px; font-weight:bold;""
                            >calm</p>
                            <div style=""width:240px; margin: auto;"">
                                <img src=""images/B_D_S_13.png"" style= ""width:200px""alt=""img"">
                            </div>
                        </div>","63","","0","images/B_D_S_13.png","","","","calm","2","13","B","D","S","",""
"","","","","","html-slider-response","34","91245","0.0-28.0","13s4rsg2o5","11","NaN","<div style=""width:500px;"">
                            <p style=""font-size:50px; font-weight:bold;""
                            >calm</p>
                            <div style=""width:240px; margin: auto;"">
                                <img src=""images/G_D_S_05.png"" style= ""width:200px""alt=""img"">
                            </div>
                        </div>","81","","0","images/G_D_S_05.png","","","","calm","1","05","G","D","S","",""
"","","","","","html-slider-response","35","92372","0.0-29.0","13s4rsg2o5","11","NaN","<div style=""width:500px;"">
                            <p style=""font-size:50px; font-weight:bold;""
                            >calm</p>
                            <div style=""width:240px; margin: auto;"">
                                <img src=""images/R_L_U_33.png"" style= ""width:200px""alt=""img"">
                            </div>
                        </div>","103","","0","images/R_L_U_33.png","","","","calm","2","33","R","L","U","",""
"","","","","","html-slider-response","36","93635","0.0-30.0","13s4rsg2o5","11","NaN","<div style=""width:500px;"">
                            <p style=""font-size:50px; font-weight:bold;""
                            >calm</p>
                            <div style=""width:240px; margin: auto;"">
                                <img src=""images/R_L_U_33.png"" style= ""width:200px""alt=""img"">
                            </div>
                        </div>","99","","0","images/R_L_U_33.png","","","","calm","1","33","R","L","U","",""
"","","","","","html-slider-response","37","116539","0.0-31.0","13s4rsg2o5","11","NaN","<div style=""width:500px;"">
                            <p style=""font-size:50px; font-weight:bold;""
                            >calm</p>
                            <div style=""width:240px; margin: auto;"">
                                <img src=""images/G_D_U_07.png"" style= ""width:200px""alt=""img"">
                            </div>
                        </div>","19","","0","images/G_D_U_07.png","","","","calm","1","07","G","D","U","",""
"","","","","","html-slider-response","38","118170","0.0-32.0","13s4rsg2o5","11","NaN","<div style=""width:500px;"">
                            <p style=""font-size:50px; font-weight:bold;""
                            >calm</p>
                            <div style=""width:240px; margin: auto;"">
                                <img src=""images/G_D_U_07.png"" style= ""width:200px""alt=""img"">
                            </div>
                        </div>","200","","0","images/G_D_U_07.png","","","","calm","2","07","G","D","U","",""
"","","","","","html-slider-response","39","119800","0.0-33.0","13s4rsg2o5","11","NaN","<div style=""width:500px;"">
                            <p style=""font-size:50px; font-weight:bold;""
                            >calm</p>
                            <div style=""width:240px; margin: auto;"">
                                <img src=""images/Y_L_U_26.png"" style= ""width:200px""alt=""img"">
                            </div>
                        </div>","7","","0","images/Y_L_U_26.png","","","","calm","2","26","Y","L","U","",""
"","","","","","html-slider-response","40","121391","0.0-34.0","13s4rsg2o5","11","NaN","<div style=""width:500px;"">
                            <p style=""font-size:50px; font-weight:bold;""
                            >calm</p>
                            <div style=""width:240px; margin: auto;"">
                                <img src=""images/B_L_U_12.png"" style= ""width:200px""alt=""img"">
                            </div>
                        </div>","178","","0","images/B_L_U_12.png","","","","calm","2","12","B","L","U","",""
"","","","","","html-slider-response","41","123064","0.0-35.0","13s4rsg2o5","11","NaN","<div style=""width:500px;"">
                            <p style=""font-size:50px; font-weight:bold;""
                            >calm</p>
                            <div style=""width:240px; margin: auto;"">
                                <img src=""images/Y_L_U_26.png"" style= ""width:200px""alt=""img"">
                            </div>
                        </div>","40","","0","images/Y_L_U_26.png","","","","calm","1","26","Y","L","U","",""
"","","","","","html-slider-response","42","130442","0.0-36.0","13s4rsg2o5","11","NaN","<div style=""width:500px;"">
                            <p style=""font-size:50px; font-weight:bold;""
                            >calm</p>
                            <div style=""width:240px; margin: auto;"">
                                <img src=""images/Y_D_U_28.png"" style= ""width:200px""alt=""img"">
                            </div>
                        </div>","189","","0","images/Y_D_U_28.png","","","","calm","1","28","Y","D","U","",""
"","","","","","html-slider-response","43","135231","0.0-37.0","13s4rsg2o5","11","NaN","<div style=""width:500px;"">
                            <p style=""font-size:50px; font-weight:bold;""
                            >calm</p>
                            <div style=""width:240px; margin: auto;"">
                                <img src=""images/B_L_U_12.png"" style= ""width:200px""alt=""img"">
                            </div>
                        </div>","166","","0","images/B_L_U_12.png","","","","calm","1","12","B","L","U","",""
"","","","","","html-slider-response","44","137438","0.0-38.0","13s4rsg2o5","11","NaN","<div style=""width:500px;"">
                            <p style=""font-size:50px; font-weight:bold;""
                            >calm</p>
                            <div style=""width:240px; margin: auto;"">
                                <img src=""images/R_D_U_41.png"" style= ""width:200px""alt=""img"">
                            </div>
                        </div>","200","","0","images/R_D_U_41.png","","","","calm","2","41","R","D","U","",""
"","","","","","html-slider-response","45","143003","0.0-39.0","13s4rsg2o5","11","NaN","<div style=""width:500px;"">
                            <p style=""font-size:50px; font-weight:bold;""
                            >calm</p>
                            <div style=""width:240px; margin: auto;"">
                                <img src=""images/Y_D_S_27.png"" style= ""width:200px""alt=""img"">
                            </div>
                        </div>","190","","0","images/Y_D_S_27.png","","","","calm","2","27","Y","D","S","",""
"","","","","","html-slider-response","46","145921","0.0-40.0","13s4rsg2o5","11","NaN","<div style=""width:500px;"">
                            <p style=""font-size:50px; font-weight:bold;""
                            >calm</p>
                            <div style=""width:240px; margin: auto;"">
                                <img src=""images/B_D_S_13.png"" style= ""width:200px""alt=""img"">
                            </div>
                        </div>","162","","0","images/B_D_S_13.png","","","","calm","1","13","B","D","S","",""
"","","","","","html-slider-response","47","148856","0.0-41.0","13s4rsg2o5","11","NaN","<div style=""width:500px;"">
                            <p style=""font-size:50px; font-weight:bold;""
                            >calm</p>
                            <div style=""width:240px; margin: auto;"">
                                <img src=""images/G_L_U_02.png"" style= ""width:200px""alt=""img"">
                            </div>
                        </div>","111","","0","images/G_L_U_02.png","","","","calm","1","02","G","L","U","",""
"","","","","","html-slider-response","48","151389","0.0-42.0","13s4rsg2o5","11","NaN","<div style=""width:500px;"">
                            <p style=""font-size:50px; font-weight:bold;""
                            >calm</p>
                            <div style=""width:240px; margin: auto;"">
                                <img src=""images/R_D_S_37.png"" style= ""width:200px""alt=""img"">
                            </div>
                        </div>","-84","","0","images/R_D_S_37.png","","","","calm","1","37","R","D","S","",""
"","","","","","html-slider-response","49","152892","0.0-43.0","13s4rsg2o5","11","NaN","<div style=""width:500px;"">
                            <p style=""font-size:50px; font-weight:bold;""
                            >calm</p>
                            <div style=""width:240px; margin: auto;"">
                                <img src=""images/Y_D_U_28.png"" style= ""width:200px""alt=""img"">
                            </div>
                        </div>","200","","0","images/Y_D_U_28.png","","","","calm","2","28","Y","D","U","",""
"","","","","","html-slider-response","50","155018","0.0-44.0","13s4rsg2o5","11","NaN","<div style=""width:500px;"">
                            <p style=""font-size:50px; font-weight:bold;""
                            >calm</p>
                            <div style=""width:240px; margin: auto;"">
                                <img src=""images/B_L_S_10.png"" style= ""width:200px""alt=""img"">
                            </div>
                        </div>","-99","","0","images/B_L_S_10.png","","","","calm","1","10","B","L","S","",""
"","","","","","html-slider-response","51","156689","0.0-45.0","13s4rsg2o5","11","NaN","<div style=""width:500px;"">
                            <p style=""font-size:50px; font-weight:bold;""
                            >calm</p>
                            <div style=""width:240px; margin: auto;"">
                                <img src=""images/B_D_U_15.png"" style= ""width:200px""alt=""img"">
                            </div>
                        </div>","200","","0","images/B_D_U_15.png","","","","calm","2","15","B","D","U","",""
"","","","","","html-button-response","52","158901","0.0-46.0","13s4rsg2o5","11","1708","<p>Great Job! You've finished block 1.<br></br> You have 7 block(s) left to go.<br></br></p>","0","","","","","","","","","","","","","",""
"","","","","","html-button-response","53","159564","0.0-47.0","13s4rsg2o5","11","662","<p>In this block of trials, you will be asked to rate how much you associate each map with:</p > <p style = 'font-size:150%; font-weight: bold'>trustworthy</p><br></br>","0","","","","","","","","","","","","","",""
"","","","","","html-slider-response","54","166228","0.0-48.0","13s4rsg2o5","11","NaN","<div style=""width:500px;"">
                            <p style=""font-size:50px; font-weight:bold;""
                            >trustworthy</p>
                            <div style=""width:240px; margin: auto;"">
                                <img src=""images/Y_D_S_27.png"" style= ""width:200px""alt=""img"">
                            </div>
                        </div>","200","","0","images/Y_D_S_27.png","","","","trustworthy","1","27","Y","D","S","",""
"","","","","","html-slider-response","55","168260","0.0-49.0","13s4rsg2o5","11","NaN","<div style=""width:500px;"">
                            <p style=""font-size:50px; font-weight:bold;""
                            >trustworthy</p>
                            <div style=""width:240px; margin: auto;"">
                                <img src=""images/R_L_U_33.png"" style= ""width:200px""alt=""img"">
                            </div>
                        </div>","170","","0","images/R_L_U_33.png","","","","trustworthy","1","33","R","L","U","",""
"","","","","","html-slider-response","56","169905","0.0-50.0","13s4rsg2o5","11","NaN","<div style=""width:500px;"">
                            <p style=""font-size:50px; font-weight:bold;""
                            >trustworthy</p>
                            <div style=""width:240px; margin: auto;"">
                                <img src=""images/B_L_U_12.png"" style= ""width:200px""alt=""img"">
                            </div>
                        </div>","157","","0","images/B_L_U_12.png","","","","trustworthy","1","12","B","L","U","",""
"","","","","","html-slider-response","57","171713","0.0-51.0","13s4rsg2o5","11","NaN","<div style=""width:500px;"">
                            <p style=""font-size:50px; font-weight:bold;""
                            >trustworthy</p>
                            <div style=""width:240px; margin: auto;"">
                                <img src=""images/Y_D_U_28.png"" style= ""width:200px""alt=""img"">
                            </div>
                        </div>","169","","0","images/Y_D_U_28.png","","","","trustworthy","2","28","Y","D","U","",""
"","","","","","html-slider-response","58","173128","0.0-52.0","13s4rsg2o5","11","NaN","<div style=""width:500px;"">
                            <p style=""font-size:50px; font-weight:bold;""
                            >trustworthy</p>
                            <div style=""width:240px; margin: auto;"">
                                <img src=""images/R_D_U_41.png"" style= ""width:200px""alt=""img"">
                            </div>
                        </div>","-138","","0","images/R_D_U_41.png","","","","trustworthy","2","41","R","D","U","",""
"","","","","","html-slider-response","59","174543","0.0-53.0","13s4rsg2o5","11","NaN","<div style=""width:500px;"">
                            <p style=""font-size:50px; font-weight:bold;""
                            >trustworthy</p>
                            <div style=""width:240px; margin: auto;"">
                                <img src=""images/G_L_S_44.png"" style= ""width:200px""alt=""img"">
                            </div>
                        </div>","156","","0","images/G_L_S_44.png","","","","trustworthy","2","44","G","L","S","",""
"","","","","","html-slider-response","60","175894","0.0-54.0","13s4rsg2o5","11","NaN","<div style=""width:500px;"">
                            <p style=""font-size:50px; font-weight:bold;""
                            >trustworthy</p>
                            <div style=""width:240px; margin: auto;"">
                                <img src=""images/R_L_S_30.png"" style= ""width:200px""alt=""img"">
                            </div>
                        </div>","90","","0","images/R_L_S_30.png","","","","trustworthy","2","30","R","L","S","",""
"","","","","","html-slider-response","61","176973","0.0-55.0","13s4rsg2o5","11","NaN","<div style=""width:500px;"">
                            <p style=""font-size:50px; font-weight:bold;""
                            >trustworthy</p>
                            <div style=""width:240px; margin: auto;"">
                                <img src=""images/G_D_S_05.png"" style= ""width:200px""alt=""img"">
                            </div>
                        </div>","-16","","0","images/G_D_S_05.png","","","","trustworthy","2","05","G","D","S","",""
"","","","","","html-slider-response","62","178181","0.0-56.0","13s4rsg2o5","11","NaN","<div style=""width:500px;"">
                            <p style=""font-size:50px; font-weight:bold;""
                            >trustworthy</p>
                            <div style=""width:240px; margin: auto;"">
                                <img src=""images/Y_D_S_27.png"" style= ""width:200px""alt=""img"">
                            </div>
                        </div>","40","","0","images/Y_D_S_27.png","","","","trustworthy","2","27","Y","D","S","",""
"","","","","","html-slider-response","63","179403","0.0-57.0","13s4rsg2o5","11","NaN","<div style=""width:500px;"">
                            <p style=""font-size:50px; font-weight:bold;""
                            >trustworthy</p>
                            <div style=""width:240px; margin: auto;"">
                                <img src=""images/B_D_U_15.png"" style= ""width:200px""alt=""img"">
                            </div>
                        </div>","70","","0","images/B_D_U_15.png","","","","trustworthy","1","15","B","D","U","",""
"","","","","","html-slider-response","64","180308","0.0-58.0","13s4rsg2o5","11","NaN","<div style=""width:500px;"">
                            <p style=""font-size:50px; font-weight:bold;""
                            >trustworthy</p>
                            <div style=""width:240px; margin: auto;"">
                                <img src=""images/R_L_U_33.png"" style= ""width:200px""alt=""img"">
                            </div>
                        </div>","-55","","0","images/R_L_U_33.png","","","","trustworthy","2","33","R","L","U","",""
"","","","","","html-slider-response","65","181203","0.0-59.0","13s4rsg2o5","11","NaN","<div style=""width:500px;"">
                            <p style=""font-size:50px; font-weight:bold;""
                            >trustworthy</p>
                            <div style=""width:240px; margin: auto;"">
                                <img src=""images/Y_L_U_26.png"" style= ""width:200px""alt=""img"">
                            </div>
                        </div>","39","","0","images/Y_L_U_26.png","","","","trustworthy","1","26","Y","L","U","",""
"","","","","","html-slider-response","66","182306","0.0-60.0","13s4rsg2o5","11","NaN","<div style=""width:500px;"">
                            <p style=""font-size:50px; font-weight:bold;""
                            >trustworthy</p>
                            <div style=""width:240px; margin: auto;"">
                                <img src=""images/B_L_S_10.png"" style= ""width:200px""alt=""img"">
                            </div>
                        </div>","110","","0","images/B_L_S_10.png","","","","trustworthy","2","10","B","L","S","",""
"","","","","","html-slider-response","67","183593","0.0-61.0","13s4rsg2o5","11","NaN","<div style=""width:500px;"">
                            <p style=""font-size:50px; font-weight:bold;""
                            >trustworthy</p>
                            <div style=""width:240px; margin: auto;"">
                                <img src=""images/Y_D_U_28.png"" style= ""width:200px""alt=""img"">
                            </div>
                        </div>","110","","0","images/Y_D_U_28.png","","","","trustworthy","1","28","Y","D","U","",""
"","","","","","html-slider-response","68","184760","0.0-62.0","13s4rsg2o5","11","NaN","<div style=""width:500px;"">
                            <p style=""font-size:50px; font-weight:bold;""
                            >trustworthy</p>
                            <div style=""width:240px; margin: auto;"">
                                <img src=""images/B_D_S_13.png"" style= ""width:200px""alt=""img"">
                            </div>
                        </div>","-44","","0","images/B_D_S_13.png","","","","trustworthy","1","13","B","D","S","",""
"","","","","","html-slider-response","69","185743","0.0-63.0","13s4rsg2o5","11","NaN","<div style=""width:500px;"">
                            <p style=""font-size:50px; font-weight:bold;""
                            >trustworthy</p>
                            <div style=""width:240px; margin: auto;"">
                                <img src=""images/R_D_S_37.png"" style= ""width:200px""alt=""img"">
                            </div>
                        </div>","134","","0","images/R_D_S_37.png","","","","trustworthy","1","37","R","D","S","",""
"","","","","","html-slider-response","70","187734","0.0-64.0","13s4rsg2o5","11","NaN","<div style=""width:500px;"">
                            <p style=""font-size:50px; font-weight:bold;""
                            >trustworthy</p>
                            <div style=""width:240px; margin: auto;"">
                                <img src=""images/R_L_S_30.png"" style= ""width:200px""alt=""img"">
                            </div>
                        </div>","-104","","0","images/R_L_S_30.png","","","","trustworthy","1","30","R","L","S","",""
"","","","","","html-slider-response","71","189069","0.0-65.0","13s4rsg2o5","11","NaN","<div style=""width:500px;"">
                            <p style=""font-size:50px; font-weight:bold;""
                            >trustworthy</p>
                            <div style=""width:240px; margin: auto;"">
                                <img src=""images/G_D_U_07.png"" style= ""width:200px""alt=""img"">
                            </div>
                        </div>","69","","0","images/G_D_U_07.png","","","","trustworthy","2","07","G","D","U","",""
"","","","","","html-slider-response","72","189860","0.0-66.0","13s4rsg2o5","11","NaN","<div style=""width:500px;"">
                            <p style=""font-size:50px; font-weight:bold;""
                            >trustworthy</p>
                            <div style=""width:240px; margin: auto;"">
                                <img src=""images/B_L_S_10.png"" style= ""width:200px""alt=""img"">
                            </div>
                        </div>","-62","","0","images/B_L_S_10.png","","","","trustworthy","1","10","B","L","S","",""
"","","","","","html-slider-response","73","192026","0.0-67.0","13s4rsg2o5","11","NaN","<div style=""width:500px;"">
                            <p style=""font-size:50px; font-weight:bold;""
                            >trustworthy</p>
                            <div style=""width:240px; margin: auto;"">
                                <img src=""images/Y_L_S_23.png"" style= ""width:200px""alt=""img"">
                            </div>
                        </div>","14","","0","images/Y_L_S_23.png","","","","trustworthy","2","23","Y","L","S","",""
"","","","","","html-slider-response","74","192922","0.0-68.0","13s4rsg2o5","11","NaN","<div style=""width:500px;"">
                            <p style=""font-size:50px; font-weight:bold;""
                            >trustworthy</p>
                            <div style=""width:240px; margin: auto;"">
                                <img src=""images/R_D_S_37.png"" style= ""width:200px""alt=""img"">
                            </div>
                        </div>","-69","","0","images/R_D_S_37.png","","","","trustworthy","2","37","R","D","S","",""
"","","","","","html-slider-response","75","193977","0.0-69.0","13s4rsg2o5","11","NaN","<div style=""width:500px;"">
                            <p style=""font-size:50px; font-weight:bold;""
                            >trustworthy</p>
                            <div style=""width:240px; margin: auto;"">
                                <img src=""images/G_L_S_44.png"" style= ""width:200px""alt=""img"">
                            </div>
                        </div>","72","","0","images/G_L_S_44.png","","","","trustworthy","1","44","G","L","S","",""
"","","","","","html-slider-response","76","194985","0.0-70.0","13s4rsg2o5","11","NaN","<div style=""width:500px;"">
                            <p style=""font-size:50px; font-weight:bold;""
                            >trustworthy</p>
                            <div style=""width:240px; margin: auto;"">
                                <img src=""images/G_D_S_05.png"" style= ""width:200px""alt=""img"">
                            </div>
                        </div>","72","","0","images/G_D_S_05.png","","","","trustworthy","1","05","G","D","S","",""
"","","","","","html-slider-response","77","195904","0.0-71.0","13s4rsg2o5","11","NaN","<div style=""width:500px;"">
                            <p style=""font-size:50px; font-weight:bold;""
                            >trustworthy</p>
                            <div style=""width:240px; margin: auto;"">
                                <img src=""images/B_D_S_13.png"" style= ""width:200px""alt=""img"">
                            </div>
                        </div>","72","","0","images/B_D_S_13.png","","","","trustworthy","2","13","B","D","S","",""
"","","","","","html-slider-response","78","196838","0.0-72.0","13s4rsg2o5","11","NaN","<div style=""width:500px;"">
                            <p style=""font-size:50px; font-weight:bold;""
                            >trustworthy</p>
                            <div style=""width:240px; margin: auto;"">
                                <img src=""images/B_L_U_12.png"" style= ""width:200px""alt=""img"">
                            </div>
                        </div>","-71","","0","images/B_L_U_12.png","","","","trustworthy","2","12","B","L","U","",""
"","","","","","html-slider-response","79","197837","0.0-73.0","13s4rsg2o5","11","NaN","<div style=""width:500px;"">
                            <p style=""font-size:50px; font-weight:bold;""
                            >trustworthy</p>
                            <div style=""width:240px; margin: auto;"">
                                <img src=""images/B_D_U_15.png"" style= ""width:200px""alt=""img"">
                            </div>
                        </div>","44","","0","images/B_D_U_15.png","","","","trustworthy","2","15","B","D","U","",""
"","","","","","html-slider-response","80","198821","0.0-74.0","13s4rsg2o5","11","NaN","<div style=""width:500px;"">
                            <p style=""font-size:50px; font-weight:bold;""
                            >trustworthy</p>
                            <div style=""width:240px; margin: auto;"">
                                <img src=""images/Y_L_U_26.png"" style= ""width:200px""alt=""img"">
                            </div>
                        </div>","44","","0","images/Y_L_U_26.png","","","","trustworthy","2","26","Y","L","U","",""
"","","","","","html-slider-response","81","200059","0.0-75.0","13s4rsg2o5","11","NaN","<div style=""width:500px;"">
                            <p style=""font-size:50px; font-weight:bold;""
                            >trustworthy</p>
                            <div style=""width:240px; margin: auto;"">
                                <img src=""images/Y_L_S_23.png"" style= ""width:200px""alt=""img"">
                            </div>
                        </div>","46","","0","images/Y_L_S_23.png","","","","trustworthy","1","23","Y","L","S","",""
"","","","","","html-slider-response","82","201363","0.0-76.0","13s4rsg2o5","11","NaN","<div style=""width:500px;"">
                            <p style=""font-size:50px; font-weight:bold;""
                            >trustworthy</p>
                            <div style=""width:240px; margin: auto;"">
                                <img src=""images/R_D_U_41.png"" style= ""width:200px""alt=""img"">
                            </div>
                        </div>","-120","","0","images/R_D_U_41.png","","","","trustworthy","1","41","R","D","U","",""
"","","","","","html-slider-response","83","202489","0.0-77.0","13s4rsg2o5","11","NaN","<div style=""width:500px;"">
                            <p style=""font-size:50px; font-weight:bold;""
                            >trustworthy</p>
                            <div style=""width:240px; margin: auto;"">
                                <img src=""images/G_D_U_07.png"" style= ""width:200px""alt=""img"">
                            </div>
                        </div>","122","","0","images/G_D_U_07.png","","","","trustworthy","1","07","G","D","U","",""
"","","","","","html-slider-response","84","203792","0.0-78.0","13s4rsg2o5","11","NaN","<div style=""width:500px;"">
                            <p style=""font-size:50px; font-weight:bold;""
                            >trustworthy</p>
                            <div style=""width:240px; margin: auto;"">
                                <img src=""images/G_L_U_02.png"" style= ""width:200px""alt=""img"">
                            </div>
                        </div>","148","","0","images/G_L_U_02.png","","","","trustworthy","1","02","G","L","U","",""
"","","","","","html-slider-response","85","204671","0.0-79.0","13s4rsg2o5","11","NaN","<div style=""width:500px;"">
                            <p style=""font-size:50px; font-weight:bold;""
                            >trustworthy</p>
                            <div style=""width:240px; margin: auto;"">
                                <img src=""images/G_L_U_02.png"" style= ""width:200px""alt=""img"">
                            </div>
                        </div>","-144","","0","images/G_L_U_02.png","","","","trustworthy","2","02","G","L","U","",""
"","","","","","html-button-response","86","207459","0.0-80.0","13s4rsg2o5","11","2285","<p>Great Job! You've finished block 2.<br></br> You have 6 block(s) left to go.<br></br></p>","0","","","","","","","","","","","","","",""
"","","","","","html-button-response","87","208346","0.0-81.0","13s4rsg2o5","11","885","<p>In this block of trials, you will be asked to rate how much you associate each map with:</p > <p style = 'font-size:150%; font-weight: bold'>serious</p><br></br>","0","","","","","","","","","","","","","",""
"","","","","","html-slider-response","88","208956","0.0-82.0","13s4rsg2o5","11","NaN","<div style=""width:500px;"">
                            <p style=""font-size:50px; font-weight:bold;""
                            >serious</p>
                            <div style=""width:240px; margin: auto;"">
                                <img src=""images/G_D_U_07.png"" style= ""width:200px""alt=""img"">
                            </div>
                        </div>","126","","0","images/G_D_U_07.png","","","","serious","1","07","G","D","U","",""
"","","","","","html-slider-response","89","209763","0.0-83.0","13s4rsg2o5","11","NaN","<div style=""width:500px;"">
                            <p style=""font-size:50px; font-weight:bold;""
                            >serious</p>
                            <div style=""width:240px; margin: auto;"">
                                <img src=""images/R_D_U_41.png"" style= ""width:200px""alt=""img"">
                            </div>
                        </div>","-10","","0","images/R_D_U_41.png","","","","serious","2","41","R","D","U","",""
"","","","","","html-slider-response","90","210754","0.0-84.0","13s4rsg2o5","11","NaN","<div style=""width:500px;"">
                            <p style=""font-size:50px; font-weight:bold;""
                            >serious</p>
                            <div style=""width:240px; margin: auto;"">
                                <img src=""images/B_D_S_13.png"" style= ""width:200px""alt=""img"">
                            </div>
                        </div>","107","","0","images/B_D_S_13.png","","","","serious","2","13","B","D","S","",""
"","","","","","html-slider-response","91","211667","0.0-85.0","13s4rsg2o5","11","NaN","<div style=""width:500px;"">
                            <p style=""font-size:50px; font-weight:bold;""
                            >serious</p>
                            <div style=""width:240px; margin: auto;"">
                                <img src=""images/R_L_S_30.png"" style= ""width:200px""alt=""img"">
                            </div>
                        </div>","171","","0","images/R_L_S_30.png","","","","serious","2","30","R","L","S","",""
"","","","","","html-slider-response","92","214440","0.0-86.0","13s4rsg2o5","11","NaN","<div style=""width:500px;"">
                            <p style=""font-size:50px; font-weight:bold;""
                            >serious</p>
                            <div style=""width:240px; margin: auto;"">
                                <img src=""images/G_D_U_07.png"" style= ""width:200px""alt=""img"">
                            </div>
                        </div>","143","","0","images/G_D_U_07.png","","","","serious","2","07","G","D","U","",""
"","","","","","html-slider-response","93","215166","0.0-87.0","13s4rsg2o5","11","NaN","<div style=""width:500px;"">
                            <p style=""font-size:50px; font-weight:bold;""
                            >serious</p>
                            <div style=""width:240px; margin: auto;"">
                                <img src=""images/B_L_U_12.png"" style= ""width:200px""alt=""img"">
                            </div>
                        </div>","118","","0","images/B_L_U_12.png","","","","serious","1","12","B","L","U","",""
"","","","","","html-slider-response","94","216094","0.0-88.0","13s4rsg2o5","11","NaN","<div style=""width:500px;"">
                            <p style=""font-size:50px; font-weight:bold;""
                            >serious</p>
                            <div style=""width:240px; margin: auto;"">
                                <img src=""images/B_D_U_15.png"" style= ""width:200px""alt=""img"">
                            </div>
                        </div>","-35","","0","images/B_D_U_15.png","","","","serious","2","15","B","D","U","",""
"","","","","","html-slider-response","95","217013","0.0-89.0","13s4rsg2o5","11","NaN","<div style=""width:500px;"">
                            <p style=""font-size:50px; font-weight:bold;""
                            >serious</p>
                            <div style=""width:240px; margin: auto;"">
                                <img src=""images/Y_D_U_28.png"" style= ""width:200px""alt=""img"">
                            </div>
                        </div>","-109","","0","images/Y_D_U_28.png","","","","serious","2","28","Y","D","U","",""
"","","","","","html-slider-response","96","218037","0.0-90.0","13s4rsg2o5","11","NaN","<div style=""width:500px;"">
                            <p style=""font-size:50px; font-weight:bold;""
                            >serious</p>
                            <div style=""width:240px; margin: auto;"">
                                <img src=""images/Y_L_U_26.png"" style= ""width:200px""alt=""img"">
                            </div>
                        </div>","20","","0","images/Y_L_U_26.png","","","","serious","2","26","Y","L","U","",""
"","","","","","html-slider-response","97","219580","0.0-91.0","13s4rsg2o5","11","NaN","<div style=""width:500px;"">
                            <p style=""font-size:50px; font-weight:bold;""
                            >serious</p>
                            <div style=""width:240px; margin: auto;"">
                                <img src=""images/R_L_U_33.png"" style= ""width:200px""alt=""img"">
                            </div>
                        </div>","82","","0","images/R_L_U_33.png","","","","serious","1","33","R","L","U","",""
"","","","","","html-slider-response","98","224187","0.0-92.0","13s4rsg2o5","11","NaN","<div style=""width:500px;"">
                            <p style=""font-size:50px; font-weight:bold;""
                            >serious</p>
                            <div style=""width:240px; margin: auto;"">
                                <img src=""images/B_D_U_15.png"" style= ""width:200px""alt=""img"">
                            </div>
                        </div>","86","","0","images/B_D_U_15.png","","","","serious","1","15","B","D","U","",""
"","","","","","html-slider-response","99","225747","0.0-93.0","13s4rsg2o5","11","NaN","<div style=""width:500px;"">
                            <p style=""font-size:50px; font-weight:bold;""
                            >serious</p>
                            <div style=""width:240px; margin: auto;"">
                                <img src=""images/G_L_S_44.png"" style= ""width:200px""alt=""img"">
                            </div>
                        </div>","-63","","0","images/G_L_S_44.png","","","","serious","2","44","G","L","S","",""
"","","","","","html-slider-response","100","227536","0.0-94.0","13s4rsg2o5","11","NaN","<div style=""width:500px;"">
                            <p style=""font-size:50px; font-weight:bold;""
                            >serious</p>
                            <div style=""width:240px; margin: auto;"">
                                <img src=""images/Y_D_U_28.png"" style= ""width:200px""alt=""img"">
                            </div>
                        </div>","103","","0","images/Y_D_U_28.png","","","","serious","1","28","Y","D","U","",""
"","","","","","html-slider-response","101","228375","0.0-95.0","13s4rsg2o5","11","NaN","<div style=""width:500px;"">
                            <p style=""font-size:50px; font-weight:bold;""
                            >serious</p>
                            <div style=""width:240px; margin: auto;"">
                                <img src=""images/G_L_S_44.png"" style= ""width:200px""alt=""img"">
                            </div>
                        </div>","-43","","0","images/G_L_S_44.png","","","","serious","1","44","G","L","S","",""
"","","","","","html-slider-response","102","229151","0.0-96.0","13s4rsg2o5","11","NaN","<div style=""width:500px;"">
                            <p style=""font-size:50px; font-weight:bold;""
                            >serious</p>
                            <div style=""width:240px; margin: auto;"">
                                <img src=""images/R_D_S_37.png"" style= ""width:200px""alt=""img"">
                            </div>
                        </div>","159","","0","images/R_D_S_37.png","","","","serious","2","37","R","D","S","",""
"","","","","","html-slider-response","103","235969","0.0-97.0","13s4rsg2o5","11","NaN","<div style=""width:500px;"">
                            <p style=""font-size:50px; font-weight:bold;""
                            >serious</p>
                            <div style=""width:240px; margin: auto;"">
                                <img src=""images/B_D_S_13.png"" style= ""width:200px""alt=""img"">
                            </div>
                        </div>","156","","0","images/B_D_S_13.png","","","","serious","1","13","B","D","S","",""
"","","","","","html-slider-response","104","236961","0.0-98.0","13s4rsg2o5","11","NaN","<div style=""width:500px;"">
                            <p style=""font-size:50px; font-weight:bold;""
                            >serious</p>
                            <div style=""width:240px; margin: auto;"">
                                <img src=""images/B_L_S_10.png"" style= ""width:200px""alt=""img"">
                            </div>
                        </div>","156","","0","images/B_L_S_10.png","","","","serious","1","10","B","L","S","",""
"","","","","","html-slider-response","105","237720","0.0-99.0","13s4rsg2o5","11","NaN","<div style=""width:500px;"">
                            <p style=""font-size:50px; font-weight:bold;""
                            >serious</p>
                            <div style=""width:240px; margin: auto;"">
                                <img src=""images/G_D_S_05.png"" style= ""width:200px""alt=""img"">
                            </div>
                        </div>","156","","0","images/G_D_S_05.png","","","","serious","1","05","G","D","S","",""
"","","","","","html-slider-response","106","238728","0.0-100.0","13s4rsg2o5","11","NaN","<div style=""width:500px;"">
                            <p style=""font-size:50px; font-weight:bold;""
                            >serious</p>
                            <div style=""width:240px; margin: auto;"">
                                <img src=""images/B_L_S_10.png"" style= ""width:200px""alt=""img"">
                            </div>
                        </div>","156","","0","images/B_L_S_10.png","","","","serious","2","10","B","L","S","",""
"","","","","","html-slider-response","107","240334","0.0-101.0","13s4rsg2o5","11","NaN","<div style=""width:500px;"">
                            <p style=""font-size:50px; font-weight:bold;""
                            >serious</p>
                            <div style=""width:240px; margin: auto;"">
                                <img src=""images/G_L_U_02.png"" style= ""width:200px""alt=""img"">
                            </div>
                        </div>","156","","0","images/G_L_U_02.png","","","","serious","2","02","G","L","U","",""
"","","","","","html-slider-response","108","241406","0.0-102.0","13s4rsg2o5","11","NaN","<div style=""width:500px;"">
                            <p style=""font-size:50px; font-weight:bold;""
                            >serious</p>
                            <div style=""width:240px; margin: auto;"">
                                <img src=""images/R_L_U_33.png"" style= ""width:200px""alt=""img"">
                            </div>
                        </div>","111","","0","images/R_L_U_33.png","","","","serious","2","33","R","L","U","",""
"","","","","","html-slider-response","109","242070","0.0-103.0","13s4rsg2o5","11","NaN","<div style=""width:500px;"">
                            <p style=""font-size:50px; font-weight:bold;""
                            >serious</p>
                            <div style=""width:240px; margin: auto;"">
                                <img src=""images/Y_L_S_23.png"" style= ""width:200px""alt=""img"">
                            </div>
                        </div>","-29","","0","images/Y_L_S_23.png","","","","serious","2","23","Y","L","S","",""
"","","","","","html-slider-response","110","243308","0.0-104.0","13s4rsg2o5","11","NaN","<div style=""width:500px;"">
                            <p style=""font-size:50px; font-weight:bold;""
                            >serious</p>
                            <div style=""width:240px; margin: auto;"">
                                <img src=""images/B_L_U_12.png"" style= ""width:200px""alt=""img"">
                            </div>
                        </div>","68","","0","images/B_L_U_12.png","","","","serious","2","12","B","L","U","",""
"","","","","","html-slider-response","111","244012","0.0-105.0","13s4rsg2o5","11","NaN","<div style=""width:500px;"">
                            <p style=""font-size:50px; font-weight:bold;""
                            >serious</p>
                            <div style=""width:240px; margin: auto;"">
                                <img src=""images/R_D_U_41.png"" style= ""width:200px""alt=""img"">
                            </div>
                        </div>","125","","0","images/R_D_U_41.png","","","","serious","1","41","R","D","U","",""
"","","","","","html-slider-response","112","244658","0.0-106.0","13s4rsg2o5","11","NaN","<div style=""width:500px;"">
                            <p style=""font-size:50px; font-weight:bold;""
                            >serious</p>
                            <div style=""width:240px; margin: auto;"">
                                <img src=""images/G_L_U_02.png"" style= ""width:200px""alt=""img"">
                            </div>
                        </div>","62","","0","images/G_L_U_02.png","","","","serious","1","02","G","L","U","",""
"","","","","","html-slider-response","113","245849","0.0-107.0","13s4rsg2o5","11","NaN","<div style=""width:500px;"">
                            <p style=""font-size:50px; font-weight:bold;""
                            >serious</p>
                            <div style=""width:240px; margin: auto;"">
                                <img src=""images/G_D_S_05.png"" style= ""width:200px""alt=""img"">
                            </div>
                        </div>","119","","0","images/G_D_S_05.png","","","","serious","2","05","G","D","S","",""
"","","","","","html-slider-response","114","252660","0.0-108.0","13s4rsg2o5","11","NaN","<div style=""width:500px;"">
                            <p style=""font-size:50px; font-weight:bold;""
                            >serious</p>
                            <div style=""width:240px; margin: auto;"">
                                <img src=""images/Y_D_S_27.png"" style= ""width:200px""alt=""img"">
                            </div>
                        </div>","100","","0","images/Y_D_S_27.png","","","","serious","1","27","Y","D","S","",""
"","","","","","html-slider-response","115","283615","0.0-109.0","13s4rsg2o5","11","NaN","<div style=""width:500px;"">
                            <p style=""font-size:50px; font-weight:bold;""
                            >serious</p>
                            <div style=""width:240px; margin: auto;"">
                                <img src=""images/R_D_S_37.png"" style= ""width:200px""alt=""img"">
                            </div>
                        </div>","100","","0","images/R_D_S_37.png","","","","serious","1","37","R","D","S","",""
"","","","","","html-slider-response","116","285030","0.0-110.0","13s4rsg2o5","11","NaN","<div style=""width:500px;"">
                            <p style=""font-size:50px; font-weight:bold;""
                            >serious</p>
                            <div style=""width:240px; margin: auto;"">
                                <img src=""images/R_L_S_30.png"" style= ""width:200px""alt=""img"">
                            </div>
                        </div>","91","","0","images/R_L_S_30.png","","","","serious","1","30","R","L","S","",""
"","","","","","html-slider-response","117","288604","0.0-111.0","13s4rsg2o5","11","NaN","<div style=""width:500px;"">
                            <p style=""font-size:50px; font-weight:bold;""
                            >serious</p>
                            <div style=""width:240px; margin: auto;"">
                                <img src=""images/Y_D_S_27.png"" style= ""width:200px""alt=""img"">
                            </div>
                        </div>","-129","","0","images/Y_D_S_27.png","","","","serious","2","27","Y","D","S","",""
"","","","","","html-slider-response","118","293438","0.0-112.0","13s4rsg2o5","11","NaN","<div style=""width:500px;"">
                            <p style=""font-size:50px; font-weight:bold;""
                            >serious</p>
                            <div style=""width:240px; margin: auto;"">
                                <img src=""images/Y_L_S_23.png"" style= ""width:200px""alt=""img"">
                            </div>
                        </div>","-99","","0","images/Y_L_S_23.png","","","","serious","1","23","Y","L","S","",""
"","","","","","html-slider-response","119","294268","0.0-113.0","13s4rsg2o5","11","NaN","<div style=""width:500px;"">
                            <p style=""font-size:50px; font-weight:bold;""
                            >serious</p>
                            <div style=""width:240px; margin: auto;"">
                                <img src=""images/Y_L_U_26.png"" style= ""width:200px""alt=""img"">
                            </div>
                        </div>","112","","0","images/Y_L_U_26.png","","","","serious","1","26","Y","L","U","",""
"","","","","","html-button-response","120","297264","0.0-114.0","13s4rsg2o5","11","2494","<p>Great Job! You've finished block 3.<br></br> You have 5 block(s) left to go.<br></br></p>","0","","","","","","","","","","","","","",""
"","","","","","html-button-response","121","297880","0.0-115.0","13s4rsg2o5","11","614","<p>In this block of trials, you will be asked to rate how much you associate each map with:</p > <p style = 'font-size:150%; font-weight: bold'>playful</p><br></br>","0","","","","","","","","","","","","","",""
"","","","","","html-slider-response","122","298594","0.0-116.0","13s4rsg2o5","11","NaN","<div style=""width:500px;"">
                            <p style=""font-size:50px; font-weight:bold;""
                            >playful</p>
                            <div style=""width:240px; margin: auto;"">
                                <img src=""images/G_L_U_02.png"" style= ""width:200px""alt=""img"">
                            </div>
                        </div>","155","","0","images/G_L_U_02.png","","","","playful","1","02","G","L","U","",""
"","","","","","html-slider-response","123","299506","0.0-117.0","13s4rsg2o5","11","NaN","<div style=""width:500px;"">
                            <p style=""font-size:50px; font-weight:bold;""
                            >playful</p>
                            <div style=""width:240px; margin: auto;"">
                                <img src=""images/B_D_S_13.png"" style= ""width:200px""alt=""img"">
                            </div>
                        </div>","152","","0","images/B_D_S_13.png","","","","playful","1","13","B","D","S","",""
"","","","","","html-slider-response","124","300728","0.0-118.0","13s4rsg2o5","11","NaN","<div style=""width:500px;"">
                            <p style=""font-size:50px; font-weight:bold;""
                            >playful</p>
                            <div style=""width:240px; margin: auto;"">
                                <img src=""images/G_L_U_02.png"" style= ""width:200px""alt=""img"">
                            </div>
                        </div>","146","","0","images/G_L_U_02.png","","","","playful","2","02","G","L","U","",""
"","","","","","html-slider-response","125","301815","0.0-119.0","13s4rsg2o5","11","NaN","<div style=""width:500px;"">
                            <p style=""font-size:50px; font-weight:bold;""
                            >playful</p>
                            <div style=""width:240px; margin: auto;"">
                                <img src=""images/Y_L_U_26.png"" style= ""width:200px""alt=""img"">
                            </div>
                        </div>","140","","0","images/Y_L_U_26.png","","","","playful","2","26","Y","L","U","",""
"","","","","","html-slider-response","126","302662","0.0-120.0","13s4rsg2o5","11","NaN","<div style=""width:500px;"">
                            <p style=""font-size:50px; font-weight:bold;""
                            >playful</p>
                            <div style=""width:240px; margin: auto;"">
                                <img src=""images/R_L_S_30.png"" style= ""width:200px""alt=""img"">
                            </div>
                        </div>","80","","0","images/R_L_S_30.png","","","","playful","2","30","R","L","S","",""
"","","","","","html-slider-response","127","303599","0.0-121.0","13s4rsg2o5","11","NaN","<div style=""width:500px;"">
                            <p style=""font-size:50px; font-weight:bold;""
                            >playful</p>
                            <div style=""width:240px; margin: auto;"">
                                <img src=""images/R_L_S_30.png"" style= ""width:200px""alt=""img"">
                            </div>
                        </div>","99","","0","images/R_L_S_30.png","","","","playful","1","30","R","L","S","",""
"","","","","","html-slider-response","128","304670","0.0-122.0","13s4rsg2o5","11","NaN","<div style=""width:500px;"">
                            <p style=""font-size:50px; font-weight:bold;""
                            >playful</p>
                            <div style=""width:240px; margin: auto;"">
                                <img src=""images/B_D_U_15.png"" style= ""width:200px""alt=""img"">
                            </div>
                        </div>","99","","0","images/B_D_U_15.png","","","","playful","1","15","B","D","U","",""
"","","","","","html-slider-response","129","305748","0.0-123.0","13s4rsg2o5","11","NaN","<div style=""width:500px;"">
                            <p style=""font-size:50px; font-weight:bold;""
                            >playful</p>
                            <div style=""width:240px; margin: auto;"">
                                <img src=""images/G_L_S_44.png"" style= ""width:200px""alt=""img"">
                            </div>
                        </div>","86","","0","images/G_L_S_44.png","","","","playful","1","44","G","L","S","",""
"","","","","","html-slider-response","130","306739","0.0-124.0","13s4rsg2o5","11","NaN","<div style=""width:500px;"">
                            <p style=""font-size:50px; font-weight:bold;""
                            >playful</p>
                            <div style=""width:240px; margin: auto;"">
                                <img src=""images/R_D_U_41.png"" style= ""width:200px""alt=""img"">
                            </div>
                        </div>","-65","","0","images/R_D_U_41.png","","","","playful","2","41","R","D","U","",""
"","","","","","html-slider-response","131","307842","0.0-125.0","13s4rsg2o5","11","NaN","<div style=""width:500px;"">
                            <p style=""font-size:50px; font-weight:bold;""
                            >playful</p>
                            <div style=""width:240px; margin: auto;"">
                                <img src=""images/G_D_U_07.png"" style= ""width:200px""alt=""img"">
                            </div>
                        </div>","109","","0","images/G_D_U_07.png","","","","playful","2","07","G","D","U","",""
"","","","","","html-slider-response","132","309906","0.0-126.0","13s4rsg2o5","11","NaN","<div style=""width:500px;"">
                            <p style=""font-size:50px; font-weight:bold;""
                            >playful</p>
                            <div style=""width:240px; margin: auto;"">
                                <img src=""images/G_D_S_05.png"" style= ""width:200px""alt=""img"">
                            </div>
                        </div>","126","","0","images/G_D_S_05.png","","","","playful","2","05","G","D","S","",""
"","","","","","html-slider-response","133","310849","0.0-127.0","13s4rsg2o5","11","NaN","<div style=""width:500px;"">
                            <p style=""font-size:50px; font-weight:bold;""
                            >playful</p>
                            <div style=""width:240px; margin: auto;"">
                                <img src=""images/B_L_U_12.png"" style= ""width:200px""alt=""img"">
                            </div>
                        </div>","110","","0","images/B_L_U_12.png","","","","playful","1","12","B","L","U","",""
"","","","","","html-slider-response","134","311704","0.0-128.0","13s4rsg2o5","11","NaN","<div style=""width:500px;"">
                            <p style=""font-size:50px; font-weight:bold;""
                            >playful</p>
                            <div style=""width:240px; margin: auto;"">
                                <img src=""images/G_L_S_44.png"" style= ""width:200px""alt=""img"">
                            </div>
                        </div>","-33","","0","images/G_L_S_44.png","","","","playful","2","44","G","L","S","",""
"","","","","","html-slider-response","135","312719","0.0-129.0","13s4rsg2o5","11","NaN","<div style=""width:500px;"">
                            <p style=""font-size:50px; font-weight:bold;""
                            >playful</p>
                            <div style=""width:240px; margin: auto;"">
                                <img src=""images/G_D_U_07.png"" style= ""width:200px""alt=""img"">
                            </div>
                        </div>","102","","0","images/G_D_U_07.png","","","","playful","1","07","G","D","U","",""
"","","","","","html-slider-response","136","313758","0.0-130.0","13s4rsg2o5","11","NaN","<div style=""width:500px;"">
                            <p style=""font-size:50px; font-weight:bold;""
                            >playful</p>
                            <div style=""width:240px; margin: auto;"">
                                <img src=""images/B_L_S_10.png"" style= ""width:200px""alt=""img"">
                            </div>
                        </div>","105","","0","images/B_L_S_10.png","","","","playful","2","10","B","L","S","",""
"","","","","","html-slider-response","137","314790","0.0-131.0","13s4rsg2o5","11","NaN","<div style=""width:500px;"">
                            <p style=""font-size:50px; font-weight:bold;""
                            >playful</p>
                            <div style=""width:240px; margin: auto;"">
                                <img src=""images/B_L_S_10.png"" style= ""width:200px""alt=""img"">
                            </div>
                        </div>","-19","","0","images/B_L_S_10.png","","","","playful","1","10","B","L","S","",""
"","","","","","html-slider-response","138","315725","0.0-132.0","13s4rsg2o5","11","NaN","<div style=""width:500px;"">
                            <p style=""font-size:50px; font-weight:bold;""
                            >playful</p>
                            <div style=""width:240px; margin: auto;"">
                                <img src=""images/R_L_U_33.png"" style= ""width:200px""alt=""img"">
                            </div>
                        </div>","126","","0","images/R_L_U_33.png","","","","playful","2","33","R","L","U","",""
"","","","","","html-slider-response","139","316756","0.0-133.0","13s4rsg2o5","11","NaN","<div style=""width:500px;"">
                            <p style=""font-size:50px; font-weight:bold;""
                            >playful</p>
                            <div style=""width:240px; margin: auto;"">
                                <img src=""images/Y_D_U_28.png"" style= ""width:200px""alt=""img"">
                            </div>
                        </div>","4","","0","images/Y_D_U_28.png","","","","playful","1","28","Y","D","U","",""
"","","","","","html-slider-response","140","317715","0.0-134.0","13s4rsg2o5","11","NaN","<div style=""width:500px;"">
                            <p style=""font-size:50px; font-weight:bold;""
                            >playful</p>
                            <div style=""width:240px; margin: auto;"">
                                <img src=""images/Y_L_S_23.png"" style= ""width:200px""alt=""img"">
                            </div>
                        </div>","141","","0","images/Y_L_S_23.png","","","","playful","1","23","Y","L","S","",""
"","","","","","html-slider-response","141","324574","0.0-135.0","13s4rsg2o5","11","NaN","<div style=""width:500px;"">
                            <p style=""font-size:50px; font-weight:bold;""
                            >playful</p>
                            <div style=""width:240px; margin: auto;"">
                                <img src=""images/Y_D_U_28.png"" style= ""width:200px""alt=""img"">
                            </div>
                        </div>","69","","0","images/Y_D_U_28.png","","","","playful","2","28","Y","D","U","",""
"","","","","","html-slider-response","142","327994","0.0-136.0","13s4rsg2o5","11","NaN","<div style=""width:500px;"">
                            <p style=""font-size:50px; font-weight:bold;""
                            >playful</p>
                            <div style=""width:240px; margin: auto;"">
                                <img src=""images/Y_L_S_23.png"" style= ""width:200px""alt=""img"">
                            </div>
                        </div>","71","","0","images/Y_L_S_23.png","","","","playful","2","23","Y","L","S","",""
"","","","","","html-slider-response","143","328850","0.0-137.0","13s4rsg2o5","11","NaN","<div style=""width:500px;"">
                            <p style=""font-size:50px; font-weight:bold;""
                            >playful</p>
                            <div style=""width:240px; margin: auto;"">
                                <img src=""images/Y_D_S_27.png"" style= ""width:200px""alt=""img"">
                            </div>
                        </div>","-15","","0","images/Y_D_S_27.png","","","","playful","1","27","Y","D","S","",""
"","","","","","html-slider-response","144","329882","0.0-138.0","13s4rsg2o5","11","NaN","<div style=""width:500px;"">
                            <p style=""font-size:50px; font-weight:bold;""
                            >playful</p>
                            <div style=""width:240px; margin: auto;"">
                                <img src=""images/B_L_U_12.png"" style= ""width:200px""alt=""img"">
                            </div>
                        </div>","-50","","0","images/B_L_U_12.png","","","","playful","2","12","B","L","U","",""
"","","","","","html-slider-response","145","330809","0.0-139.0","13s4rsg2o5","11","NaN","<div style=""width:500px;"">
                            <p style=""font-size:50px; font-weight:bold;""
                            >playful</p>
                            <div style=""width:240px; margin: auto;"">
                                <img src=""images/R_L_U_33.png"" style= ""width:200px""alt=""img"">
                            </div>
                        </div>","85","","0","images/R_L_U_33.png","","","","playful","1","33","R","L","U","",""
"","","","","","html-slider-response","146","331560","0.0-140.0","13s4rsg2o5","11","NaN","<div style=""width:500px;"">
                            <p style=""font-size:50px; font-weight:bold;""
                            >playful</p>
                            <div style=""width:240px; margin: auto;"">
                                <img src=""images/R_D_S_37.png"" style= ""width:200px""alt=""img"">
                            </div>
                        </div>","85","","0","images/R_D_S_37.png","","","","playful","1","37","R","D","S","",""
"","","","","","html-slider-response","147","332232","0.0-141.0","13s4rsg2o5","11","NaN","<div style=""width:500px;"">
                            <p style=""font-size:50px; font-weight:bold;""
                            >playful</p>
                            <div style=""width:240px; margin: auto;"">
                                <img src=""images/R_D_U_41.png"" style= ""width:200px""alt=""img"">
                            </div>
                        </div>","85","","0","images/R_D_U_41.png","","","","playful","1","41","R","D","U","",""
"","","","","","html-slider-response","148","333055","0.0-142.0","13s4rsg2o5","11","NaN","<div style=""width:500px;"">
                            <p style=""font-size:50px; font-weight:bold;""
                            >playful</p>
                            <div style=""width:240px; margin: auto;"">
                                <img src=""images/Y_L_U_26.png"" style= ""width:200px""alt=""img"">
                            </div>
                        </div>","85","","0","images/Y_L_U_26.png","","","","playful","1","26","Y","L","U","",""
"","","","","","html-slider-response","149","333766","0.0-143.0","13s4rsg2o5","11","NaN","<div style=""width:500px;"">
                            <p style=""font-size:50px; font-weight:bold;""
                            >playful</p>
                            <div style=""width:240px; margin: auto;"">
                                <img src=""images/R_D_S_37.png"" style= ""width:200px""alt=""img"">
                            </div>
                        </div>","-76","","0","images/R_D_S_37.png","","","","playful","2","37","R","D","S","",""
"","","","","","html-slider-response","150","334598","0.0-144.0","13s4rsg2o5","11","NaN","<div style=""width:500px;"">
                            <p style=""font-size:50px; font-weight:bold;""
                            >playful</p>
                            <div style=""width:240px; margin: auto;"">
                                <img src=""images/G_D_S_05.png"" style= ""width:200px""alt=""img"">
                            </div>
                        </div>","90","","0","images/G_D_S_05.png","","","","playful","1","05","G","D","S","",""
"","","","","","html-slider-response","151","335532","0.0-145.0","13s4rsg2o5","11","NaN","<div style=""width:500px;"">
                            <p style=""font-size:50px; font-weight:bold;""
                            >playful</p>
                            <div style=""width:240px; margin: auto;"">
                                <img src=""images/B_D_S_13.png"" style= ""width:200px""alt=""img"">
                            </div>
                        </div>","-28","","0","images/B_D_S_13.png","","","","playful","2","13","B","D","S","",""
"","","","","","html-slider-response","152","336572","0.0-146.0","13s4rsg2o5","11","NaN","<div style=""width:500px;"">
                            <p style=""font-size:50px; font-weight:bold;""
                            >playful</p>
                            <div style=""width:240px; margin: auto;"">
                                <img src=""images/Y_D_S_27.png"" style= ""width:200px""alt=""img"">
                            </div>
                        </div>","94","","0","images/Y_D_S_27.png","","","","playful","2","27","Y","D","S","",""
"","","","","","html-slider-response","153","347323","0.0-147.0","13s4rsg2o5","11","NaN","<div style=""width:500px;"">
                            <p style=""font-size:50px; font-weight:bold;""
                            >playful</p>
                            <div style=""width:240px; margin: auto;"">
                                <img src=""images/B_D_U_15.png"" style= ""width:200px""alt=""img"">
                            </div>
                        </div>","83","","0","images/B_D_U_15.png","","","","playful","2","15","B","D","U","",""
"","","","","","html-button-response","154","348966","0.0-148.0","13s4rsg2o5","11","1141","<p>Great Job! You've finished block 4.<br></br> You have 4 block(s) left to go.<br></br></p>","0","","","","","","","","","","","","","",""
"","","","","","html-button-response","155","349734","0.0-149.0","13s4rsg2o5","11","766","<p>In this block of trials, you will be asked to rate how much you associate each map with:</p > <p style = 'font-size:150%; font-weight: bold'>negative</p><br></br>","0","","","","","","","","","","","","","",""
"","","","","","html-slider-response","156","350465","0.0-150.0","13s4rsg2o5","11","NaN","<div style=""width:500px;"">
                            <p style=""font-size:50px; font-weight:bold;""
                            >negative</p>
                            <div style=""width:240px; margin: auto;"">
                                <img src=""images/R_D_U_41.png"" style= ""width:200px""alt=""img"">
                            </div>
                        </div>","84","","0","images/R_D_U_41.png","","","","negative","1","41","R","D","U","",""
"","","","","","html-slider-response","157","351367","0.0-151.0","13s4rsg2o5","11","NaN","<div style=""width:500px;"">
                            <p style=""font-size:50px; font-weight:bold;""
                            >negative</p>
                            <div style=""width:240px; margin: auto;"">
                                <img src=""images/Y_D_S_27.png"" style= ""width:200px""alt=""img"">
                            </div>
                        </div>","-104","","0","images/Y_D_S_27.png","","","","negative","2","27","Y","D","S","",""
"","","","","","html-slider-response","158","353774","0.0-152.0","13s4rsg2o5","11","NaN","<div style=""width:500px;"">
                            <p style=""font-size:50px; font-weight:bold;""
                            >negative</p>
                            <div style=""width:240px; margin: auto;"">
                                <img src=""images/B_D_S_13.png"" style= ""width:200px""alt=""img"">
                            </div>
                        </div>","71","","0","images/B_D_S_13.png","","","","negative","2","13","B","D","S","",""
"","","","","","html-slider-response","159","354836","0.0-153.0","13s4rsg2o5","11","NaN","<div style=""width:500px;"">
                            <p style=""font-size:50px; font-weight:bold;""
                            >negative</p>
                            <div style=""width:240px; margin: auto;"">
                                <img src=""images/B_L_U_12.png"" style= ""width:200px""alt=""img"">
                            </div>
                        </div>","66","","0","images/B_L_U_12.png","","","","negative","1","12","B","L","U","",""
"","","","","","html-slider-response","160","356252","0.0-154.0","13s4rsg2o5","11","NaN","<div style=""width:500px;"">
                            <p style=""font-size:50px; font-weight:bold;""
                            >negative</p>
                            <div style=""width:240px; margin: auto;"">
                                <img src=""images/R_L_S_30.png"" style= ""width:200px""alt=""img"">
                            </div>
                        </div>","-77","","0","images/R_L_S_30.png","","","","negative","1","30","R","L","S","",""
"","","","","","html-slider-response","161","357155","0.0-155.0","13s4rsg2o5","11","NaN","<div style=""width:500px;"">
                            <p style=""font-size:50px; font-weight:bold;""
                            >negative</p>
                            <div style=""width:240px; margin: auto;"">
                                <img src=""images/G_D_U_07.png"" style= ""width:200px""alt=""img"">
                            </div>
                        </div>","84","","0","images/G_D_U_07.png","","","","negative","2","07","G","D","U","",""
"","","","","","html-slider-response","162","358275","0.0-156.0","13s4rsg2o5","11","NaN","<div style=""width:500px;"">
                            <p style=""font-size:50px; font-weight:bold;""
                            >negative</p>
                            <div style=""width:240px; margin: auto;"">
                                <img src=""images/G_D_S_05.png"" style= ""width:200px""alt=""img"">
                            </div>
                        </div>","-26","","0","images/G_D_S_05.png","","","","negative","2","05","G","D","S","",""
"","","","","","html-slider-response","163","359313","0.0-157.0","13s4rsg2o5","11","NaN","<div style=""width:500px;"">
                            <p style=""font-size:50px; font-weight:bold;""
                            >negative</p>
                            <div style=""width:240px; margin: auto;"">
                                <img src=""images/G_L_U_02.png"" style= ""width:200px""alt=""img"">
                            </div>
                        </div>","65","","0","images/G_L_U_02.png","","","","negative","1","02","G","L","U","",""
"","","","","","html-slider-response","164","360337","0.0-158.0","13s4rsg2o5","11","NaN","<div style=""width:500px;"">
                            <p style=""font-size:50px; font-weight:bold;""
                            >negative</p>
                            <div style=""width:240px; margin: auto;"">
                                <img src=""images/Y_D_U_28.png"" style= ""width:200px""alt=""img"">
                            </div>
                        </div>","-42","","0","images/Y_D_U_28.png","","","","negative","2","28","Y","D","U","",""
"","","","","","html-slider-response","165","361424","0.0-159.0","13s4rsg2o5","11","NaN","<div style=""width:500px;"">
                            <p style=""font-size:50px; font-weight:bold;""
                            >negative</p>
                            <div style=""width:240px; margin: auto;"">
                                <img src=""images/Y_D_U_28.png"" style= ""width:200px""alt=""img"">
                            </div>
                        </div>","90","","0","images/Y_D_U_28.png","","","","negative","1","28","Y","D","U","",""
"","","","","","html-slider-response","166","362526","0.0-160.0","13s4rsg2o5","11","NaN","<div style=""width:500px;"">
                            <p style=""font-size:50px; font-weight:bold;""
                            >negative</p>
                            <div style=""width:240px; margin: auto;"">
                                <img src=""images/B_D_S_13.png"" style= ""width:200px""alt=""img"">
                            </div>
                        </div>","-65","","0","images/B_D_S_13.png","","","","negative","1","13","B","D","S","",""
"","","","","","html-slider-response","167","363838","0.0-161.0","13s4rsg2o5","11","NaN","<div style=""width:500px;"">
                            <p style=""font-size:50px; font-weight:bold;""
                            >negative</p>
                            <div style=""width:240px; margin: auto;"">
                                <img src=""images/Y_L_S_23.png"" style= ""width:200px""alt=""img"">
                            </div>
                        </div>","110","","0","images/Y_L_S_23.png","","","","negative","2","23","Y","L","S","",""
"","","","","","html-slider-response","168","365037","0.0-162.0","13s4rsg2o5","11","NaN","<div style=""width:500px;"">
                            <p style=""font-size:50px; font-weight:bold;""
                            >negative</p>
                            <div style=""width:240px; margin: auto;"">
                                <img src=""images/G_L_S_44.png"" style= ""width:200px""alt=""img"">
                            </div>
                        </div>","-50","","0","images/G_L_S_44.png","","","","negative","2","44","G","L","S","",""
"","","","","","html-slider-response","169","365860","0.0-163.0","13s4rsg2o5","11","NaN","<div style=""width:500px;"">
                            <p style=""font-size:50px; font-weight:bold;""
                            >negative</p>
                            <div style=""width:240px; margin: auto;"">
                                <img src=""images/G_D_U_07.png"" style= ""width:200px""alt=""img"">
                            </div>
                        </div>","-49","","0","images/G_D_U_07.png","","","","negative","1","07","G","D","U","",""
"","","","","","html-slider-response","170","366707","0.0-164.0","13s4rsg2o5","11","NaN","<div style=""width:500px;"">
                            <p style=""font-size:50px; font-weight:bold;""
                            >negative</p>
                            <div style=""width:240px; margin: auto;"">
                                <img src=""images/B_D_U_15.png"" style= ""width:200px""alt=""img"">
                            </div>
                        </div>","-43","","0","images/B_D_U_15.png","","","","negative","1","15","B","D","U","",""
"","","","","","html-slider-response","171","368010","0.0-165.0","13s4rsg2o5","11","NaN","<div style=""width:500px;"">
                            <p style=""font-size:50px; font-weight:bold;""
                            >negative</p>
                            <div style=""width:240px; margin: auto;"">
                                <img src=""images/R_D_S_37.png"" style= ""width:200px""alt=""img"">
                            </div>
                        </div>","-44","","0","images/R_D_S_37.png","","","","negative","2","37","R","D","S","",""
"","","","","","html-slider-response","172","368857","0.0-166.0","13s4rsg2o5","11","NaN","<div style=""width:500px;"">
                            <p style=""font-size:50px; font-weight:bold;""
                            >negative</p>
                            <div style=""width:240px; margin: auto;"">
                                <img src=""images/Y_L_U_26.png"" style= ""width:200px""alt=""img"">
                            </div>
                        </div>","-44","","0","images/Y_L_U_26.png","","","","negative","2","26","Y","L","U","",""
"","","","","","html-slider-response","173","369945","0.0-167.0","13s4rsg2o5","11","NaN","<div style=""width:500px;"">
                            <p style=""font-size:50px; font-weight:bold;""
                            >negative</p>
                            <div style=""width:240px; margin: auto;"">
                                <img src=""images/R_L_U_33.png"" style= ""width:200px""alt=""img"">
                            </div>
                        </div>","-43","","0","images/R_L_U_33.png","","","","negative","2","33","R","L","U","",""
"","","","","","html-slider-response","174","370871","0.0-168.0","13s4rsg2o5","11","NaN","<div style=""width:500px;"">
                            <p style=""font-size:50px; font-weight:bold;""
                            >negative</p>
                            <div style=""width:240px; margin: auto;"">
                                <img src=""images/G_L_S_44.png"" style= ""width:200px""alt=""img"">
                            </div>
                        </div>","-42","","0","images/G_L_S_44.png","","","","negative","1","44","G","L","S","",""
"","","","","","html-slider-response","175","372174","0.0-169.0","13s4rsg2o5","11","NaN","<div style=""width:500px;"">
                            <p style=""font-size:50px; font-weight:bold;""
                            >negative</p>
                            <div style=""width:240px; margin: auto;"">
                                <img src=""images/G_D_S_05.png"" style= ""width:200px""alt=""img"">
                            </div>
                        </div>","109","","0","images/G_D_S_05.png","","","","negative","1","05","G","D","S","",""
"","","","","","html-slider-response","176","373246","0.0-170.0","13s4rsg2o5","11","NaN","<div style=""width:500px;"">
                            <p style=""font-size:50px; font-weight:bold;""
                            >negative</p>
                            <div style=""width:240px; margin: auto;"">
                                <img src=""images/G_L_U_02.png"" style= ""width:200px""alt=""img"">
                            </div>
                        </div>","99","","0","images/G_L_U_02.png","","","","negative","2","02","G","L","U","",""
"","","","","","html-slider-response","177","374197","0.0-171.0","13s4rsg2o5","11","NaN","<div style=""width:500px;"">
                            <p style=""font-size:50px; font-weight:bold;""
                            >negative</p>
                            <div style=""width:240px; margin: auto;"">
                                <img src=""images/Y_L_U_26.png"" style= ""width:200px""alt=""img"">
                            </div>
                        </div>","-84","","0","images/Y_L_U_26.png","","","","negative","1","26","Y","L","U","",""
"","","","","","html-slider-response","178","375133","0.0-172.0","13s4rsg2o5","11","NaN","<div style=""width:500px;"">
                            <p style=""font-size:50px; font-weight:bold;""
                            >negative</p>
                            <div style=""width:240px; margin: auto;"">
                                <img src=""images/R_D_S_37.png"" style= ""width:200px""alt=""img"">
                            </div>
                        </div>","65","","0","images/R_D_S_37.png","","","","negative","1","37","R","D","S","",""
"","","","","","html-slider-response","179","376220","0.0-173.0","13s4rsg2o5","11","NaN","<div style=""width:500px;"">
                            <p style=""font-size:50px; font-weight:bold;""
                            >negative</p>
                            <div style=""width:240px; margin: auto;"">
                                <img src=""images/R_L_S_30.png"" style= ""width:200px""alt=""img"">
                            </div>
                        </div>","65","","0","images/R_L_S_30.png","","","","negative","2","30","R","L","S","",""
"","","","","","html-slider-response","180","377211","0.0-174.0","13s4rsg2o5","11","NaN","<div style=""width:500px;"">
                            <p style=""font-size:50px; font-weight:bold;""
                            >negative</p>
                            <div style=""width:240px; margin: auto;"">
                                <img src=""images/B_L_S_10.png"" style= ""width:200px""alt=""img"">
                            </div>
                        </div>","65","","0","images/B_L_S_10.png","","","","negative","2","10","B","L","S","",""
"","","","","","html-slider-response","181","378233","0.0-175.0","13s4rsg2o5","11","NaN","<div style=""width:500px;"">
                            <p style=""font-size:50px; font-weight:bold;""
                            >negative</p>
                            <div style=""width:240px; margin: auto;"">
                                <img src=""images/B_L_S_10.png"" style= ""width:200px""alt=""img"">
                            </div>
                        </div>","65","","0","images/B_L_S_10.png","","","","negative","1","10","B","L","S","",""
"","","","","","html-slider-response","182","379265","0.0-176.0","13s4rsg2o5","11","NaN","<div style=""width:500px;"">
                            <p style=""font-size:50px; font-weight:bold;""
                            >negative</p>
                            <div style=""width:240px; margin: auto;"">
                                <img src=""images/B_L_U_12.png"" style= ""width:200px""alt=""img"">
                            </div>
                        </div>","65","","0","images/B_L_U_12.png","","","","negative","2","12","B","L","U","",""
"","","","","","html-slider-response","183","380352","0.0-177.0","13s4rsg2o5","11","NaN","<div style=""width:500px;"">
                            <p style=""font-size:50px; font-weight:bold;""
                            >negative</p>
                            <div style=""width:240px; margin: auto;"">
                                <img src=""images/B_D_U_15.png"" style= ""width:200px""alt=""img"">
                            </div>
                        </div>","65","","0","images/B_D_U_15.png","","","","negative","2","15","B","D","U","",""
"","","","","","html-slider-response","184","381294","0.0-178.0","13s4rsg2o5","11","NaN","<div style=""width:500px;"">
                            <p style=""font-size:50px; font-weight:bold;""
                            >negative</p>
                            <div style=""width:240px; margin: auto;"">
                                <img src=""images/R_L_U_33.png"" style= ""width:200px""alt=""img"">
                            </div>
                        </div>","106","","0","images/R_L_U_33.png","","","","negative","1","33","R","L","U","",""
"","","","","","html-slider-response","185","382325","0.0-179.0","13s4rsg2o5","11","NaN","<div style=""width:500px;"">
                            <p style=""font-size:50px; font-weight:bold;""
                            >negative</p>
                            <div style=""width:240px; margin: auto;"">
