"success","timeout","failed_images","failed_audio","failed_video","trial_type","trial_index","time_elapsed","internal_node_id","subject_id","condition_num","rt","stimulus","response","question_order","slider_start","image_path","practiceTrial","practiceTrialNum","correct","concept","repetition","map_id","hue","lightness","saturation","ishihara_plate","correct_response"
"true","false","[]","[]","[]","preload","0","1744","0.0-0.0","22zmozl08w","8","","","","","","","","","","","","","","","","",""
"","","","","","html-button-response","1","26688","0.0-1.0","22zmozl08w","8","24941","Welcome to our experiment!<p>At the bottom of this screen, you will see a button that says ""Begin Experiment"".<br>Please only click that button when you are ready to complete the 25 minute experiment in one sitting.</p><p> Once you click that button, it will not be possible to restart the experiment.","0","","","","","","","","","","","","","",""
"true","","","","","fullscreen","2","32126","0.0-2.0","22zmozl08w","8","4426","","","","","","","","","","","","","","","",""
"","","","","","survey-multi-select","3","41958","0.0-3.0","22zmozl08w","8","9825","","{""Consent"":[""<strong>I consent</strong>""]}","[0]","","","","","","","","","","","","",""
"","","","","","html-button-response","4","44324","0.0-4.0","22zmozl08w","8","2357","Welcome! <p> This experiment involves two parts: demographic information, followed by the experimental task.<p> It will take about 25 minutes to complete both parts.","0","","","","","","","","","","","","","",""
"","","","","","survey-text","5","65590","0.0-5.0","22zmozl08w","8","21251","","{""Age"":""18"",""Gender"":""female"",""Race/ethnicity"":""white"",""Languages"":""english. little bit of spanish and italian ""}","","","","","","","","","","","","","",""
"","","","","","html-slider-response","6","123459","0.0-6.0","22zmozl08w","8","57862","
                            <div style='text-align:left; font-size:20px; line-height:25px; width: 1400px;'>
                                During this experiment you will be asked to rate how much you associate maps with                    different concepts.<br> Below, you can see some examples of the maps you will be asked to rate. Next to the maps
                    is the list of concepts.<br>You will be asked                    to rate how much you associate each map with each concept on a scale from 'not at all' to 'very much' like the
                    one below. <br><br>
                    Now, please look at the list of concepts and maps. For each concept, think about the map you associate 'very
                    much' with the concept.<br>                     When you see that map during the experiment, please rate it near the 'very much' endpoint of the
                    scale.<br>Now, please think about which map you associate 'not at all'                     with each concept. When you see that map during the experiment, please rate it near the 'not at all' endpoint
                    of the scale.<br>
                    Please use the full range of the scale. That is, if a map is somewhat associated with the concept, you would
                    click partway between the middle point and right side of the scale.                    You will be asked to rate each map for a given concept before moving on to the next concept.<br><br>Press the
                    'Continue' button for instructions on how to use the slider.                    <br><br>
                </div>

                <div style=""width: 500px; margin: 0 auto;"">
                    <!-- Centered text paragraphs -->
                    <div style=""text-align: center; width: 500px;"">
                        <p style=""font-size:25px; line-height:18px;"">calm</p>
                        <p style=""font-size:25px; line-height:18px;"">exciting</p>
                        <p style=""font-size:25px;line-height:18px;"">positive</p>
                        <p style=""font-size:25px;line-height:18px;"">negative</p>
                        <p style=""font-size:25px;line-height:18px;"">serious</p>
                        <p style=""font-size:25px;line-height:18px;"">playful</p>
                        <p style=""font-size:25px;line-height:18px;"">trustworthy</p>
                        <p style=""font-size:25px;line-height:18px;"">disturbing</p>
                    </div>

                    <!-- Grid section -->
                   <div style=""display: flex; justify-content: center; padding-top: 15px;"">
                    <div style=""display: grid; grid-template-columns: repeat(8, 80px); grid-gap: 5px; width: auto;"">
                        <img src=""images/R_L_S_26.png"" alt=""map"" style=""width: 100%;""><img src=""images/G_L_S_33.png"" alt=""map"" style=""width: 100%;""><img src=""images/B_D_U_10.png"" alt=""map"" style=""width: 100%;""><img src=""images/Y_D_S_15.png"" alt=""map"" style=""width: 100%;""><img src=""images/Y_L_S_12.png"" alt=""map"" style=""width: 100%;""><img src=""images/G_L_U_37.png"" alt=""map"" style=""width: 100%;""><img src=""images/B_D_S_07.png"" alt=""map"" style=""width: 100%;""><img src=""images/G_D_U_44.png"" alt=""map"" style=""width: 100%;""><img src=""images/G_D_S_41.png"" alt=""map"" style=""width: 100%;""><img src=""images/R_D_S_28.png"" alt=""map"" style=""width: 100%;""><img src=""images/R_L_U_27.png"" alt=""map"" style=""width: 100%;""><img src=""images/B_L_S_02.png"" alt=""map"" style=""width: 100%;""><img src=""images/R_D_U_30.png"" alt=""map"" style=""width: 100%;""><img src=""images/Y_L_U_13.png"" alt=""map"" style=""width: 100%;""><img src=""images/Y_D_U_23.png"" alt=""map"" style=""width: 100%;""><img src=""images/B_L_U_05.png"" alt=""map"" style=""width: 100%;"">
                    </div>
                </div>

                    <!-- Clear floats -->
                    <div style=""clear: both;""></div>
                </div>
                            ","null","","0","maps_anchoring.png","true","","","","","","","","","",""
"","","","","","html-button-response","7","128983","0.0-7.0","22zmozl08w","8","5520","<div style=""width:800px;""><p style=""text-align:left"">To move the slider, click and drag your cursor to the location of the scale where you would like to make your rating and then let go. When you let go of the slider, your response will be recorded and the next trial will begin. <br>
                    We are interested in your initial impressions of each map for the given concept, so please go with your first intuition. <br>
                    Before you begin the experiment, there will be four training trials for you to practice using the scale. <br>
                     When you are ready to start the training trials, please click ""Continue"".</p><br></div>","0","","","","","","","","","","","","","",""
"","","","","","html-slider-response","8","133104","0.0-8.0-0.0","22zmozl08w","8","NaN","<div style=""width:500px;"">
                                    <p style=""font-size:25px;"">Please move the slider all the way to the <br> right endpoint of the scale</p>

                                    </div>
                                </div>","200","","0","","true","0","true","","","","","","","",""
"","","","","","html-button-response","9","134690","0.0-8.0-1.0","22zmozl08w","8","1070","<p align='center'><b>Good job!</b> Click on 'Continue' to proceed.</p>","0","","","","","","","","","","","","","",""
"","","","","","html-slider-response","10","136574","0.0-9.0-0.0","22zmozl08w","8","NaN","<div style=""width:500px;"">
                                    <p style=""font-size:25px;"">Please move the slider all the way to the <br> left endpoint of the scale</p>

                                    </div>
                                </div>","-200","","0","","true","1","true","","","","","","","",""
"","","","","","html-button-response","11","137722","0.0-9.0-1.0","22zmozl08w","8","646","<p align='center'><b>Good job!</b> Click on 'Continue' to proceed.</p>","0","","","","","","","","","","","","","",""
"","","","","","html-slider-response","12","142056","0.0-10.0-0.0","22zmozl08w","8","NaN","<div style=""width:500px;"">
                                    <p style=""font-size:25px;"">Please move the slider halfway between the center and right endpoint of the scale</p>

                                    </div>
                                </div>","102","","0","","true","2","true","","","","","","","",""
"","","","","","html-button-response","13","143323","0.0-10.0-1.0","22zmozl08w","8","760","<p align='center'><b>Good job!</b> Click on 'Continue' to proceed.</p>","0","","","","","","","","","","","","","",""
"","","","","","html-slider-response","14","146163","0.0-11.0-0.0","22zmozl08w","8","NaN","<div style=""width:500px;"">
                                    <p style=""font-size:25px;"">Please move the slider halfway between the center and left endpoint of the scale</p>

                                    </div>
                                </div>","-108","","0","","true","3","true","","","","","","","",""
"","","","","","html-button-response","15","147179","0.0-11.0-1.0","22zmozl08w","8","513","<p align='center'><b>Good job!</b> Click on 'Continue' to proceed.</p>","0","","","","","","","","","","","","","",""
"","","","","","html-button-response","16","148836","0.0-12.0","22zmozl08w","8","1654","<p>Great job! You've completed the practice trials. Now you will begin the main task.</p>","0","","","","","","","","","","","","","",""
"","","","","","html-button-response","17","151532","0.0-13.0","22zmozl08w","8","2692","<p>In this block of trials, you will be asked to rate how much you associate each map with:</p > <p style = 'font-size:150%; font-weight: bold'>exciting</p><br></br>","0","","","","","","","","","","","","","",""
"","","","","","html-slider-response","18","154447","0.0-14.0","22zmozl08w","8","NaN","<div style=""width:500px;"">
                            <p style=""font-size:50px; font-weight:bold;""
                            >exciting</p>
                            <div style=""width:240px; margin: auto;"">
                                <img src=""images/G_L_U_37.png"" style= ""width:200px""alt=""img"">
                            </div>
                        </div>","76","","0","images/G_L_U_37.png","","","","exciting","2","37","G","L","U","",""
"","","","","","html-slider-response","19","157402","0.0-15.0","22zmozl08w","8","NaN","<div style=""width:500px;"">
                            <p style=""font-size:50px; font-weight:bold;""
                            >exciting</p>
                            <div style=""width:240px; margin: auto;"">
                                <img src=""images/R_D_S_28.png"" style= ""width:200px""alt=""img"">
                            </div>
                        </div>","6","","0","images/R_D_S_28.png","","","","exciting","2","28","R","D","S","",""
"","","","","","html-slider-response","20","159605","0.0-16.0","22zmozl08w","8","NaN","<div style=""width:500px;"">
                            <p style=""font-size:50px; font-weight:bold;""
                            >exciting</p>
                            <div style=""width:240px; margin: auto;"">
                                <img src=""images/R_L_U_27.png"" style= ""width:200px""alt=""img"">
                            </div>
                        </div>","30","","0","images/R_L_U_27.png","","","","exciting","1","27","R","L","U","",""
"","","","","","html-slider-response","21","162616","0.0-17.0","22zmozl08w","8","NaN","<div style=""width:500px;"">
                            <p style=""font-size:50px; font-weight:bold;""
                            >exciting</p>
                            <div style=""width:240px; margin: auto;"">
                                <img src=""images/B_D_U_10.png"" style= ""width:200px""alt=""img"">
                            </div>
                        </div>","-33","","0","images/B_D_U_10.png","","","","exciting","2","10","B","D","U","",""
"","","","","","html-slider-response","22","166714","0.0-18.0","22zmozl08w","8","NaN","<div style=""width:500px;"">
                            <p style=""font-size:50px; font-weight:bold;""
                            >exciting</p>
                            <div style=""width:240px; margin: auto;"">
                                <img src=""images/Y_L_S_12.png"" style= ""width:200px""alt=""img"">
                            </div>
                        </div>","-10","","0","images/Y_L_S_12.png","","","","exciting","1","12","Y","L","S","",""
"","","","","","html-slider-response","23","169087","0.0-19.0","22zmozl08w","8","NaN","<div style=""width:500px;"">
                            <p style=""font-size:50px; font-weight:bold;""
                            >exciting</p>
                            <div style=""width:240px; margin: auto;"">
                                <img src=""images/B_L_U_05.png"" style= ""width:200px""alt=""img"">
                            </div>
                        </div>","62","","0","images/B_L_U_05.png","","","","exciting","1","05","B","L","U","",""
"","","","","","html-slider-response","24","171411","0.0-20.0","22zmozl08w","8","NaN","<div style=""width:500px;"">
                            <p style=""font-size:50px; font-weight:bold;""
                            >exciting</p>
                            <div style=""width:240px; margin: auto;"">
                                <img src=""images/B_L_U_05.png"" style= ""width:200px""alt=""img"">
                            </div>
                        </div>","86","","0","images/B_L_U_05.png","","","","exciting","2","05","B","L","U","",""
"","","","","","html-slider-response","25","173750","0.0-21.0","22zmozl08w","8","NaN","<div style=""width:500px;"">
                            <p style=""font-size:50px; font-weight:bold;""
                            >exciting</p>
                            <div style=""width:240px; margin: auto;"">
                                <img src=""images/Y_D_U_23.png"" style= ""width:200px""alt=""img"">
                            </div>
                        </div>","-138","","0","images/Y_D_U_23.png","","","","exciting","1","23","Y","D","U","",""
"","","","","","html-slider-response","26","175554","0.0-22.0","22zmozl08w","8","NaN","<div style=""width:500px;"">
                            <p style=""font-size:50px; font-weight:bold;""
                            >exciting</p>
                            <div style=""width:240px; margin: auto;"">
                                <img src=""images/G_L_S_33.png"" style= ""width:200px""alt=""img"">
                            </div>
                        </div>","95","","0","images/G_L_S_33.png","","","","exciting","1","33","G","L","S","",""
"","","","","","html-slider-response","27","177497","0.0-23.0","22zmozl08w","8","NaN","<div style=""width:500px;"">
                            <p style=""font-size:50px; font-weight:bold;""
                            >exciting</p>
                            <div style=""width:240px; margin: auto;"">
                                <img src=""images/Y_D_U_23.png"" style= ""width:200px""alt=""img"">
                            </div>
                        </div>","-86","","0","images/Y_D_U_23.png","","","","exciting","2","23","Y","D","U","",""
"","","","","","html-slider-response","28","179037","0.0-24.0","22zmozl08w","8","NaN","<div style=""width:500px;"">
                            <p style=""font-size:50px; font-weight:bold;""
                            >exciting</p>
                            <div style=""width:240px; margin: auto;"">
                                <img src=""images/G_L_U_37.png"" style= ""width:200px""alt=""img"">
                            </div>
                        </div>","115","","0","images/G_L_U_37.png","","","","exciting","1","37","G","L","U","",""
"","","","","","html-slider-response","29","181045","0.0-25.0","22zmozl08w","8","NaN","<div style=""width:500px;"">
                            <p style=""font-size:50px; font-weight:bold;""
                            >exciting</p>
                            <div style=""width:240px; margin: auto;"">
                                <img src=""images/Y_L_S_12.png"" style= ""width:200px""alt=""img"">
                            </div>
                        </div>","-26","","0","images/Y_L_S_12.png","","","","exciting","2","12","Y","L","S","",""
"","","","","","html-slider-response","30","182561","0.0-26.0","22zmozl08w","8","NaN","<div style=""width:500px;"">
                            <p style=""font-size:50px; font-weight:bold;""
                            >exciting</p>
                            <div style=""width:240px; margin: auto;"">
                                <img src=""images/R_L_S_26.png"" style= ""width:200px""alt=""img"">
                            </div>
                        </div>","109","","0","images/R_L_S_26.png","","","","exciting","2","26","R","L","S","",""
"","","","","","html-slider-response","31","184816","0.0-27.0","22zmozl08w","8","NaN","<div style=""width:500px;"">
                            <p style=""font-size:50px; font-weight:bold;""
                            >exciting</p>
                            <div style=""width:240px; margin: auto;"">
                                <img src=""images/Y_D_S_15.png"" style= ""width:200px""alt=""img"">
                            </div>
                        </div>","-136","","0","images/Y_D_S_15.png","","","","exciting","2","15","Y","D","S","",""
"","","","","","html-slider-response","32","187300","0.0-28.0","22zmozl08w","8","NaN","<div style=""width:500px;"">
                            <p style=""font-size:50px; font-weight:bold;""
                            >exciting</p>
                            <div style=""width:240px; margin: auto;"">
                                <img src=""images/B_D_S_07.png"" style= ""width:200px""alt=""img"">
                            </div>
                        </div>","24","","0","images/B_D_S_07.png","","","","exciting","1","07","B","D","S","",""
"","","","","","html-slider-response","33","190368","0.0-29.0","22zmozl08w","8","NaN","<div style=""width:500px;"">
                            <p style=""font-size:50px; font-weight:bold;""
                            >exciting</p>
                            <div style=""width:240px; margin: auto;"">
                                <img src=""images/Y_L_U_13.png"" style= ""width:200px""alt=""img"">
                            </div>
                        </div>","0","","0","images/Y_L_U_13.png","","","","exciting","1","13","Y","L","U","",""
"","","","","","html-slider-response","34","192082","0.0-30.0","22zmozl08w","8","NaN","<div style=""width:500px;"">
                            <p style=""font-size:50px; font-weight:bold;""
                            >exciting</p>
                            <div style=""width:240px; margin: auto;"">
                                <img src=""images/B_L_S_02.png"" style= ""width:200px""alt=""img"">
                            </div>
                        </div>","94","","0","images/B_L_S_02.png","","","","exciting","1","02","B","L","S","",""
"","","","","","html-slider-response","35","194649","0.0-31.0","22zmozl08w","8","NaN","<div style=""width:500px;"">
                            <p style=""font-size:50px; font-weight:bold;""
                            >exciting</p>
                            <div style=""width:240px; margin: auto;"">
                                <img src=""images/R_D_U_30.png"" style= ""width:200px""alt=""img"">
                            </div>
                        </div>","-76","","0","images/R_D_U_30.png","","","","exciting","2","30","R","D","U","",""
"","","","","","html-slider-response","36","196753","0.0-32.0","22zmozl08w","8","NaN","<div style=""width:500px;"">
                            <p style=""font-size:50px; font-weight:bold;""
                            >exciting</p>
                            <div style=""width:240px; margin: auto;"">
                                <img src=""images/B_D_S_07.png"" style= ""width:200px""alt=""img"">
                            </div>
                        </div>","29","","0","images/B_D_S_07.png","","","","exciting","2","07","B","D","S","",""
"","","","","","html-slider-response","37","199840","0.0-33.0","22zmozl08w","8","NaN","<div style=""width:500px;"">
                            <p style=""font-size:50px; font-weight:bold;""
                            >exciting</p>
                            <div style=""width:240px; margin: auto;"">
                                <img src=""images/G_D_S_41.png"" style= ""width:200px""alt=""img"">
                            </div>
                        </div>","-2","","0","images/G_D_S_41.png","","","","exciting","1","41","G","D","S","",""
"","","","","","html-slider-response","38","202261","0.0-34.0","22zmozl08w","8","NaN","<div style=""width:500px;"">
                            <p style=""font-size:50px; font-weight:bold;""
                            >exciting</p>
                            <div style=""width:240px; margin: auto;"">
                                <img src=""images/Y_D_S_15.png"" style= ""width:200px""alt=""img"">
                            </div>
                        </div>","-143","","0","images/Y_D_S_15.png","","","","exciting","1","15","Y","D","S","",""
"","","","","","html-slider-response","39","204196","0.0-35.0","22zmozl08w","8","NaN","<div style=""width:500px;"">
                            <p style=""font-size:50px; font-weight:bold;""
                            >exciting</p>
                            <div style=""width:240px; margin: auto;"">
                                <img src=""images/R_L_U_27.png"" style= ""width:200px""alt=""img"">
                            </div>
                        </div>","36","","0","images/R_L_U_27.png","","","","exciting","2","27","R","L","U","",""
"","","","","","html-slider-response","40","206045","0.0-36.0","22zmozl08w","8","NaN","<div style=""width:500px;"">
                            <p style=""font-size:50px; font-weight:bold;""
                            >exciting</p>
                            <div style=""width:240px; margin: auto;"">
                                <img src=""images/B_L_S_02.png"" style= ""width:200px""alt=""img"">
                            </div>
                        </div>","106","","0","images/B_L_S_02.png","","","","exciting","2","02","B","L","S","",""
"","","","","","html-slider-response","41","208285","0.0-37.0","22zmozl08w","8","NaN","<div style=""width:500px;"">
                            <p style=""font-size:50px; font-weight:bold;""
                            >exciting</p>
                            <div style=""width:240px; margin: auto;"">
                                <img src=""images/B_D_U_10.png"" style= ""width:200px""alt=""img"">
                            </div>
                        </div>","12","","0","images/B_D_U_10.png","","","","exciting","1","10","B","D","U","",""
"","","","","","html-slider-response","42","210337","0.0-38.0","22zmozl08w","8","NaN","<div style=""width:500px;"">
                            <p style=""font-size:50px; font-weight:bold;""
                            >exciting</p>
                            <div style=""width:240px; margin: auto;"">
                                <img src=""images/G_D_U_44.png"" style= ""width:200px""alt=""img"">
                            </div>
                        </div>","6","","0","images/G_D_U_44.png","","","","exciting","2","44","G","D","U","",""
"","","","","","html-slider-response","43","211766","0.0-39.0","22zmozl08w","8","NaN","<div style=""width:500px;"">
                            <p style=""font-size:50px; font-weight:bold;""
                            >exciting</p>
                            <div style=""width:240px; margin: auto;"">
                                <img src=""images/G_D_S_41.png"" style= ""width:200px""alt=""img"">
                            </div>
                        </div>","6","","0","images/G_D_S_41.png","","","","exciting","2","41","G","D","S","",""
"","","","","","html-slider-response","44","213625","0.0-40.0","22zmozl08w","8","NaN","<div style=""width:500px;"">
                            <p style=""font-size:50px; font-weight:bold;""
                            >exciting</p>
                            <div style=""width:240px; margin: auto;"">
                                <img src=""images/R_D_S_28.png"" style= ""width:200px""alt=""img"">
                            </div>
                        </div>","30","","0","images/R_D_S_28.png","","","","exciting","1","28","R","D","S","",""
"","","","","","html-slider-response","45","215652","0.0-41.0","22zmozl08w","8","NaN","<div style=""width:500px;"">
                            <p style=""font-size:50px; font-weight:bold;""
                            >exciting</p>
                            <div style=""width:240px; margin: auto;"">
                                <img src=""images/R_D_U_30.png"" style= ""width:200px""alt=""img"">
                            </div>
                        </div>","-20","","0","images/R_D_U_30.png","","","","exciting","1","30","R","D","U","",""
"","","","","","html-slider-response","46","217757","0.0-42.0","22zmozl08w","8","NaN","<div style=""width:500px;"">
                            <p style=""font-size:50px; font-weight:bold;""
                            >exciting</p>
                            <div style=""width:240px; margin: auto;"">
                                <img src=""images/G_L_S_33.png"" style= ""width:200px""alt=""img"">
                            </div>
                        </div>","92","","0","images/G_L_S_33.png","","","","exciting","2","33","G","L","S","",""
"","","","","","html-slider-response","47","220484","0.0-43.0","22zmozl08w","8","NaN","<div style=""width:500px;"">
                            <p style=""font-size:50px; font-weight:bold;""
                            >exciting</p>
                            <div style=""width:240px; margin: auto;"">
                                <img src=""images/Y_L_U_13.png"" style= ""width:200px""alt=""img"">
                            </div>
                        </div>","13","","0","images/Y_L_U_13.png","","","","exciting","2","13","Y","L","U","",""
"","","","","","html-slider-response","48","222489","0.0-44.0","22zmozl08w","8","NaN","<div style=""width:500px;"">
                            <p style=""font-size:50px; font-weight:bold;""
                            >exciting</p>
                            <div style=""width:240px; margin: auto;"">
                                <img src=""images/G_D_U_44.png"" style= ""width:200px""alt=""img"">
                            </div>
                        </div>","-26","","0","images/G_D_U_44.png","","","","exciting","1","44","G","D","U","",""
"","","","","","html-slider-response","49","224140","0.0-45.0","22zmozl08w","8","NaN","<div style=""width:500px;"">
                            <p style=""font-size:50px; font-weight:bold;""
                            >exciting</p>
                            <div style=""width:240px; margin: auto;"">
                                <img src=""images/R_L_S_26.png"" style= ""width:200px""alt=""img"">
                            </div>
                        </div>","17","","0","images/R_L_S_26.png","","","","exciting","1","26","R","L","S","",""
"","","","","","html-button-response","50","226536","0.0-46.0","22zmozl08w","8","1888","<p>Great Job! You've finished block 1.<br></br> You have 7 block(s) left to go.<br></br></p>","0","","","","","","","","","","","","","",""
"","","","","","html-button-response","51","227814","0.0-47.0","22zmozl08w","8","1274","<p>In this block of trials, you will be asked to rate how much you associate each map with:</p > <p style = 'font-size:150%; font-weight: bold'>trustworthy</p><br></br>","0","","","","","","","","","","","","","",""
"","","","","","html-slider-response","52","230100","0.0-48.0","22zmozl08w","8","NaN","<div style=""width:500px;"">
                            <p style=""font-size:50px; font-weight:bold;""
                            >trustworthy</p>
                            <div style=""width:240px; margin: auto;"">
                                <img src=""images/B_L_U_05.png"" style= ""width:200px""alt=""img"">
                            </div>
                        </div>","16","","0","images/B_L_U_05.png","","","","trustworthy","2","05","B","L","U","",""
"","","","","","html-slider-response","53","231938","0.0-49.0","22zmozl08w","8","NaN","<div style=""width:500px;"">
                            <p style=""font-size:50px; font-weight:bold;""
                            >trustworthy</p>
                            <div style=""width:240px; margin: auto;"">
                                <img src=""images/G_L_S_33.png"" style= ""width:200px""alt=""img"">
                            </div>
                        </div>","19","","0","images/G_L_S_33.png","","","","trustworthy","2","33","G","L","S","",""
"","","","","","html-slider-response","54","233820","0.0-50.0","22zmozl08w","8","NaN","<div style=""width:500px;"">
                            <p style=""font-size:50px; font-weight:bold;""
                            >trustworthy</p>
                            <div style=""width:240px; margin: auto;"">
                                <img src=""images/B_L_S_02.png"" style= ""width:200px""alt=""img"">
                            </div>
                        </div>","51","","0","images/B_L_S_02.png","","","","trustworthy","1","02","B","L","S","",""
"","","","","","html-slider-response","55","235463","0.0-51.0","22zmozl08w","8","NaN","<div style=""width:500px;"">
                            <p style=""font-size:50px; font-weight:bold;""
                            >trustworthy</p>
                            <div style=""width:240px; margin: auto;"">
                                <img src=""images/R_L_U_27.png"" style= ""width:200px""alt=""img"">
                            </div>
                        </div>","54","","0","images/R_L_U_27.png","","","","trustworthy","2","27","R","L","U","",""
"","","","","","html-slider-response","56","237341","0.0-52.0","22zmozl08w","8","NaN","<div style=""width:500px;"">
                            <p style=""font-size:50px; font-weight:bold;""
                            >trustworthy</p>
                            <div style=""width:240px; margin: auto;"">
                                <img src=""images/B_D_S_07.png"" style= ""width:200px""alt=""img"">
                            </div>
                        </div>","82","","0","images/B_D_S_07.png","","","","trustworthy","1","07","B","D","S","",""
"","","","","","html-slider-response","57","239362","0.0-53.0","22zmozl08w","8","NaN","<div style=""width:500px;"">
                            <p style=""font-size:50px; font-weight:bold;""
                            >trustworthy</p>
                            <div style=""width:240px; margin: auto;"">
                                <img src=""images/B_D_U_10.png"" style= ""width:200px""alt=""img"">
                            </div>
                        </div>","-36","","0","images/B_D_U_10.png","","","","trustworthy","1","10","B","D","U","",""
"","","","","","html-slider-response","58","241756","0.0-54.0","22zmozl08w","8","NaN","<div style=""width:500px;"">
                            <p style=""font-size:50px; font-weight:bold;""
                            >trustworthy</p>
                            <div style=""width:240px; margin: auto;"">
                                <img src=""images/Y_L_S_12.png"" style= ""width:200px""alt=""img"">
                            </div>
                        </div>","-140","","0","images/Y_L_S_12.png","","","","trustworthy","1","12","Y","L","S","",""
"","","","","","html-slider-response","59","243112","0.0-55.0","22zmozl08w","8","NaN","<div style=""width:500px;"">
                            <p style=""font-size:50px; font-weight:bold;""
                            >trustworthy</p>
                            <div style=""width:240px; margin: auto;"">
                                <img src=""images/Y_D_U_23.png"" style= ""width:200px""alt=""img"">
                            </div>
                        </div>","-140","","0","images/Y_D_U_23.png","","","","trustworthy","1","23","Y","D","U","",""
"","","","","","html-slider-response","60","245516","0.0-56.0","22zmozl08w","8","NaN","<div style=""width:500px;"">
                            <p style=""font-size:50px; font-weight:bold;""
                            >trustworthy</p>
                            <div style=""width:240px; margin: auto;"">
                                <img src=""images/G_L_U_37.png"" style= ""width:200px""alt=""img"">
                            </div>
                        </div>","52","","0","images/G_L_U_37.png","","","","trustworthy","1","37","G","L","U","",""
"","","","","","html-slider-response","61","247340","0.0-57.0","22zmozl08w","8","NaN","<div style=""width:500px;"">
                            <p style=""font-size:50px; font-weight:bold;""
                            >trustworthy</p>
                            <div style=""width:240px; margin: auto;"">
                                <img src=""images/G_D_U_44.png"" style= ""width:200px""alt=""img"">
                            </div>
                        </div>","-68","","0","images/G_D_U_44.png","","","","trustworthy","2","44","G","D","U","",""
"","","","","","html-slider-response","62","249104","0.0-58.0","22zmozl08w","8","NaN","<div style=""width:500px;"">
                            <p style=""font-size:50px; font-weight:bold;""
                            >trustworthy</p>
                            <div style=""width:240px; margin: auto;"">
                                <img src=""images/Y_D_S_15.png"" style= ""width:200px""alt=""img"">
                            </div>
                        </div>","-110","","0","images/Y_D_S_15.png","","","","trustworthy","1","15","Y","D","S","",""
"","","","","","html-slider-response","63","251180","0.0-59.0","22zmozl08w","8","NaN","<div style=""width:500px;"">
                            <p style=""font-size:50px; font-weight:bold;""
                            >trustworthy</p>
                            <div style=""width:240px; margin: auto;"">
                                <img src=""images/Y_L_S_12.png"" style= ""width:200px""alt=""img"">
                            </div>
                        </div>","-150","","0","images/Y_L_S_12.png","","","","trustworthy","2","12","Y","L","S","",""
"","","","","","html-slider-response","64","253491","0.0-60.0","22zmozl08w","8","NaN","<div style=""width:500px;"">
                            <p style=""font-size:50px; font-weight:bold;""
                            >trustworthy</p>
                            <div style=""width:240px; margin: auto;"">
                                <img src=""images/R_D_U_30.png"" style= ""width:200px""alt=""img"">
                            </div>
                        </div>","-29","","0","images/R_D_U_30.png","","","","trustworthy","2","30","R","D","U","",""
"","","","","","html-slider-response","65","254968","0.0-61.0","22zmozl08w","8","NaN","<div style=""width:500px;"">
                            <p style=""font-size:50px; font-weight:bold;""
                            >trustworthy</p>
                            <div style=""width:240px; margin: auto;"">
                                <img src=""images/R_D_U_30.png"" style= ""width:200px""alt=""img"">
                            </div>
                        </div>","-45","","0","images/R_D_U_30.png","","","","trustworthy","1","30","R","D","U","",""
"","","","","","html-slider-response","66","257245","0.0-62.0","22zmozl08w","8","NaN","<div style=""width:500px;"">
                            <p style=""font-size:50px; font-weight:bold;""
                            >trustworthy</p>
                            <div style=""width:240px; margin: auto;"">
                                <img src=""images/R_L_U_27.png"" style= ""width:200px""alt=""img"">
                            </div>
                        </div>","24","","0","images/R_L_U_27.png","","","","trustworthy","1","27","R","L","U","",""
"","","","","","html-slider-response","67","259356","0.0-63.0","22zmozl08w","8","NaN","<div style=""width:500px;"">
                            <p style=""font-size:50px; font-weight:bold;""
                            >trustworthy</p>
                            <div style=""width:240px; margin: auto;"">
                                <img src=""images/G_D_S_41.png"" style= ""width:200px""alt=""img"">
                            </div>
                        </div>","1","","0","images/G_D_S_41.png","","","","trustworthy","2","41","G","D","S","",""
"","","","","","html-slider-response","68","261340","0.0-64.0","22zmozl08w","8","NaN","<div style=""width:500px;"">
                            <p style=""font-size:50px; font-weight:bold;""
                            >trustworthy</p>
                            <div style=""width:240px; margin: auto;"">
                                <img src=""images/R_L_S_26.png"" style= ""width:200px""alt=""img"">
                            </div>
                        </div>","53","","0","images/R_L_S_26.png","","","","trustworthy","1","26","R","L","S","",""
"","","","","","html-slider-response","69","262600","0.0-65.0","22zmozl08w","8","NaN","<div style=""width:500px;"">
                            <p style=""font-size:50px; font-weight:bold;""
                            >trustworthy</p>
                            <div style=""width:240px; margin: auto;"">
                                <img src=""images/R_L_S_26.png"" style= ""width:200px""alt=""img"">
                            </div>
                        </div>","53","","0","images/R_L_S_26.png","","","","trustworthy","2","26","R","L","S","",""
"","","","","","html-slider-response","70","264746","0.0-66.0","22zmozl08w","8","NaN","<div style=""width:500px;"">
                            <p style=""font-size:50px; font-weight:bold;""
                            >trustworthy</p>
                            <div style=""width:240px; margin: auto;"">
                                <img src=""images/G_D_S_41.png"" style= ""width:200px""alt=""img"">
                            </div>
                        </div>","-12","","0","images/G_D_S_41.png","","","","trustworthy","1","41","G","D","S","",""
"","","","","","html-slider-response","71","267018","0.0-67.0","22zmozl08w","8","NaN","<div style=""width:500px;"">
                            <p style=""font-size:50px; font-weight:bold;""
                            >trustworthy</p>
                            <div style=""width:240px; margin: auto;"">
                                <img src=""images/Y_L_U_13.png"" style= ""width:200px""alt=""img"">
                            </div>
                        </div>","-14","","0","images/Y_L_U_13.png","","","","trustworthy","2","13","Y","L","U","",""
"","","","","","html-slider-response","72","269053","0.0-68.0","22zmozl08w","8","NaN","<div style=""width:500px;"">
                            <p style=""font-size:50px; font-weight:bold;""
                            >trustworthy</p>
                            <div style=""width:240px; margin: auto;"">
                                <img src=""images/Y_D_U_23.png"" style= ""width:200px""alt=""img"">
                            </div>
                        </div>","-106","","0","images/Y_D_U_23.png","","","","trustworthy","2","23","Y","D","U","",""
"","","","","","html-slider-response","73","271465","0.0-69.0","22zmozl08w","8","NaN","<div style=""width:500px;"">
                            <p style=""font-size:50px; font-weight:bold;""
                            >trustworthy</p>
                            <div style=""width:240px; margin: auto;"">
                                <img src=""images/G_D_U_44.png"" style= ""width:200px""alt=""img"">
                            </div>
                        </div>","-13","","0","images/G_D_U_44.png","","","","trustworthy","1","44","G","D","U","",""
"","","","","","html-slider-response","74","275321","0.0-70.0","22zmozl08w","8","NaN","<div style=""width:500px;"">
                            <p style=""font-size:50px; font-weight:bold;""
                            >trustworthy</p>
                            <div style=""width:240px; margin: auto;"">
                                <img src=""images/R_D_S_28.png"" style= ""width:200px""alt=""img"">
                            </div>
                        </div>","-6","","0","images/R_D_S_28.png","","","","trustworthy","1","28","R","D","S","",""
"","","","","","html-slider-response","75","277850","0.0-71.0","22zmozl08w","8","NaN","<div style=""width:500px;"">
                            <p style=""font-size:50px; font-weight:bold;""
                            >trustworthy</p>
                            <div style=""width:240px; margin: auto;"">
                                <img src=""images/B_D_S_07.png"" style= ""width:200px""alt=""img"">
                            </div>
                        </div>","13","","0","images/B_D_S_07.png","","","","trustworthy","2","07","B","D","S","",""
"","","","","","html-slider-response","76","279601","0.0-72.0","22zmozl08w","8","NaN","<div style=""width:500px;"">
                            <p style=""font-size:50px; font-weight:bold;""
                            >trustworthy</p>
                            <div style=""width:240px; margin: auto;"">
                                <img src=""images/G_L_S_33.png"" style= ""width:200px""alt=""img"">
                            </div>
                        </div>","126","","0","images/G_L_S_33.png","","","","trustworthy","1","33","G","L","S","",""
"","","","","","html-slider-response","77","281307","0.0-73.0","22zmozl08w","8","NaN","<div style=""width:500px;"">
                            <p style=""font-size:50px; font-weight:bold;""
                            >trustworthy</p>
                            <div style=""width:240px; margin: auto;"">
                                <img src=""images/B_L_U_05.png"" style= ""width:200px""alt=""img"">
                            </div>
                        </div>","140","","0","images/B_L_U_05.png","","","","trustworthy","1","05","B","L","U","",""
"","","","","","html-slider-response","78","283070","0.0-74.0","22zmozl08w","8","NaN","<div style=""width:500px;"">
                            <p style=""font-size:50px; font-weight:bold;""
                            >trustworthy</p>
                            <div style=""width:240px; margin: auto;"">
                                <img src=""images/Y_L_U_13.png"" style= ""width:200px""alt=""img"">
                            </div>
                        </div>","-46","","0","images/Y_L_U_13.png","","","","trustworthy","1","13","Y","L","U","",""
"","","","","","html-slider-response","79","285102","0.0-75.0","22zmozl08w","8","NaN","<div style=""width:500px;"">
                            <p style=""font-size:50px; font-weight:bold;""
                            >trustworthy</p>
                            <div style=""width:240px; margin: auto;"">
                                <img src=""images/Y_D_S_15.png"" style= ""width:200px""alt=""img"">
                            </div>
                        </div>","-193","","0","images/Y_D_S_15.png","","","","trustworthy","2","15","Y","D","S","",""
"","","","","","html-slider-response","80","287531","0.0-76.0","22zmozl08w","8","NaN","<div style=""width:500px;"">
                            <p style=""font-size:50px; font-weight:bold;""
                            >trustworthy</p>
                            <div style=""width:240px; margin: auto;"">
                                <img src=""images/B_D_U_10.png"" style= ""width:200px""alt=""img"">
                            </div>
                        </div>","6","","0","images/B_D_U_10.png","","","","trustworthy","2","10","B","D","U","",""
"","","","","","html-slider-response","81","289279","0.0-77.0","22zmozl08w","8","NaN","<div style=""width:500px;"">
                            <p style=""font-size:50px; font-weight:bold;""
                            >trustworthy</p>
                            <div style=""width:240px; margin: auto;"">
                                <img src=""images/R_D_S_28.png"" style= ""width:200px""alt=""img"">
                            </div>
                        </div>","1","","0","images/R_D_S_28.png","","","","trustworthy","2","28","R","D","S","",""
"","","","","","html-slider-response","82","291189","0.0-78.0","22zmozl08w","8","NaN","<div style=""width:500px;"">
                            <p style=""font-size:50px; font-weight:bold;""
                            >trustworthy</p>
                            <div style=""width:240px; margin: auto;"">
                                <img src=""images/G_L_U_37.png"" style= ""width:200px""alt=""img"">
                            </div>
                        </div>","80","","0","images/G_L_U_37.png","","","","trustworthy","2","37","G","L","U","",""
"","","","","","html-slider-response","83","292755","0.0-79.0","22zmozl08w","8","NaN","<div style=""width:500px;"">
                            <p style=""font-size:50px; font-weight:bold;""
                            >trustworthy</p>
                            <div style=""width:240px; margin: auto;"">
                                <img src=""images/B_L_S_02.png"" style= ""width:200px""alt=""img"">
                            </div>
                        </div>","74","","0","images/B_L_S_02.png","","","","trustworthy","2","02","B","L","S","",""
"","","","","","html-button-response","84","294402","0.0-80.0","22zmozl08w","8","1138","<p>Great Job! You've finished block 2.<br></br> You have 6 block(s) left to go.<br></br></p>","0","","","","","","","","","","","","","",""
"","","","","","html-button-response","85","295339","0.0-81.0","22zmozl08w","8","934","<p>In this block of trials, you will be asked to rate how much you associate each map with:</p > <p style = 'font-size:150%; font-weight: bold'>calm</p><br></br>","0","","","","","","","","","","","","","",""
"","","","","","html-slider-response","86","297015","0.0-82.0","22zmozl08w","8","NaN","<div style=""width:500px;"">
                            <p style=""font-size:50px; font-weight:bold;""
                            >calm</p>
                            <div style=""width:240px; margin: auto;"">
                                <img src=""images/B_D_S_07.png"" style= ""width:200px""alt=""img"">
                            </div>
                        </div>","66","","0","images/B_D_S_07.png","","","","calm","1","07","B","D","S","",""
"","","","","","html-slider-response","87","299318","0.0-83.0","22zmozl08w","8","NaN","<div style=""width:500px;"">
                            <p style=""font-size:50px; font-weight:bold;""
                            >calm</p>
                            <div style=""width:240px; margin: auto;"">
                                <img src=""images/Y_L_U_13.png"" style= ""width:200px""alt=""img"">
                            </div>
                        </div>","-46","","0","images/Y_L_U_13.png","","","","calm","2","13","Y","L","U","",""
"","","","","","html-slider-response","88","302120","0.0-84.0","22zmozl08w","8","NaN","<div style=""width:500px;"">
                            <p style=""font-size:50px; font-weight:bold;""
                            >calm</p>
                            <div style=""width:240px; margin: auto;"">
                                <img src=""images/G_D_U_44.png"" style= ""width:200px""alt=""img"">
                            </div>
                        </div>","14","","0","images/G_D_U_44.png","","","","calm","1","44","G","D","U","",""
"","","","","","html-slider-response","89","304136","0.0-85.0","22zmozl08w","8","NaN","<div style=""width:500px;"">
                            <p style=""font-size:50px; font-weight:bold;""
                            >calm</p>
                            <div style=""width:240px; margin: auto;"">
                                <img src=""images/G_D_S_41.png"" style= ""width:200px""alt=""img"">
                            </div>
                        </div>","49","","0","images/G_D_S_41.png","","","","calm","2","41","G","D","S","",""
"","","","","","html-slider-response","90","306993","0.0-86.0","22zmozl08w","8","NaN","<div style=""width:500px;"">
                            <p style=""font-size:50px; font-weight:bold;""
                            >calm</p>
                            <div style=""width:240px; margin: auto;"">
                                <img src=""images/R_L_S_26.png"" style= ""width:200px""alt=""img"">
                            </div>
                        </div>","-61","","0","images/R_L_S_26.png","","","","calm","1","26","R","L","S","",""
"","","","","","html-slider-response","91","308965","0.0-87.0","22zmozl08w","8","NaN","<div style=""width:500px;"">
                            <p style=""font-size:50px; font-weight:bold;""
                            >calm</p>
                            <div style=""width:240px; margin: auto;"">
                                <img src=""images/B_D_S_07.png"" style= ""width:200px""alt=""img"">
                            </div>
                        </div>","67","","0","images/B_D_S_07.png","","","","calm","2","07","B","D","S","",""
"","","","","","html-slider-response","92","310602","0.0-88.0","22zmozl08w","8","NaN","<div style=""width:500px;"">
                            <p style=""font-size:50px; font-weight:bold;""
                            >calm</p>
                            <div style=""width:240px; margin: auto;"">
                                <img src=""images/B_L_U_05.png"" style= ""width:200px""alt=""img"">
                            </div>
                        </div>","67","","0","images/B_L_U_05.png","","","","calm","1","05","B","L","U","",""
"","","","","","html-slider-response","93","312216","0.0-89.0","22zmozl08w","8","NaN","<div style=""width:500px;"">
                            <p style=""font-size:50px; font-weight:bold;""
                            >calm</p>
                            <div style=""width:240px; margin: auto;"">
                                <img src=""images/R_L_S_26.png"" style= ""width:200px""alt=""img"">
                            </div>
                        </div>","96","","0","images/R_L_S_26.png","","","","calm","2","26","R","L","S","",""
"","","","","","html-slider-response","94","313839","0.0-90.0","22zmozl08w","8","NaN","<div style=""width:500px;"">
                            <p style=""font-size:50px; font-weight:bold;""
                            >calm</p>
                            <div style=""width:240px; margin: auto;"">
                                <img src=""images/R_L_U_27.png"" style= ""width:200px""alt=""img"">
                            </div>
                        </div>","96","","0","images/R_L_U_27.png","","","","calm","1","27","R","L","U","",""
"","","","","","html-slider-response","95","315706","0.0-91.0","22zmozl08w","8","NaN","<div style=""width:500px;"">
                            <p style=""font-size:50px; font-weight:bold;""
                            >calm</p>
                            <div style=""width:240px; margin: auto;"">
                                <img src=""images/Y_D_U_23.png"" style= ""width:200px""alt=""img"">
                            </div>
                        </div>","-168","","0","images/Y_D_U_23.png","","","","calm","1","23","Y","D","U","",""
"","","","","","html-slider-response","96","317704","0.0-92.0","22zmozl08w","8","NaN","<div style=""width:500px;"">
                            <p style=""font-size:50px; font-weight:bold;""
                            >calm</p>
                            <div style=""width:240px; margin: auto;"">
                                <img src=""images/Y_L_S_12.png"" style= ""width:200px""alt=""img"">
                            </div>
                        </div>","-97","","0","images/Y_L_S_12.png","","","","calm","1","12","Y","L","S","",""
"","","","","","html-slider-response","97","319458","0.0-93.0","22zmozl08w","8","NaN","<div style=""width:500px;"">
                            <p style=""font-size:50px; font-weight:bold;""
                            >calm</p>
                            <div style=""width:240px; margin: auto;"">
                                <img src=""images/B_L_S_02.png"" style= ""width:200px""alt=""img"">
                            </div>
                        </div>","131","","0","images/B_L_S_02.png","","","","calm","2","02","B","L","S","",""
"","","","","","html-slider-response","98","320804","0.0-94.0","22zmozl08w","8","NaN","<div style=""width:500px;"">
                            <p style=""font-size:50px; font-weight:bold;""
                            >calm</p>
                            <div style=""width:240px; margin: auto;"">
                                <img src=""images/B_D_U_10.png"" style= ""width:200px""alt=""img"">
                            </div>
                        </div>","131","","0","images/B_D_U_10.png","","","","calm","1","10","B","D","U","",""
"","","","","","html-slider-response","99","322102","0.0-95.0","22zmozl08w","8","NaN","<div style=""width:500px;"">
                            <p style=""font-size:50px; font-weight:bold;""
                            >calm</p>
                            <div style=""width:240px; margin: auto;"">
                                <img src=""images/B_L_S_02.png"" style= ""width:200px""alt=""img"">
                            </div>
                        </div>","131","","0","images/B_L_S_02.png","","","","calm","1","02","B","L","S","",""
"","","","","","html-slider-response","100","324281","0.0-96.0","22zmozl08w","8","NaN","<div style=""width:500px;"">
                            <p style=""font-size:50px; font-weight:bold;""
                            >calm</p>
                            <div style=""width:240px; margin: auto;"">
                                <img src=""images/Y_L_U_13.png"" style= ""width:200px""alt=""img"">
                            </div>
                        </div>","106","","0","images/Y_L_U_13.png","","","","calm","1","13","Y","L","U","",""
"","","","","","html-slider-response","101","326850","0.0-97.0","22zmozl08w","8","NaN","<div style=""width:500px;"">
                            <p style=""font-size:50px; font-weight:bold;""
                            >calm</p>
                            <div style=""width:240px; margin: auto;"">
                                <img src=""images/R_D_U_30.png"" style= ""width:200px""alt=""img"">
                            </div>
                        </div>","84","","0","images/R_D_U_30.png","","","","calm","1","30","R","D","U","",""
"","","","","","html-slider-response","102","328534","0.0-98.0","22zmozl08w","8","NaN","<div style=""width:500px;"">
                            <p style=""font-size:50px; font-weight:bold;""
                            >calm</p>
                            <div style=""width:240px; margin: auto;"">
                                <img src=""images/Y_D_S_15.png"" style= ""width:200px""alt=""img"">
                            </div>
                        </div>","-128","","0","images/Y_D_S_15.png","","","","calm","2","15","Y","D","S","",""
"","","","","","html-slider-response","103","330310","0.0-99.0","22zmozl08w","8","NaN","<div style=""width:500px;"">
                            <p style=""font-size:50px; font-weight:bold;""
                            >calm</p>
                            <div style=""width:240px; margin: auto;"">
                                <img src=""images/Y_L_S_12.png"" style= ""width:200px""alt=""img"">
                            </div>
                        </div>","-109","","0","images/Y_L_S_12.png","","","","calm","2","12","Y","L","S","",""
"","","","","","html-slider-response","104","332003","0.0-100.0","22zmozl08w","8","NaN","<div style=""width:500px;"">
                            <p style=""font-size:50px; font-weight:bold;""
                            >calm</p>
                            <div style=""width:240px; margin: auto;"">
                                <img src=""images/G_L_U_37.png"" style= ""width:200px""alt=""img"">
                            </div>
                        </div>","62","","0","images/G_L_U_37.png","","","","calm","2","37","G","L","U","",""
"","","","","","html-slider-response","105","333870","0.0-101.0","22zmozl08w","8","NaN","<div style=""width:500px;"">
                            <p style=""font-size:50px; font-weight:bold;""
                            >calm</p>
                            <div style=""width:240px; margin: auto;"">
                                <img src=""images/G_L_S_33.png"" style= ""width:200px""alt=""img"">
                            </div>
                        </div>","-55","","0","images/G_L_S_33.png","","","","calm","1","33","G","L","S","",""
"","","","","","html-slider-response","106","335124","0.0-102.0","22zmozl08w","8","NaN","<div style=""width:500px;"">
                            <p style=""font-size:50px; font-weight:bold;""
                            >calm</p>
                            <div style=""width:240px; margin: auto;"">
                                <img src=""images/G_D_S_41.png"" style= ""width:200px""alt=""img"">
                            </div>
                        </div>","73","","0","images/G_D_S_41.png","","","","calm","1","41","G","D","S","",""
"","","","","","html-slider-response","107","338685","0.0-103.0","22zmozl08w","8","NaN","<div style=""width:500px;"">
                            <p style=""font-size:50px; font-weight:bold;""
                            >calm</p>
                            <div style=""width:240px; margin: auto;"">
                                <img src=""images/R_D_S_28.png"" style= ""width:200px""alt=""img"">
                            </div>
                        </div>","-19","","0","images/R_D_S_28.png","","","","calm","1","28","R","D","S","",""
"","","","","","html-slider-response","108","341390","0.0-104.0","22zmozl08w","8","NaN","<div style=""width:500px;"">
                            <p style=""font-size:50px; font-weight:bold;""
                            >calm</p>
                            <div style=""width:240px; margin: auto;"">
                                <img src=""images/G_D_U_44.png"" style= ""width:200px""alt=""img"">
                            </div>
                        </div>","21","","0","images/G_D_U_44.png","","","","calm","2","44","G","D","U","",""
"","","","","","html-slider-response","109","343154","0.0-105.0","22zmozl08w","8","NaN","<div style=""width:500px;"">
                            <p style=""font-size:50px; font-weight:bold;""
                            >calm</p>
                            <div style=""width:240px; margin: auto;"">
                                <img src=""images/Y_D_S_15.png"" style= ""width:200px""alt=""img"">
                            </div>
                        </div>","-62","","0","images/Y_D_S_15.png","","","","calm","1","15","Y","D","S","",""
"","","","","","html-slider-response","110","345367","0.0-106.0","22zmozl08w","8","NaN","<div style=""width:500px;"">
                            <p style=""font-size:50px; font-weight:bold;""
                            >calm</p>
                            <div style=""width:240px; margin: auto;"">
                                <img src=""images/B_D_U_10.png"" style= ""width:200px""alt=""img"">
                            </div>
                        </div>","31","","0","images/B_D_U_10.png","","","","calm","2","10","B","D","U","",""
"","","","","","html-slider-response","111","347207","0.0-107.0","22zmozl08w","8","NaN","<div style=""width:500px;"">
                            <p style=""font-size:50px; font-weight:bold;""
                            >calm</p>
                            <div style=""width:240px; margin: auto;"">
                                <img src=""images/Y_D_U_23.png"" style= ""width:200px""alt=""img"">
                            </div>
                        </div>","-59","","0","images/Y_D_U_23.png","","","","calm","2","23","Y","D","U","",""
"","","","","","html-slider-response","112","348663","0.0-108.0","22zmozl08w","8","NaN","<div style=""width:500px;"">
                            <p style=""font-size:50px; font-weight:bold;""
                            >calm</p>
                            <div style=""width:240px; margin: auto;"">
                                <img src=""images/B_L_U_05.png"" style= ""width:200px""alt=""img"">
                            </div>
                        </div>","61","","0","images/B_L_U_05.png","","","","calm","2","05","B","L","U","",""
"","","","","","html-slider-response","113","349628","0.0-109.0","22zmozl08w","8","NaN","<div style=""width:500px;"">
                            <p style=""font-size:50px; font-weight:bold;""
                            >calm</p>
                            <div style=""width:240px; margin: auto;"">
                                <img src=""images/R_D_U_30.png"" style= ""width:200px""alt=""img"">
                            </div>
                        </div>","61","","0","images/R_D_U_30.png","","","","calm","2","30","R","D","U","",""
"","","","","","html-slider-response","114","350598","0.0-110.0","22zmozl08w","8","NaN","<div style=""width:500px;"">
                            <p style=""font-size:50px; font-weight:bold;""
                            >calm</p>
                            <div style=""width:240px; margin: auto;"">
                                <img src=""images/R_L_U_27.png"" style= ""width:200px""alt=""img"">
                            </div>
                        </div>","92","","0","images/R_L_U_27.png","","","","calm","2","27","R","L","U","",""
"","","","","","html-slider-response","115","351626","0.0-111.0","22zmozl08w","8","NaN","<div style=""width:500px;"">
                            <p style=""font-size:50px; font-weight:bold;""
                            >calm</p>
                            <div style=""width:240px; margin: auto;"">
                                <img src=""images/G_L_S_33.png"" style= ""width:200px""alt=""img"">
                            </div>
                        </div>","-114","","0","images/G_L_S_33.png","","","","calm","2","33","G","L","S","",""
"","","","","","html-slider-response","116","352605","0.0-112.0","22zmozl08w","8","NaN","<div style=""width:500px;"">
                            <p style=""font-size:50px; font-weight:bold;""
                            >calm</p>
                            <div style=""width:240px; margin: auto;"">
                                <img src=""images/R_D_S_28.png"" style= ""width:200px""alt=""img"">
                            </div>
                        </div>","86","","0","images/R_D_S_28.png","","","","calm","2","28","R","D","S","",""
"","","","","","html-slider-response","117","353635","0.0-113.0","22zmozl08w","8","NaN","<div style=""width:500px;"">
                            <p style=""font-size:50px; font-weight:bold;""
                            >calm</p>
                            <div style=""width:240px; margin: auto;"">
                                <img src=""images/G_L_U_37.png"" style= ""width:200px""alt=""img"">
                            </div>
                        </div>","-136","","0","images/G_L_U_37.png","","","","calm","1","37","G","L","U","",""
"","","","","","html-button-response","118","355270","0.0-114.0","22zmozl08w","8","1133","<p>Great Job! You've finished block 3.<br></br> You have 5 block(s) left to go.<br></br></p>","0","","","","","","","","","","","","","",""
"","","","","","html-button-response","119","355909","0.0-115.0","22zmozl08w","8","638","<p>In this block of trials, you will be asked to rate how much you associate each map with:</p > <p style = 'font-size:150%; font-weight: bold'>serious</p><br></br>","0","","","","","","","","","","","","","",""
"","","","","","html-slider-response","120","357432","0.0-116.0","22zmozl08w","8","NaN","<div style=""width:500px;"">
                            <p style=""font-size:50px; font-weight:bold;""
                            >serious</p>
                            <div style=""width:240px; margin: auto;"">
                                <img src=""images/G_L_S_33.png"" style= ""width:200px""alt=""img"">
                            </div>
                        </div>","-117","","0","images/G_L_S_33.png","","","","serious","1","33","G","L","S","",""
"","","","","","html-slider-response","121","359422","0.0-117.0","22zmozl08w","8","NaN","<div style=""width:500px;"">
                            <p style=""font-size:50px; font-weight:bold;""
                            >serious</p>
                            <div style=""width:240px; margin: auto;"">
                                <img src=""images/G_D_S_41.png"" style= ""width:200px""alt=""img"">
                            </div>
                        </div>","100","","0","images/G_D_S_41.png","","","","serious","1","41","G","D","S","",""
"","","","","","html-slider-response","122","361247","0.0-118.0","22zmozl08w","8","NaN","<div style=""width:500px;"">
                            <p style=""font-size:50px; font-weight:bold;""
                            >serious</p>
                            <div style=""width:240px; margin: auto;"">
                                <img src=""images/B_L_S_02.png"" style= ""width:200px""alt=""img"">
                            </div>
                        </div>","-79","","0","images/B_L_S_02.png","","","","serious","1","02","B","L","S","",""
"","","","","","html-slider-response","123","362532","0.0-119.0","22zmozl08w","8","NaN","<div style=""width:500px;"">
                            <p style=""font-size:50px; font-weight:bold;""
                            >serious</p>
                            <div style=""width:240px; margin: auto;"">
                                <img src=""images/G_L_S_33.png"" style= ""width:200px""alt=""img"">
                            </div>
                        </div>","-73","","0","images/G_L_S_33.png","","","","serious","2","33","G","L","S","",""
"","","","","","html-slider-response","124","364190","0.0-120.0","22zmozl08w","8","NaN","<div style=""width:500px;"">
                            <p style=""font-size:50px; font-weight:bold;""
                            >serious</p>
                            <div style=""width:240px; margin: auto;"">
                                <img src=""images/Y_L_U_13.png"" style= ""width:200px""alt=""img"">
                            </div>
                        </div>","45","","0","images/Y_L_U_13.png","","","","serious","2","13","Y","L","U","",""
"","","","","","html-slider-response","125","365912","0.0-121.0","22zmozl08w","8","NaN","<div style=""width:500px;"">
                            <p style=""font-size:50px; font-weight:bold;""
                            >serious</p>
                            <div style=""width:240px; margin: auto;"">
                                <img src=""images/R_L_U_27.png"" style= ""width:200px""alt=""img"">
                            </div>
                        </div>","-64","","0","images/R_L_U_27.png","","","","serious","1","27","R","L","U","",""
"","","","","","html-slider-response","126","368166","0.0-122.0","22zmozl08w","8","NaN","<div style=""width:500px;"">
                            <p style=""font-size:50px; font-weight:bold;""
                            >serious</p>
                            <div style=""width:240px; margin: auto;"">
                                <img src=""images/Y_D_U_23.png"" style= ""width:200px""alt=""img"">
                            </div>
                        </div>","163","","0","images/Y_D_U_23.png","","","","serious","1","23","Y","D","U","",""
"","","","","","html-slider-response","127","369699","0.0-123.0","22zmozl08w","8","NaN","<div style=""width:500px;"">
                            <p style=""font-size:50px; font-weight:bold;""
                            >serious</p>
                            <div style=""width:240px; margin: auto;"">
                                <img src=""images/B_L_U_05.png"" style= ""width:200px""alt=""img"">
                            </div>
                        </div>","-52","","0","images/B_L_U_05.png","","","","serious","1","05","B","L","U","",""
"","","","","","html-slider-response","128","371509","0.0-124.0","22zmozl08w","8","NaN","<div style=""width:500px;"">
                            <p style=""font-size:50px; font-weight:bold;""
                            >serious</p>
                            <div style=""width:240px; margin: auto;"">
                                <img src=""images/R_D_U_30.png"" style= ""width:200px""alt=""img"">
                            </div>
                        </div>","90","","0","images/R_D_U_30.png","","","","serious","2","30","R","D","U","",""
"","","","","","html-slider-response","129","372667","0.0-125.0","22zmozl08w","8","NaN","<div style=""width:500px;"">
                            <p style=""font-size:50px; font-weight:bold;""
                            >serious</p>
                            <div style=""width:240px; margin: auto;"">
                                <img src=""images/Y_D_S_15.png"" style= ""width:200px""alt=""img"">
                            </div>
                        </div>","90","","0","images/Y_D_S_15.png","","","","serious","1","15","Y","D","S","",""
"","","","","","html-slider-response","130","373576","0.0-126.0","22zmozl08w","8","NaN","<div style=""width:500px;"">
                            <p style=""font-size:50px; font-weight:bold;""
                            >serious</p>
                            <div style=""width:240px; margin: auto;"">
                                <img src=""images/G_L_U_37.png"" style= ""width:200px""alt=""img"">
                            </div>
                        </div>","90","","0","images/G_L_U_37.png","","","","serious","1","37","G","L","U","",""
"","","","","","html-slider-response","131","375532","0.0-127.0","22zmozl08w","8","NaN","<div style=""width:500px;"">
                            <p style=""font-size:50px; font-weight:bold;""
                            >serious</p>
                            <div style=""width:240px; margin: auto;"">
                                <img src=""images/R_D_S_28.png"" style= ""width:200px""alt=""img"">
                            </div>
                        </div>","86","","0","images/R_D_S_28.png","","","","serious","2","28","R","D","S","",""
"","","","","","html-slider-response","132","376735","0.0-128.0","22zmozl08w","8","NaN","<div style=""width:500px;"">
                            <p style=""font-size:50px; font-weight:bold;""
                            >serious</p>
                            <div style=""width:240px; margin: auto;"">
                                <img src=""images/G_D_U_44.png"" style= ""width:200px""alt=""img"">
                            </div>
                        </div>","83","","0","images/G_D_U_44.png","","","","serious","1","44","G","D","U","",""
"","","","","","html-slider-response","133","378723","0.0-129.0","22zmozl08w","8","NaN","<div style=""width:500px;"">
                            <p style=""font-size:50px; font-weight:bold;""
                            >serious</p>
                            <div style=""width:240px; margin: auto;"">
                                <img src=""images/Y_L_S_12.png"" style= ""width:200px""alt=""img"">
                            </div>
                        </div>","-13","","0","images/Y_L_S_12.png","","","","serious","2","12","Y","L","S","",""
"","","","","","html-slider-response","134","380068","0.0-130.0","22zmozl08w","8","NaN","<div style=""width:500px;"">
                            <p style=""font-size:50px; font-weight:bold;""
                            >serious</p>
                            <div style=""width:240px; margin: auto;"">
                                <img src=""images/B_D_U_10.png"" style= ""width:200px""alt=""img"">
                            </div>
                        </div>","98","","0","images/B_D_U_10.png","","","","serious","1","10","B","D","U","",""
"","","","","","html-slider-response","135","382233","0.0-131.0","22zmozl08w","8","NaN","<div style=""width:500px;"">
                            <p style=""font-size:50px; font-weight:bold;""
                            >serious</p>
                            <div style=""width:240px; margin: auto;"">
                                <img src=""images/Y_L_S_12.png"" style= ""width:200px""alt=""img"">
                            </div>
                        </div>","-51","","0","images/Y_L_S_12.png","","","","serious","1","12","Y","L","S","",""
"","","","","","html-slider-response","136","383975","0.0-132.0","22zmozl08w","8","NaN","<div style=""width:500px;"">
                            <p style=""font-size:50px; font-weight:bold;""
                            >serious</p>
                            <div style=""width:240px; margin: auto;"">
                                <img src=""images/Y_L_U_13.png"" style= ""width:200px""alt=""img"">
                            </div>
                        </div>","-30","","0","images/Y_L_U_13.png","","","","serious","1","13","Y","L","U","",""
"","","","","","html-slider-response","137","385485","0.0-133.0","22zmozl08w","8","NaN","<div style=""width:500px;"">
                            <p style=""font-size:50px; font-weight:bold;""
                            >serious</p>
                            <div style=""width:240px; margin: auto;"">
                                <img src=""images/G_D_U_44.png"" style= ""width:200px""alt=""img"">
                            </div>
                        </div>","105","","0","images/G_D_U_44.png","","","","serious","2","44","G","D","U","",""
"","","","","","html-slider-response","138","386591","0.0-134.0","22zmozl08w","8","NaN","<div style=""width:500px;"">
                            <p style=""font-size:50px; font-weight:bold;""
                            >serious</p>
                            <div style=""width:240px; margin: auto;"">
                                <img src=""images/Y_D_U_23.png"" style= ""width:200px""alt=""img"">
                            </div>
                        </div>","106","","0","images/Y_D_U_23.png","","","","serious","2","23","Y","D","U","",""
"","","","","","html-slider-response","139","388297","0.0-135.0","22zmozl08w","8","NaN","<div style=""width:500px;"">
                            <p style=""font-size:50px; font-weight:bold;""
                            >serious</p>
                            <div style=""width:240px; margin: auto;"">
                                <img src=""images/B_L_U_05.png"" style= ""width:200px""alt=""img"">
                            </div>
                        </div>","-42","","0","images/B_L_U_05.png","","","","serious","2","05","B","L","U","",""
"","","","","","html-slider-response","140","390286","0.0-136.0","22zmozl08w","8","NaN","<div style=""width:500px;"">
                            <p style=""font-size:50px; font-weight:bold;""
                            >serious</p>
                            <div style=""width:240px; margin: auto;"">
                                <img src=""images/R_D_U_30.png"" style= ""width:200px""alt=""img"">
                            </div>
                        </div>","20","","0","images/R_D_U_30.png","","","","serious","1","30","R","D","U","",""
"","","","","","html-slider-response","141","392243","0.0-137.0","22zmozl08w","8","NaN","<div style=""width:500px;"">
                            <p style=""font-size:50px; font-weight:bold;""
                            >serious</p>
                            <div style=""width:240px; margin: auto;"">
                                <img src=""images/B_D_S_07.png"" style= ""width:200px""alt=""img"">
                            </div>
                        </div>","57","","0","images/B_D_S_07.png","","","","serious","2","07","B","D","S","",""
"","","","","","html-slider-response","142","393820","0.0-138.0","22zmozl08w","8","NaN","<div style=""width:500px;"">
                            <p style=""font-size:50px; font-weight:bold;""
                            >serious</p>
                            <div style=""width:240px; margin: auto;"">
                                <img src=""images/R_L_S_26.png"" style= ""width:200px""alt=""img"">
                            </div>
                        </div>","-67","","0","images/R_L_S_26.png","","","","serious","1","26","R","L","S","",""
"","","","","","html-slider-response","143","395636","0.0-139.0","22zmozl08w","8","NaN","<div style=""width:500px;"">
                            <p style=""font-size:50px; font-weight:bold;""
                            >serious</p>
                            <div style=""width:240px; margin: auto;"">
                                <img src=""images/B_L_S_02.png"" style= ""width:200px""alt=""img"">
                            </div>
                        </div>","-52","","0","images/B_L_S_02.png","","","","serious","2","02","B","L","S","",""
"","","","","","html-slider-response","144","397099","0.0-140.0","22zmozl08w","8","NaN","<div style=""width:500px;"">
                            <p style=""font-size:50px; font-weight:bold;""
                            >serious</p>
                            <div style=""width:240px; margin: auto;"">
                                <img src=""images/B_D_S_07.png"" style= ""width:200px""alt=""img"">
                            </div>
                        </div>","-87","","0","images/B_D_S_07.png","","","","serious","1","07","B","D","S","",""
"","","","","","html-slider-response","145","398305","0.0-141.0","22zmozl08w","8","NaN","<div style=""width:500px;"">
                            <p style=""font-size:50px; font-weight:bold;""
                            >serious</p>
                            <div style=""width:240px; margin: auto;"">
                                <img src=""images/R_L_S_26.png"" style= ""width:200px""alt=""img"">
                            </div>
                        </div>","-84","","0","images/R_L_S_26.png","","","","serious","2","26","R","L","S","",""
"","","","","","html-slider-response","146","400606","0.0-142.0","22zmozl08w","8","NaN","<div style=""width:500px;"">
                            <p style=""font-size:50px; font-weight:bold;""
                            >serious</p>
                            <div style=""width:240px; margin: auto;"">
                                <img src=""images/Y_D_S_15.png"" style= ""width:200px""alt=""img"">
                            </div>
                        </div>","72","","0","images/Y_D_S_15.png","","","","serious","2","15","Y","D","S","",""
"","","","","","html-slider-response","147","402299","0.0-143.0","22zmozl08w","8","NaN","<div style=""width:500px;"">
                            <p style=""font-size:50px; font-weight:bold;""
                            >serious</p>
                            <div style=""width:240px; margin: auto;"">
                                <img src=""images/B_D_U_10.png"" style= ""width:200px""alt=""img"">
                            </div>
                        </div>","126","","0","images/B_D_U_10.png","","","","serious","2","10","B","D","U","",""
"","","","","","html-slider-response","148","403769","0.0-144.0","22zmozl08w","8","NaN","<div style=""width:500px;"">
                            <p style=""font-size:50px; font-weight:bold;""
                            >serious</p>
                            <div style=""width:240px; margin: auto;"">
                                <img src=""images/R_L_U_27.png"" style= ""width:200px""alt=""img"">
                            </div>
                        </div>","-56","","0","images/R_L_U_27.png","","","","serious","2","27","R","L","U","",""
"","","","","","html-slider-response","149","405184","0.0-145.0","22zmozl08w","8","NaN","<div style=""width:500px;"">
                            <p style=""font-size:50px; font-weight:bold;""
                            >serious</p>
                            <div style=""width:240px; margin: auto;"">
                                <img src=""images/R_D_S_28.png"" style= ""width:200px""alt=""img"">
                            </div>
                        </div>","-49","","0","images/R_D_S_28.png","","","","serious","1","28","R","D","S","",""
"","","","","","html-slider-response","150","406668","0.0-146.0","22zmozl08w","8","NaN","<div style=""width:500px;"">
                            <p style=""font-size:50px; font-weight:bold;""
                            >serious</p>
                            <div style=""width:240px; margin: auto;"">
                                <img src=""images/G_L_U_37.png"" style= ""width:200px""alt=""img"">
                            </div>
                        </div>","-64","","0","images/G_L_U_37.png","","","","serious","2","37","G","L","U","",""
"","","","","","html-slider-response","151","408597","0.0-147.0","22zmozl08w","8","NaN","<div style=""width:500px;"">
                            <p style=""font-size:50px; font-weight:bold;""
                            >serious</p>
                            <div style=""width:240px; margin: auto;"">
                                <img src=""images/G_D_S_41.png"" style= ""width:200px""alt=""img"">
                            </div>
                        </div>","86","","0","images/G_D_S_41.png","","","","serious","2","41","G","D","S","",""
"","","","","","html-button-response","152","410057","0.0-148.0","22zmozl08w","8","944","<p>Great Job! You've finished block 4.<br></br> You have 4 block(s) left to go.<br></br></p>","0","","","","","","","","","","","","","",""
"","","","","","html-button-response","153","410924","0.0-149.0","22zmozl08w","8","866","<p>In this block of trials, you will be asked to rate how much you associate each map with:</p > <p style = 'font-size:150%; font-weight: bold'>playful</p><br></br>","0","","","","","","","","","","","","","",""
"","","","","","html-slider-response","154","470283","0.0-150.0","22zmozl08w","8","NaN","<div style=""width:500px;"">
                            <p style=""font-size:50px; font-weight:bold;""
                            >playful</p>
                            <div style=""width:240px; margin: auto;"">
                                <img src=""images/R_D_U_30.png"" style= ""width:200px""alt=""img"">
                            </div>
                        </div>","-78","","0","images/R_D_U_30.png","","","","playful","2","30","R","D","U","",""
"","","","","","html-slider-response","155","472595","0.0-151.0","22zmozl08w","8","NaN","<div style=""width:500px;"">
                            <p style=""font-size:50px; font-weight:bold;""
                            >playful</p>
                            <div style=""width:240px; margin: auto;"">
                                <img src=""images/B_L_U_05.png"" style= ""width:200px""alt=""img"">
                            </div>
                        </div>","136","","0","images/B_L_U_05.png","","","","playful","2","05","B","L","U","",""
"","","","","","html-slider-response","156","474442","0.0-152.0","22zmozl08w","8","NaN","<div style=""width:500px;"">
                            <p style=""font-size:50px; font-weight:bold;""
                            >playful</p>
                            <div style=""width:240px; margin: auto;"">
                                <img src=""images/G_D_S_41.png"" style= ""width:200px""alt=""img"">
                            </div>
                        </div>","-178","","0","images/G_D_S_41.png","","","","playful","2","41","G","D","S","",""
"","","","","","html-slider-response","157","476156","0.0-153.0","22zmozl08w","8","NaN","<div style=""width:500px;"">
                            <p style=""font-size:50px; font-weight:bold;""
                            >playful</p>
                            <div style=""width:240px; margin: auto;"">
                                <img src=""images/B_L_U_05.png"" style= ""width:200px""alt=""img"">
                            </div>
                        </div>","150","","0","images/B_L_U_05.png","","","","playful","1","05","B","L","U","",""
"","","","","","html-slider-response","158","477253","0.0-154.0","22zmozl08w","8","NaN","<div style=""width:500px;"">
                            <p style=""font-size:50px; font-weight:bold;""
                            >playful</p>
                            <div style=""width:240px; margin: auto;"">
                                <img src=""images/B_L_S_02.png"" style= ""width:200px""alt=""img"">
                            </div>
                        </div>","150","","0","images/B_L_S_02.png","","","","playful","2","02","B","L","S","",""
"","","","","","html-slider-response","159","478923","0.0-155.0","22zmozl08w","8","NaN","<div style=""width:500px;"">
                            <p style=""font-size:50px; font-weight:bold;""
                            >playful</p>
                            <div style=""width:240px; margin: auto;"">
                                <img src=""images/G_D_U_44.png"" style= ""width:200px""alt=""img"">
                            </div>
                        </div>","-142","","0","images/G_D_U_44.png","","","","playful","1","44","G","D","U","",""
"","","","","","html-slider-response","160","480707","0.0-156.0","22zmozl08w","8","NaN","<div style=""width:500px;"">
                            <p style=""font-size:50px; font-weight:bold;""
                            >playful</p>
                            <div style=""width:240px; margin: auto;"">
                                <img src=""images/Y_L_S_12.png"" style= ""width:200px""alt=""img"">
                            </div>
                        </div>","-178","","0","images/Y_L_S_12.png","","","","playful","1","12","Y","L","S","",""
"","","","","","html-slider-response","161","482456","0.0-157.0","22zmozl08w","8","NaN","<div style=""width:500px;"">
                            <p style=""font-size:50px; font-weight:bold;""
                            >playful</p>
                            <div style=""width:240px; margin: auto;"">
                                <img src=""images/B_L_S_02.png"" style= ""width:200px""alt=""img"">
                            </div>
                        </div>","157","","0","images/B_L_S_02.png","","","","playful","1","02","B","L","S","",""
"","","","","","html-slider-response","162","483975","0.0-158.0","22zmozl08w","8","NaN","<div style=""width:500px;"">
                            <p style=""font-size:50px; font-weight:bold;""
                            >playful</p>
                            <div style=""width:240px; margin: auto;"">
                                <img src=""images/R_D_S_28.png"" style= ""width:200px""alt=""img"">
                            </div>
                        </div>","157","","0","images/R_D_S_28.png","","","","playful","2","28","R","D","S","",""
"","","","","","html-slider-response","163","486619","0.0-159.0","22zmozl08w","8","NaN","<div style=""width:500px;"">
                            <p style=""font-size:50px; font-weight:bold;""
                            >playful</p>
                            <div style=""width:240px; margin: auto;"">
                                <img src=""images/G_D_S_41.png"" style= ""width:200px""alt=""img"">
                            </div>
                        </div>","-154","","0","images/G_D_S_41.png","","","","playful","1","41","G","D","S","",""
"","","","","","html-slider-response","164","487743","0.0-160.0","22zmozl08w","8","NaN","<div style=""width:500px;"">
                            <p style=""font-size:50px; font-weight:bold;""
                            >playful</p>
                            <div style=""width:240px; margin: auto;"">
                                <img src=""images/B_D_S_07.png"" style= ""width:200px""alt=""img"">
                            </div>
                        </div>","115","","0","images/B_D_S_07.png","","","","playful","1","07","B","D","S","",""
"","","","","","html-slider-response","165","488990","0.0-161.0","22zmozl08w","8","NaN","<div style=""width:500px;"">
                            <p style=""font-size:50px; font-weight:bold;""
                            >playful</p>
                            <div style=""width:240px; margin: auto;"">
                                <img src=""images/R_L_U_27.png"" style= ""width:200px""alt=""img"">
                            </div>
                        </div>","115","","0","images/R_L_U_27.png","","","","playful","1","27","R","L","U","",""
"","","","","","html-slider-response","166","490531","0.0-162.0","22zmozl08w","8","NaN","<div style=""width:500px;"">
                            <p style=""font-size:50px; font-weight:bold;""
                            >playful</p>
                            <div style=""width:240px; margin: auto;"">
                                <img src=""images/Y_L_U_13.png"" style= ""width:200px""alt=""img"">
                            </div>
                        </div>","-104","","0","images/Y_L_U_13.png","","","","playful","2","13","Y","L","U","",""
"","","","","","html-slider-response","167","491469","0.0-163.0","22zmozl08w","8","NaN","<div style=""width:500px;"">
                            <p style=""font-size:50px; font-weight:bold;""
                            >playful</p>
                            <div style=""width:240px; margin: auto;"">
                                <img src=""images/R_D_U_30.png"" style= ""width:200px""alt=""img"">
                            </div>
                        </div>","118","","0","images/R_D_U_30.png","","","","playful","1","30","R","D","U","",""
"","","","","","html-slider-response","168","492184","0.0-164.0","22zmozl08w","8","NaN","<div style=""width:500px;"">
                            <p style=""font-size:50px; font-weight:bold;""
                            >playful</p>
                            <div style=""width:240px; margin: auto;"">
                                <img src=""images/R_L_S_26.png"" style= ""width:200px""alt=""img"">
                            </div>
                        </div>","-66","","0","images/R_L_S_26.png","","","","playful","2","26","R","L","S","",""
"","","","","","html-slider-response","169","493024","0.0-165.0","22zmozl08w","8","NaN","<div style=""width:500px;"">
                            <p style=""font-size:50px; font-weight:bold;""
                            >playful</p>
                            <div style=""width:240px; margin: auto;"">
                                <img src=""images/R_D_S_28.png"" style= ""width:200px""alt=""img"">
                            </div>
                        </div>","138","","0","images/R_D_S_28.png","","","","playful","1","28","R","D","S","",""
"","","","","","html-slider-response","170","494556","0.0-166.0","22zmozl08w","8","NaN","<div style=""width:500px;"">
                            <p style=""font-size:50px; font-weight:bold;""
                            >playful</p>
                            <div style=""width:240px; margin: auto;"">
                                <img src=""images/Y_D_U_23.png"" style= ""width:200px""alt=""img"">
                            </div>
                        </div>","-93","","0","images/Y_D_U_23.png","","","","playful","2","23","Y","D","U","",""
"","","","","","html-slider-response","171","495883","0.0-167.0","22zmozl08w","8","NaN","<div style=""width:500px;"">
                            <p style=""font-size:50px; font-weight:bold;""
                            >playful</p>
                            <div style=""width:240px; margin: auto;"">
                                <img src=""images/G_D_U_44.png"" style= ""width:200px""alt=""img"">
                            </div>
                        </div>","-90","","0","images/G_D_U_44.png","","","","playful","2","44","G","D","U","",""
"","","","","","html-slider-response","172","497839","0.0-168.0","22zmozl08w","8","NaN","<div style=""width:500px;"">
                            <p style=""font-size:50px; font-weight:bold;""
                            >playful</p>
                            <div style=""width:240px; margin: auto;"">
                                <img src=""images/G_L_U_37.png"" style= ""width:200px""alt=""img"">
                            </div>
                        </div>","47","","0","images/G_L_U_37.png","","","","playful","2","37","G","L","U","",""
"","","","","","html-slider-response","173","499524","0.0-169.0","22zmozl08w","8","NaN","<div style=""width:500px;"">
                            <p style=""font-size:50px; font-weight:bold;""
                            >playful</p>
                            <div style=""width:240px; margin: auto;"">
                                <img src=""images/Y_L_U_13.png"" style= ""width:200px""alt=""img"">
                            </div>
                        </div>","-169","","0","images/Y_L_U_13.png","","","","playful","1","13","Y","L","U","",""
"","","","","","html-slider-response","174","501030","0.0-170.0","22zmozl08w","8","NaN","<div style=""width:500px;"">
                            <p style=""font-size:50px; font-weight:bold;""
                            >playful</p>
                            <div style=""width:240px; margin: auto;"">
                                <img src=""images/Y_D_U_23.png"" style= ""width:200px""alt=""img"">
                            </div>
                        </div>","-142","","0","images/Y_D_U_23.png","","","","playful","1","23","Y","D","U","",""
"","","","","","html-slider-response","175","502660","0.0-171.0","22zmozl08w","8","NaN","<div style=""width:500px;"">
                            <p style=""font-size:50px; font-weight:bold;""
                            >playful</p>
                            <div style=""width:240px; margin: auto;"">
                                <img src=""images/G_L_S_33.png"" style= ""width:200px""alt=""img"">
                            </div>
                        </div>","86","","0","images/G_L_S_33.png","","","","playful","1","33","G","L","S","",""
"","","","","","html-slider-response","176","504207","0.0-172.0","22zmozl08w","8","NaN","<div style=""width:500px;"">
                            <p style=""font-size:50px; font-weight:bold;""
                            >playful</p>
                            <div style=""width:240px; margin: auto;"">
                                <img src=""images/R_L_U_27.png"" style= ""width:200px""alt=""img"">
                            </div>
                        </div>","150","","0","images/R_L_U_27.png","","","","playful","2","27","R","L","U","",""
"","","","","","html-slider-response","177","505386","0.0-173.0","22zmozl08w","8","NaN","<div style=""width:500px;"">
                            <p style=""font-size:50px; font-weight:bold;""
                            >playful</p>
                            <div style=""width:240px; margin: auto;"">
                                <img src=""images/G_L_S_33.png"" style= ""width:200px""alt=""img"">
                            </div>
                        </div>","150","","0","images/G_L_S_33.png","","","","playful","2","33","G","L","S","",""
"","","","","","html-slider-response","178","506684","0.0-174.0","22zmozl08w","8","NaN","<div style=""width:500px;"">
                            <p style=""font-size:50px; font-weight:bold;""
                            >playful</p>
                            <div style=""width:240px; margin: auto;"">
                                <img src=""images/B_D_S_07.png"" style= ""width:200px""alt=""img"">
                            </div>
                        </div>","150","","0","images/B_D_S_07.png","","","","playful","2","07","B","D","S","",""
"","","","","","html-slider-response","179","508731","0.0-175.0","22zmozl08w","8","NaN","<div style=""width:500px;"">
                            <p style=""font-size:50px; font-weight:bold;""
                            >playful</p>
                            <div style=""width:240px; margin: auto;"">
                                <img src=""images/B_D_U_10.png"" style= ""width:200px""alt=""img"">
                            </div>
                        </div>","13","","0","images/B_D_U_10.png","","","","playful","1","10","B","D","U","",""
"","","","","","html-slider-response","180","510618","0.0-176.0","22zmozl08w","8","NaN","<div style=""width:500px;"">
                            <p style=""font-size:50px; font-weight:bold;""
                            >playful</p>
                            <div style=""width:240px; margin: auto;"">
                                <img src=""images/G_L_U_37.png"" style= ""width:200px""alt=""img"">
                            </div>
                        </div>","122","","0","images/G_L_U_37.png","","","","playful","1","37","G","L","U","",""
"","","","","","html-slider-response","181","512234","0.0-177.0","22zmozl08w","8","NaN","<div style=""width:500px;"">
                            <p style=""font-size:50px; font-weight:bold;""
                            >playful</p>
                            <div style=""width:240px; margin: auto;"">
                                <img src=""images/B_D_U_10.png"" style= ""width:200px""alt=""img"">
                            </div>
                        </div>","22","","0","images/B_D_U_10.png","","","","playful","2","10","B","D","U","",""
"","","","","","html-slider-response","182","513465","0.0-178.0","22zmozl08w","8","NaN","<div style=""width:500px;"">
                            <p style=""font-size:50px; font-weight:bold;""
                            >playful</p>
                            <div style=""width:240px; margin: auto;"">
                                <img src=""images/R_L_S_26.png"" style= ""width:200px""alt=""img"">
                            </div>
                        </div>","131","","0","images/R_L_S_26.png","","","","playful","1","26","R","L","S","",""
"","","","","","html-slider-response","183","515301","0.0-179.0","22zmozl08w","8","NaN","<div style=""width:500px;"">
                            <p style=""font-size:50px; font-weight:bold;""
                            >playful</p>
                            <div style=""width:240px; margin: auto;"">
                                <img src=""images/Y_D_S_15.png"" style= ""width:200px""alt=""img"">
                            </div>
                        </div>","-190","","0","images/Y_D_S_15.png","","","","playful","1","15","Y","D","S","",""
"","","","","","html-slider-response","184","517618","0.0-180.0","22zmozl08w","8","NaN","<div style=""width:500px;"">
                            <p style=""font-size:50px; font-weight:bold;""
                            >playful</p>
                            <div style=""width:240px; margin: auto;"">
                                <img src=""images/Y_D_S_15.png"" style= ""width:200px""alt=""img"">
                            </div>
                        </div>","-190","","0","images/Y_D_S_15.png","","","","playful","2","15","Y","D","S","",""
