"success","timeout","failed_images","failed_audio","failed_video","trial_type","trial_index","time_elapsed","internal_node_id","subject_id","condition_num","rt","stimulus","response","question_order","slider_start","image_path","practiceTrial","practiceTrialNum","correct","concept","repetition","map_id","hue","lightness","saturation","ishihara_plate","correct_response"
"true","false","[]","[]","[]","preload","0","375","0.0-0.0","3ewmqxnuu6","3","","","","","","","","","","","","","","","","",""
"","","","","","html-button-response","1","1439","0.0-1.0","3ewmqxnuu6","3","1062","Welcome to our experiment!<p>At the bottom of this screen, you will see a button that says ""Begin Experiment"".<br>Please only click that button when you are ready to complete the 25 minute experiment in one sitting.</p><p> Once you click that button, it will not be possible to restart the experiment.","0","","","","","","","","","","","","","",""
"true","","","","","fullscreen","2","6141","0.0-2.0","3ewmqxnuu6","3","3698","","","","","","","","","","","","","","","",""
"","","","","","survey-multi-select","3","15043","0.0-3.0","3ewmqxnuu6","3","8898","","{""Consent"":[""<strong>I consent</strong>""]}","[0]","","","","","","","","","","","","",""
"","","","","","html-button-response","4","17105","0.0-4.0","3ewmqxnuu6","3","2059","Welcome! <p> This experiment involves two parts: demographic information, followed by the experimental task.<p> It will take about 25 minutes to complete both parts.","0","","","","","","","","","","","","","",""
"","","","","","survey-text","5","31675","0.0-5.0","3ewmqxnuu6","3","14554","","{""Age"":""18"",""Gender"":""male"",""Race/ethnicity"":""asian"",""Languages"":""English, tele, Spanish""}","","","","","","","","","","","","","",""
"","","","","","html-slider-response","6","44788","0.0-6.0","3ewmqxnuu6","3","13111","
                            <div style='text-align:left; font-size:20px; line-height:25px; width: 1400px;'>
                                During this experiment you will be asked to rate how much you associate maps with                    different concepts.<br> Below, you can see some examples of the maps you will be asked to rate. Next to the maps
                    is the list of concepts.<br>You will be asked                    to rate how much you associate each map with each concept on a scale from 'not at all' to 'very much' like the
                    one below. <br><br>
                    Now, please look at the list of concepts and maps. For each concept, think about the map you associate 'very
                    much' with the concept.<br>                     When you see that map during the experiment, please rate it near the 'very much' endpoint of the
                    scale.<br>Now, please think about which map you associate 'not at all'                     with each concept. When you see that map during the experiment, please rate it near the 'not at all' endpoint
                    of the scale.<br>
                    Please use the full range of the scale. That is, if a map is somewhat associated with the concept, you would
                    click partway between the middle point and right side of the scale.                    You will be asked to rate each map for a given concept before moving on to the next concept.<br><br>Press the
                    'Continue' button for instructions on how to use the slider.                    <br><br>
                </div>

                <div style=""width: 500px; margin: 0 auto;"">
                    <!-- Centered text paragraphs -->
                    <div style=""text-align: center; width: 500px;"">
                        <p style=""font-size:25px; line-height:18px;"">calm</p>
                        <p style=""font-size:25px; line-height:18px;"">exciting</p>
                        <p style=""font-size:25px;line-height:18px;"">positive</p>
                        <p style=""font-size:25px;line-height:18px;"">negative</p>
                        <p style=""font-size:25px;line-height:18px;"">serious</p>
                        <p style=""font-size:25px;line-height:18px;"">playful</p>
                        <p style=""font-size:25px;line-height:18px;"">trustworthy</p>
                        <p style=""font-size:25px;line-height:18px;"">disturbing</p>
                    </div>

                    <!-- Grid section -->
                   <div style=""display: flex; justify-content: center; padding-top: 15px;"">
                    <div style=""display: grid; grid-template-columns: repeat(8, 80px); grid-gap: 5px; width: auto;"">
                        <img src=""images/Y_D_U_07.png"" alt=""map"" style=""width: 100%;""><img src=""images/G_L_S_23.png"" alt=""map"" style=""width: 100%;""><img src=""images/Y_L_U_02.png"" alt=""map"" style=""width: 100%;""><img src=""images/Y_D_S_05.png"" alt=""map"" style=""width: 100%;""><img src=""images/G_D_S_27.png"" alt=""map"" style=""width: 100%;""><img src=""images/B_D_S_37.png"" alt=""map"" style=""width: 100%;""><img src=""images/R_D_U_15.png"" alt=""map"" style=""width: 100%;""><img src=""images/G_L_U_26.png"" alt=""map"" style=""width: 100%;""><img src=""images/B_L_S_30.png"" alt=""map"" style=""width: 100%;""><img src=""images/G_D_U_28.png"" alt=""map"" style=""width: 100%;""><img src=""images/B_L_U_33.png"" alt=""map"" style=""width: 100%;""><img src=""images/R_L_U_12.png"" alt=""map"" style=""width: 100%;""><img src=""images/R_D_S_13.png"" alt=""map"" style=""width: 100%;""><img src=""images/B_D_U_41.png"" alt=""map"" style=""width: 100%;""><img src=""images/R_L_S_10.png"" alt=""map"" style=""width: 100%;""><img src=""images/Y_L_S_44.png"" alt=""map"" style=""width: 100%;"">
                    </div>
                </div>

                    <!-- Clear floats -->
                    <div style=""clear: both;""></div>
                </div>
                            ","123","","0","maps_anchoring.png","true","","","","","","","","","",""
"","","","","","html-button-response","7","46038","0.0-7.0","3ewmqxnuu6","3","1248","<div style=""width:800px;""><p style=""text-align:left"">To move the slider, click and drag your cursor to the location of the scale where you would like to make your rating and then let go. When you let go of the slider, your response will be recorded and the next trial will begin. <br>
                    We are interested in your initial impressions of each map for the given concept, so please go with your first intuition. <br>
                    Before you begin the experiment, there will be four training trials for you to practice using the scale. <br>
                     When you are ready to start the training trials, please click ""Continue"".</p><br></div>","0","","","","","","","","","","","","","",""
"","","","","","html-slider-response","8","50684","0.0-8.0-0.0","3ewmqxnuu6","3","NaN","<div style=""width:500px;"">
                                    <p style=""font-size:25px;"">Please move the slider all the way to the <br> right endpoint of the scale</p>

                                    </div>
                                </div>","200","","0","","true","0","true","","","","","","","",""
"","","","","","html-button-response","9","52139","0.0-8.0-1.0","3ewmqxnuu6","3","952","<p align='center'><b>Good job!</b> Click on 'Continue' to proceed.</p>","0","","","","","","","","","","","","","",""
"","","","","","html-slider-response","10","53432","0.0-9.0-0.0","3ewmqxnuu6","3","NaN","<div style=""width:500px;"">
                                    <p style=""font-size:25px;"">Please move the slider all the way to the <br> left endpoint of the scale</p>

                                    </div>
                                </div>","-200","","0","","true","1","true","","","","","","","",""
"","","","","","html-button-response","11","55172","0.0-9.0-1.0","3ewmqxnuu6","3","1238","<p align='center'><b>Good job!</b> Click on 'Continue' to proceed.</p>","0","","","","","","","","","","","","","",""
"","","","","","html-slider-response","12","59300","0.0-10.0-0.0","3ewmqxnuu6","3","NaN","<div style=""width:500px;"">
                                    <p style=""font-size:25px;"">Please move the slider halfway between the center and right endpoint of the scale</p>

                                    </div>
                                </div>","87","","0","","true","2","true","","","","","","","",""
"","","","","","html-button-response","13","60405","0.0-10.0-1.0","3ewmqxnuu6","3","603","<p align='center'><b>Good job!</b> Click on 'Continue' to proceed.</p>","0","","","","","","","","","","","","","",""
"","","","","","html-slider-response","14","62568","0.0-11.0-0.0","3ewmqxnuu6","3","NaN","<div style=""width:500px;"">
                                    <p style=""font-size:25px;"">Please move the slider halfway between the center and left endpoint of the scale</p>

                                    </div>
                                </div>","-110","","0","","true","3","true","","","","","","","",""
"","","","","","html-button-response","15","63721","0.0-11.0-1.0","3ewmqxnuu6","3","652","<p align='center'><b>Good job!</b> Click on 'Continue' to proceed.</p>","0","","","","","","","","","","","","","",""
"","","","","","html-button-response","16","64588","0.0-12.0","3ewmqxnuu6","3","866","<p>Great job! You've completed the practice trials. Now you will begin the main task.</p>","0","","","","","","","","","","","","","",""
"","","","","","html-button-response","17","66673","0.0-13.0","3ewmqxnuu6","3","2083","<p>In this block of trials, you will be asked to rate how much you associate each map with:</p > <p style = 'font-size:150%; font-weight: bold'>exciting</p><br></br>","0","","","","","","","","","","","","","",""
"","","","","","html-slider-response","18","68382","0.0-14.0","3ewmqxnuu6","3","NaN","<div style=""width:500px;"">
                            <p style=""font-size:50px; font-weight:bold;""
                            >exciting</p>
                            <div style=""width:240px; margin: auto;"">
                                <img src=""images/R_L_S_10.png"" style= ""width:200px""alt=""img"">
                            </div>
                        </div>","110","","0","images/R_L_S_10.png","","","","exciting","1","10","R","L","S","",""
"","","","","","html-slider-response","19","70350","0.0-15.0","3ewmqxnuu6","3","NaN","<div style=""width:500px;"">
                            <p style=""font-size:50px; font-weight:bold;""
                            >exciting</p>
                            <div style=""width:240px; margin: auto;"">
                                <img src=""images/Y_D_U_07.png"" style= ""width:200px""alt=""img"">
                            </div>
                        </div>","-103","","0","images/Y_D_U_07.png","","","","exciting","2","07","Y","D","U","",""
"","","","","","html-slider-response","20","72465","0.0-16.0","3ewmqxnuu6","3","NaN","<div style=""width:500px;"">
                            <p style=""font-size:50px; font-weight:bold;""
                            >exciting</p>
                            <div style=""width:240px; margin: auto;"">
                                <img src=""images/R_D_U_15.png"" style= ""width:200px""alt=""img"">
                            </div>
                        </div>","-48","","0","images/R_D_U_15.png","","","","exciting","2","15","R","D","U","",""
"","","","","","html-slider-response","21","74434","0.0-17.0","3ewmqxnuu6","3","NaN","<div style=""width:500px;"">
                            <p style=""font-size:50px; font-weight:bold;""
                            >exciting</p>
                            <div style=""width:240px; margin: auto;"">
                                <img src=""images/Y_D_S_05.png"" style= ""width:200px""alt=""img"">
                            </div>
                        </div>","-186","","0","images/Y_D_S_05.png","","","","exciting","2","05","Y","D","S","",""
"","","","","","html-slider-response","22","76183","0.0-18.0","3ewmqxnuu6","3","NaN","<div style=""width:500px;"">
                            <p style=""font-size:50px; font-weight:bold;""
                            >exciting</p>
                            <div style=""width:240px; margin: auto;"">
                                <img src=""images/Y_L_S_44.png"" style= ""width:200px""alt=""img"">
                            </div>
                        </div>","91","","0","images/Y_L_S_44.png","","","","exciting","1","44","Y","L","S","",""
"","","","","","html-slider-response","23","77851","0.0-19.0","3ewmqxnuu6","3","NaN","<div style=""width:500px;"">
                            <p style=""font-size:50px; font-weight:bold;""
                            >exciting</p>
                            <div style=""width:240px; margin: auto;"">
                                <img src=""images/B_D_U_41.png"" style= ""width:200px""alt=""img"">
                            </div>
                        </div>","147","","0","images/B_D_U_41.png","","","","exciting","1","41","B","D","U","",""
"","","","","","html-slider-response","24","79534","0.0-20.0","3ewmqxnuu6","3","NaN","<div style=""width:500px;"">
                            <p style=""font-size:50px; font-weight:bold;""
                            >exciting</p>
                            <div style=""width:240px; margin: auto;"">
                                <img src=""images/G_L_S_23.png"" style= ""width:200px""alt=""img"">
                            </div>
                        </div>","200","","0","images/G_L_S_23.png","","","","exciting","2","23","G","L","S","",""
"","","","","","html-slider-response","25","81168","0.0-21.0","3ewmqxnuu6","3","NaN","<div style=""width:500px;"">
                            <p style=""font-size:50px; font-weight:bold;""
                            >exciting</p>
                            <div style=""width:240px; margin: auto;"">
                                <img src=""images/R_L_S_10.png"" style= ""width:200px""alt=""img"">
                            </div>
                        </div>","200","","0","images/R_L_S_10.png","","","","exciting","2","10","R","L","S","",""
"","","","","","html-slider-response","26","82933","0.0-22.0","3ewmqxnuu6","3","NaN","<div style=""width:500px;"">
                            <p style=""font-size:50px; font-weight:bold;""
                            >exciting</p>
                            <div style=""width:240px; margin: auto;"">
                                <img src=""images/Y_D_S_05.png"" style= ""width:200px""alt=""img"">
                            </div>
                        </div>","-200","","0","images/Y_D_S_05.png","","","","exciting","1","05","Y","D","S","",""
"","","","","","html-slider-response","27","84617","0.0-23.0","3ewmqxnuu6","3","NaN","<div style=""width:500px;"">
                            <p style=""font-size:50px; font-weight:bold;""
                            >exciting</p>
                            <div style=""width:240px; margin: auto;"">
                                <img src=""images/B_D_S_37.png"" style= ""width:200px""alt=""img"">
                            </div>
                        </div>","138","","0","images/B_D_S_37.png","","","","exciting","1","37","B","D","S","",""
"","","","","","html-slider-response","28","86166","0.0-24.0","3ewmqxnuu6","3","NaN","<div style=""width:500px;"">
                            <p style=""font-size:50px; font-weight:bold;""
                            >exciting</p>
                            <div style=""width:240px; margin: auto;"">
                                <img src=""images/B_L_S_30.png"" style= ""width:200px""alt=""img"">
                            </div>
                        </div>","200","","0","images/B_L_S_30.png","","","","exciting","1","30","B","L","S","",""
"","","","","","html-slider-response","29","87581","0.0-25.0","3ewmqxnuu6","3","NaN","<div style=""width:500px;"">
                            <p style=""font-size:50px; font-weight:bold;""
                            >exciting</p>
                            <div style=""width:240px; margin: auto;"">
                                <img src=""images/R_D_S_13.png"" style= ""width:200px""alt=""img"">
                            </div>
                        </div>","200","","0","images/R_D_S_13.png","","","","exciting","2","13","R","D","S","",""
"","","","","","html-slider-response","30","90251","0.0-26.0","3ewmqxnuu6","3","NaN","<div style=""width:500px;"">
                            <p style=""font-size:50px; font-weight:bold;""
                            >exciting</p>
                            <div style=""width:240px; margin: auto;"">
                                <img src=""images/R_D_U_15.png"" style= ""width:200px""alt=""img"">
                            </div>
                        </div>","31","","0","images/R_D_U_15.png","","","","exciting","1","15","R","D","U","",""
"","","","","","html-slider-response","31","91499","0.0-27.0","3ewmqxnuu6","3","NaN","<div style=""width:500px;"">
                            <p style=""font-size:50px; font-weight:bold;""
                            >exciting</p>
                            <div style=""width:240px; margin: auto;"">
                                <img src=""images/R_D_S_13.png"" style= ""width:200px""alt=""img"">
                            </div>
                        </div>","200","","0","images/R_D_S_13.png","","","","exciting","1","13","R","D","S","",""
"","","","","","html-slider-response","32","92783","0.0-28.0","3ewmqxnuu6","3","NaN","<div style=""width:500px;"">
                            <p style=""font-size:50px; font-weight:bold;""
                            >exciting</p>
                            <div style=""width:240px; margin: auto;"">
                                <img src=""images/Y_L_S_44.png"" style= ""width:200px""alt=""img"">
                            </div>
                        </div>","200","","0","images/Y_L_S_44.png","","","","exciting","2","44","Y","L","S","",""
"","","","","","html-slider-response","33","94282","0.0-29.0","3ewmqxnuu6","3","NaN","<div style=""width:500px;"">
                            <p style=""font-size:50px; font-weight:bold;""
                            >exciting</p>
                            <div style=""width:240px; margin: auto;"">
                                <img src=""images/G_L_S_23.png"" style= ""width:200px""alt=""img"">
                            </div>
                        </div>","200","","0","images/G_L_S_23.png","","","","exciting","1","23","G","L","S","",""
"","","","","","html-slider-response","34","95767","0.0-30.0","3ewmqxnuu6","3","NaN","<div style=""width:500px;"">
                            <p style=""font-size:50px; font-weight:bold;""
                            >exciting</p>
                            <div style=""width:240px; margin: auto;"">
                                <img src=""images/G_D_S_27.png"" style= ""width:200px""alt=""img"">
                            </div>
                        </div>","-86","","0","images/G_D_S_27.png","","","","exciting","2","27","G","D","S","",""
"","","","","","html-slider-response","35","96966","0.0-31.0","3ewmqxnuu6","3","NaN","<div style=""width:500px;"">
                            <p style=""font-size:50px; font-weight:bold;""
                            >exciting</p>
                            <div style=""width:240px; margin: auto;"">
                                <img src=""images/G_L_U_26.png"" style= ""width:200px""alt=""img"">
                            </div>
                        </div>","200","","0","images/G_L_U_26.png","","","","exciting","2","26","G","L","U","",""
"","","","","","html-slider-response","36","98231","0.0-32.0","3ewmqxnuu6","3","NaN","<div style=""width:500px;"">
                            <p style=""font-size:50px; font-weight:bold;""
                            >exciting</p>
                            <div style=""width:240px; margin: auto;"">
                                <img src=""images/B_L_S_30.png"" style= ""width:200px""alt=""img"">
                            </div>
                        </div>","200","","0","images/B_L_S_30.png","","","","exciting","2","30","B","L","S","",""
"","","","","","html-slider-response","37","99367","0.0-33.0","3ewmqxnuu6","3","NaN","<div style=""width:500px;"">
                            <p style=""font-size:50px; font-weight:bold;""
                            >exciting</p>
                            <div style=""width:240px; margin: auto;"">
                                <img src=""images/B_L_U_33.png"" style= ""width:200px""alt=""img"">
                            </div>
                        </div>","200","","0","images/B_L_U_33.png","","","","exciting","1","33","B","L","U","",""
"","","","","","html-slider-response","38","101015","0.0-34.0","3ewmqxnuu6","3","NaN","<div style=""width:500px;"">
                            <p style=""font-size:50px; font-weight:bold;""
                            >exciting</p>
                            <div style=""width:240px; margin: auto;"">
                                <img src=""images/Y_D_U_07.png"" style= ""width:200px""alt=""img"">
                            </div>
                        </div>","-200","","0","images/Y_D_U_07.png","","","","exciting","1","07","Y","D","U","",""
"","","","","","html-slider-response","39","102882","0.0-35.0","3ewmqxnuu6","3","NaN","<div style=""width:500px;"">
                            <p style=""font-size:50px; font-weight:bold;""
                            >exciting</p>
                            <div style=""width:240px; margin: auto;"">
                                <img src=""images/B_D_U_41.png"" style= ""width:200px""alt=""img"">
                            </div>
                        </div>","107","","0","images/B_D_U_41.png","","","","exciting","2","41","B","D","U","",""
"","","","","","html-slider-response","40","104267","0.0-36.0","3ewmqxnuu6","3","NaN","<div style=""width:500px;"">
                            <p style=""font-size:50px; font-weight:bold;""
                            >exciting</p>
                            <div style=""width:240px; margin: auto;"">
                                <img src=""images/R_L_U_12.png"" style= ""width:200px""alt=""img"">
                            </div>
                        </div>","73","","0","images/R_L_U_12.png","","","","exciting","2","12","R","L","U","",""
"","","","","","html-slider-response","41","105582","0.0-37.0","3ewmqxnuu6","3","NaN","<div style=""width:500px;"">
                            <p style=""font-size:50px; font-weight:bold;""
                            >exciting</p>
                            <div style=""width:240px; margin: auto;"">
                                <img src=""images/G_D_U_28.png"" style= ""width:200px""alt=""img"">
                            </div>
                        </div>","-96","","0","images/G_D_U_28.png","","","","exciting","1","28","G","D","U","",""
"","","","","","html-slider-response","42","106833","0.0-38.0","3ewmqxnuu6","3","NaN","<div style=""width:500px;"">
                            <p style=""font-size:50px; font-weight:bold;""
                            >exciting</p>
                            <div style=""width:240px; margin: auto;"">
                                <img src=""images/B_L_U_33.png"" style= ""width:200px""alt=""img"">
                            </div>
                        </div>","145","","0","images/B_L_U_33.png","","","","exciting","2","33","B","L","U","",""
"","","","","","html-slider-response","43","109416","0.0-39.0","3ewmqxnuu6","3","NaN","<div style=""width:500px;"">
                            <p style=""font-size:50px; font-weight:bold;""
                            >exciting</p>
                            <div style=""width:240px; margin: auto;"">
                                <img src=""images/G_D_U_28.png"" style= ""width:200px""alt=""img"">
                            </div>
                        </div>","-51","","0","images/G_D_U_28.png","","","","exciting","2","28","G","D","U","",""
"","","","","","html-slider-response","44","110884","0.0-40.0","3ewmqxnuu6","3","NaN","<div style=""width:500px;"">
                            <p style=""font-size:50px; font-weight:bold;""
                            >exciting</p>
                            <div style=""width:240px; margin: auto;"">
                                <img src=""images/G_D_S_27.png"" style= ""width:200px""alt=""img"">
                            </div>
                        </div>","113","","0","images/G_D_S_27.png","","","","exciting","1","27","G","D","S","",""
"","","","","","html-slider-response","45","112184","0.0-41.0","3ewmqxnuu6","3","NaN","<div style=""width:500px;"">
                            <p style=""font-size:50px; font-weight:bold;""
                            >exciting</p>
                            <div style=""width:240px; margin: auto;"">
                                <img src=""images/R_L_U_12.png"" style= ""width:200px""alt=""img"">
                            </div>
                        </div>","200","","0","images/R_L_U_12.png","","","","exciting","1","12","R","L","U","",""
"","","","","","html-slider-response","46","113616","0.0-42.0","3ewmqxnuu6","3","NaN","<div style=""width:500px;"">
                            <p style=""font-size:50px; font-weight:bold;""
                            >exciting</p>
                            <div style=""width:240px; margin: auto;"">
                                <img src=""images/B_D_S_37.png"" style= ""width:200px""alt=""img"">
                            </div>
                        </div>","200","","0","images/B_D_S_37.png","","","","exciting","2","37","B","D","S","",""
"","","","","","html-slider-response","47","115082","0.0-43.0","3ewmqxnuu6","3","NaN","<div style=""width:500px;"">
                            <p style=""font-size:50px; font-weight:bold;""
                            >exciting</p>
                            <div style=""width:240px; margin: auto;"">
                                <img src=""images/G_L_U_26.png"" style= ""width:200px""alt=""img"">
                            </div>
                        </div>","200","","0","images/G_L_U_26.png","","","","exciting","1","26","G","L","U","",""
"","","","","","html-slider-response","48","116833","0.0-44.0","3ewmqxnuu6","3","NaN","<div style=""width:500px;"">
                            <p style=""font-size:50px; font-weight:bold;""
                            >exciting</p>
                            <div style=""width:240px; margin: auto;"">
                                <img src=""images/Y_L_U_02.png"" style= ""width:200px""alt=""img"">
                            </div>
                        </div>","-63","","0","images/Y_L_U_02.png","","","","exciting","2","02","Y","L","U","",""
"","","","","","html-slider-response","49","118131","0.0-45.0","3ewmqxnuu6","3","NaN","<div style=""width:500px;"">
                            <p style=""font-size:50px; font-weight:bold;""
                            >exciting</p>
                            <div style=""width:240px; margin: auto;"">
                                <img src=""images/Y_L_U_02.png"" style= ""width:200px""alt=""img"">
                            </div>
                        </div>","196","","0","images/Y_L_U_02.png","","","","exciting","1","02","Y","L","U","",""
"","","","","","html-button-response","50","120855","0.0-46.0","3ewmqxnuu6","3","2222","<p>Great Job! You've finished block 1.<br></br> You have 7 block(s) left to go.<br></br></p>","0","","","","","","","","","","","","","",""
"","","","","","html-button-response","51","123172","0.0-47.0","3ewmqxnuu6","3","2316","<p>In this block of trials, you will be asked to rate how much you associate each map with:</p > <p style = 'font-size:150%; font-weight: bold'>disturbing</p><br></br>","0","","","","","","","","","","","","","",""
"","","","","","html-slider-response","52","124866","0.0-48.0","3ewmqxnuu6","3","NaN","<div style=""width:500px;"">
                            <p style=""font-size:50px; font-weight:bold;""
                            >disturbing</p>
                            <div style=""width:240px; margin: auto;"">
                                <img src=""images/G_L_S_23.png"" style= ""width:200px""alt=""img"">
                            </div>
                        </div>","-200","","0","images/G_L_S_23.png","","","","disturbing","2","23","G","L","S","",""
"","","","","","html-slider-response","53","126731","0.0-49.0","3ewmqxnuu6","3","NaN","<div style=""width:500px;"">
                            <p style=""font-size:50px; font-weight:bold;""
                            >disturbing</p>
                            <div style=""width:240px; margin: auto;"">
                                <img src=""images/R_D_S_13.png"" style= ""width:200px""alt=""img"">
                            </div>
                        </div>","-200","","0","images/R_D_S_13.png","","","","disturbing","2","13","R","D","S","",""
"","","","","","html-slider-response","54","128083","0.0-50.0","3ewmqxnuu6","3","NaN","<div style=""width:500px;"">
                            <p style=""font-size:50px; font-weight:bold;""
                            >disturbing</p>
                            <div style=""width:240px; margin: auto;"">
                                <img src=""images/Y_L_U_02.png"" style= ""width:200px""alt=""img"">
                            </div>
                        </div>","-183","","0","images/Y_L_U_02.png","","","","disturbing","1","02","Y","L","U","",""
"","","","","","html-slider-response","55","129317","0.0-51.0","3ewmqxnuu6","3","NaN","<div style=""width:500px;"">
                            <p style=""font-size:50px; font-weight:bold;""
                            >disturbing</p>
                            <div style=""width:240px; margin: auto;"">
                                <img src=""images/B_L_S_30.png"" style= ""width:200px""alt=""img"">
                            </div>
                        </div>","-184","","0","images/B_L_S_30.png","","","","disturbing","1","30","B","L","S","",""
"","","","","","html-slider-response","56","130515","0.0-52.0","3ewmqxnuu6","3","NaN","<div style=""width:500px;"">
                            <p style=""font-size:50px; font-weight:bold;""
                            >disturbing</p>
                            <div style=""width:240px; margin: auto;"">
                                <img src=""images/G_D_S_27.png"" style= ""width:200px""alt=""img"">
                            </div>
                        </div>","-130","","0","images/G_D_S_27.png","","","","disturbing","1","27","G","D","S","",""
"","","","","","html-slider-response","57","131898","0.0-53.0","3ewmqxnuu6","3","NaN","<div style=""width:500px;"">
                            <p style=""font-size:50px; font-weight:bold;""
                            >disturbing</p>
                            <div style=""width:240px; margin: auto;"">
                                <img src=""images/R_D_U_15.png"" style= ""width:200px""alt=""img"">
                            </div>
                        </div>","-82","","0","images/R_D_U_15.png","","","","disturbing","1","15","R","D","U","",""
"","","","","","html-slider-response","58","133916","0.0-54.0","3ewmqxnuu6","3","NaN","<div style=""width:500px;"">
                            <p style=""font-size:50px; font-weight:bold;""
                            >disturbing</p>
                            <div style=""width:240px; margin: auto;"">
                                <img src=""images/Y_D_U_07.png"" style= ""width:200px""alt=""img"">
                            </div>
                        </div>","92","","0","images/Y_D_U_07.png","","","","disturbing","2","07","Y","D","U","",""
"","","","","","html-slider-response","59","135449","0.0-55.0","3ewmqxnuu6","3","NaN","<div style=""width:500px;"">
                            <p style=""font-size:50px; font-weight:bold;""
                            >disturbing</p>
                            <div style=""width:240px; margin: auto;"">
                                <img src=""images/G_D_U_28.png"" style= ""width:200px""alt=""img"">
                            </div>
                        </div>","-86","","0","images/G_D_U_28.png","","","","disturbing","2","28","G","D","U","",""
"","","","","","html-slider-response","60","136516","0.0-56.0","3ewmqxnuu6","3","NaN","<div style=""width:500px;"">
                            <p style=""font-size:50px; font-weight:bold;""
                            >disturbing</p>
                            <div style=""width:240px; margin: auto;"">
                                <img src=""images/R_L_U_12.png"" style= ""width:200px""alt=""img"">
                            </div>
                        </div>","-85","","0","images/R_L_U_12.png","","","","disturbing","1","12","R","L","U","",""
"","","","","","html-slider-response","61","138266","0.0-57.0","3ewmqxnuu6","3","NaN","<div style=""width:500px;"">
                            <p style=""font-size:50px; font-weight:bold;""
                            >disturbing</p>
                            <div style=""width:240px; margin: auto;"">
                                <img src=""images/Y_D_S_05.png"" style= ""width:200px""alt=""img"">
                            </div>
                        </div>","-129","","0","images/Y_D_S_05.png","","","","disturbing","2","05","Y","D","S","",""
"","","","","","html-slider-response","62","139516","0.0-58.0","3ewmqxnuu6","3","NaN","<div style=""width:500px;"">
                            <p style=""font-size:50px; font-weight:bold;""
                            >disturbing</p>
                            <div style=""width:240px; margin: auto;"">
                                <img src=""images/G_D_S_27.png"" style= ""width:200px""alt=""img"">
                            </div>
                        </div>","83","","0","images/G_D_S_27.png","","","","disturbing","2","27","G","D","S","",""
"","","","","","html-slider-response","63","140499","0.0-59.0","3ewmqxnuu6","3","NaN","<div style=""width:500px;"">
                            <p style=""font-size:50px; font-weight:bold;""
                            >disturbing</p>
                            <div style=""width:240px; margin: auto;"">
                                <img src=""images/Y_L_S_44.png"" style= ""width:200px""alt=""img"">
                            </div>
                        </div>","-85","","0","images/Y_L_S_44.png","","","","disturbing","2","44","Y","L","S","",""
"","","","","","html-slider-response","64","142333","0.0-60.0","3ewmqxnuu6","3","NaN","<div style=""width:500px;"">
                            <p style=""font-size:50px; font-weight:bold;""
                            >disturbing</p>
                            <div style=""width:240px; margin: auto;"">
                                <img src=""images/Y_D_S_05.png"" style= ""width:200px""alt=""img"">
                            </div>
                        </div>","-73","","0","images/Y_D_S_05.png","","","","disturbing","1","05","Y","D","S","",""
"","","","","","html-slider-response","65","143515","0.0-61.0","3ewmqxnuu6","3","NaN","<div style=""width:500px;"">
                            <p style=""font-size:50px; font-weight:bold;""
                            >disturbing</p>
                            <div style=""width:240px; margin: auto;"">
                                <img src=""images/Y_L_U_02.png"" style= ""width:200px""alt=""img"">
                            </div>
                        </div>","56","","0","images/Y_L_U_02.png","","","","disturbing","2","02","Y","L","U","",""
"","","","","","html-slider-response","66","144681","0.0-62.0","3ewmqxnuu6","3","NaN","<div style=""width:500px;"">
                            <p style=""font-size:50px; font-weight:bold;""
                            >disturbing</p>
                            <div style=""width:240px; margin: auto;"">
                                <img src=""images/Y_L_S_44.png"" style= ""width:200px""alt=""img"">
                            </div>
                        </div>","-121","","0","images/Y_L_S_44.png","","","","disturbing","1","44","Y","L","S","",""
"","","","","","html-slider-response","67","146814","0.0-63.0","3ewmqxnuu6","3","NaN","<div style=""width:500px;"">
                            <p style=""font-size:50px; font-weight:bold;""
                            >disturbing</p>
                            <div style=""width:240px; margin: auto;"">
                                <img src=""images/G_D_U_28.png"" style= ""width:200px""alt=""img"">
                            </div>
                        </div>","-49","","0","images/G_D_U_28.png","","","","disturbing","1","28","G","D","U","",""
"","","","","","html-slider-response","68","148165","0.0-64.0","3ewmqxnuu6","3","NaN","<div style=""width:500px;"">
                            <p style=""font-size:50px; font-weight:bold;""
                            >disturbing</p>
                            <div style=""width:240px; margin: auto;"">
                                <img src=""images/B_L_U_33.png"" style= ""width:200px""alt=""img"">
                            </div>
                        </div>","-200","","0","images/B_L_U_33.png","","","","disturbing","2","33","B","L","U","",""
"","","","","","html-slider-response","69","149583","0.0-65.0","3ewmqxnuu6","3","NaN","<div style=""width:500px;"">
                            <p style=""font-size:50px; font-weight:bold;""
                            >disturbing</p>
                            <div style=""width:240px; margin: auto;"">
                                <img src=""images/B_D_S_37.png"" style= ""width:200px""alt=""img"">
                            </div>
                        </div>","-200","","0","images/B_D_S_37.png","","","","disturbing","2","37","B","D","S","",""
"","","","","","html-slider-response","70","150814","0.0-66.0","3ewmqxnuu6","3","NaN","<div style=""width:500px;"">
                            <p style=""font-size:50px; font-weight:bold;""
                            >disturbing</p>
                            <div style=""width:240px; margin: auto;"">
                                <img src=""images/B_D_U_41.png"" style= ""width:200px""alt=""img"">
                            </div>
                        </div>","-109","","0","images/B_D_U_41.png","","","","disturbing","1","41","B","D","U","",""
"","","","","","html-slider-response","71","151899","0.0-67.0","3ewmqxnuu6","3","NaN","<div style=""width:500px;"">
                            <p style=""font-size:50px; font-weight:bold;""
                            >disturbing</p>
                            <div style=""width:240px; margin: auto;"">
                                <img src=""images/R_D_U_15.png"" style= ""width:200px""alt=""img"">
                            </div>
                        </div>","-101","","0","images/R_D_U_15.png","","","","disturbing","2","15","R","D","U","",""
"","","","","","html-slider-response","72","153365","0.0-68.0","3ewmqxnuu6","3","NaN","<div style=""width:500px;"">
                            <p style=""font-size:50px; font-weight:bold;""
                            >disturbing</p>
                            <div style=""width:240px; margin: auto;"">
                                <img src=""images/Y_D_U_07.png"" style= ""width:200px""alt=""img"">
                            </div>
                        </div>","-82","","0","images/Y_D_U_07.png","","","","disturbing","1","07","Y","D","U","",""
"","","","","","html-slider-response","73","155299","0.0-69.0","3ewmqxnuu6","3","NaN","<div style=""width:500px;"">
                            <p style=""font-size:50px; font-weight:bold;""
                            >disturbing</p>
                            <div style=""width:240px; margin: auto;"">
                                <img src=""images/G_L_S_23.png"" style= ""width:200px""alt=""img"">
                            </div>
                        </div>","-90","","0","images/G_L_S_23.png","","","","disturbing","1","23","G","L","S","",""
"","","","","","html-slider-response","74","156766","0.0-70.0","3ewmqxnuu6","3","NaN","<div style=""width:500px;"">
                            <p style=""font-size:50px; font-weight:bold;""
                            >disturbing</p>
                            <div style=""width:240px; margin: auto;"">
                                <img src=""images/G_L_U_26.png"" style= ""width:200px""alt=""img"">
                            </div>
                        </div>","-196","","0","images/G_L_U_26.png","","","","disturbing","2","26","G","L","U","",""
"","","","","","html-slider-response","75","158300","0.0-71.0","3ewmqxnuu6","3","NaN","<div style=""width:500px;"">
                            <p style=""font-size:50px; font-weight:bold;""
                            >disturbing</p>
                            <div style=""width:240px; margin: auto;"">
                                <img src=""images/B_L_U_33.png"" style= ""width:200px""alt=""img"">
                            </div>
                        </div>","-110","","0","images/B_L_U_33.png","","","","disturbing","1","33","B","L","U","",""
"","","","","","html-slider-response","76","159298","0.0-72.0","3ewmqxnuu6","3","NaN","<div style=""width:500px;"">
                            <p style=""font-size:50px; font-weight:bold;""
                            >disturbing</p>
                            <div style=""width:240px; margin: auto;"">
                                <img src=""images/R_L_S_10.png"" style= ""width:200px""alt=""img"">
                            </div>
                        </div>","-99","","0","images/R_L_S_10.png","","","","disturbing","1","10","R","L","S","",""
"","","","","","html-slider-response","77","161565","0.0-73.0","3ewmqxnuu6","3","NaN","<div style=""width:500px;"">
                            <p style=""font-size:50px; font-weight:bold;""
                            >disturbing</p>
                            <div style=""width:240px; margin: auto;"">
                                <img src=""images/R_D_S_13.png"" style= ""width:200px""alt=""img"">
                            </div>
                        </div>","-129","","0","images/R_D_S_13.png","","","","disturbing","1","13","R","D","S","",""
"","","","","","html-slider-response","78","162583","0.0-74.0","3ewmqxnuu6","3","NaN","<div style=""width:500px;"">
                            <p style=""font-size:50px; font-weight:bold;""
                            >disturbing</p>
                            <div style=""width:240px; margin: auto;"">
                                <img src=""images/B_L_S_30.png"" style= ""width:200px""alt=""img"">
                            </div>
                        </div>","-97","","0","images/B_L_S_30.png","","","","disturbing","2","30","B","L","S","",""
"","","","","","html-slider-response","79","165332","0.0-75.0","3ewmqxnuu6","3","NaN","<div style=""width:500px;"">
                            <p style=""font-size:50px; font-weight:bold;""
                            >disturbing</p>
                            <div style=""width:240px; margin: auto;"">
                                <img src=""images/B_D_S_37.png"" style= ""width:200px""alt=""img"">
                            </div>
                        </div>","-162","","0","images/B_D_S_37.png","","","","disturbing","1","37","B","D","S","",""
"","","","","","html-slider-response","80","167714","0.0-76.0","3ewmqxnuu6","3","NaN","<div style=""width:500px;"">
                            <p style=""font-size:50px; font-weight:bold;""
                            >disturbing</p>
                            <div style=""width:240px; margin: auto;"">
                                <img src=""images/B_D_U_41.png"" style= ""width:200px""alt=""img"">
                            </div>
                        </div>","-82","","0","images/B_D_U_41.png","","","","disturbing","2","41","B","D","U","",""
"","","","","","html-slider-response","81","169181","0.0-77.0","3ewmqxnuu6","3","NaN","<div style=""width:500px;"">
                            <p style=""font-size:50px; font-weight:bold;""
                            >disturbing</p>
                            <div style=""width:240px; margin: auto;"">
                                <img src=""images/R_L_S_10.png"" style= ""width:200px""alt=""img"">
                            </div>
                        </div>","-200","","0","images/R_L_S_10.png","","","","disturbing","2","10","R","L","S","",""
"","","","","","html-slider-response","82","170450","0.0-78.0","3ewmqxnuu6","3","NaN","<div style=""width:500px;"">
                            <p style=""font-size:50px; font-weight:bold;""
                            >disturbing</p>
                            <div style=""width:240px; margin: auto;"">
                                <img src=""images/G_L_U_26.png"" style= ""width:200px""alt=""img"">
                            </div>
                        </div>","-200","","0","images/G_L_U_26.png","","","","disturbing","1","26","G","L","U","",""
"","","","","","html-slider-response","83","171916","0.0-79.0","3ewmqxnuu6","3","NaN","<div style=""width:500px;"">
                            <p style=""font-size:50px; font-weight:bold;""
                            >disturbing</p>
                            <div style=""width:240px; margin: auto;"">
                                <img src=""images/R_L_U_12.png"" style= ""width:200px""alt=""img"">
                            </div>
                        </div>","-189","","0","images/R_L_U_12.png","","","","disturbing","2","12","R","L","U","",""
"","","","","","html-button-response","84","173522","0.0-80.0","3ewmqxnuu6","3","1105","<p>Great Job! You've finished block 2.<br></br> You have 6 block(s) left to go.<br></br></p>","0","","","","","","","","","","","","","",""
"","","","","","html-button-response","85","174172","0.0-81.0","3ewmqxnuu6","3","649","<p>In this block of trials, you will be asked to rate how much you associate each map with:</p > <p style = 'font-size:150%; font-weight: bold'>serious</p><br></br>","0","","","","","","","","","","","","","",""
"","","","","","html-slider-response","86","175483","0.0-82.0","3ewmqxnuu6","3","NaN","<div style=""width:500px;"">
                            <p style=""font-size:50px; font-weight:bold;""
                            >serious</p>
                            <div style=""width:240px; margin: auto;"">
                                <img src=""images/R_L_U_12.png"" style= ""width:200px""alt=""img"">
                            </div>
                        </div>","14","","0","images/R_L_U_12.png","","","","serious","1","12","R","L","U","",""
"","","","","","html-slider-response","87","176383","0.0-83.0","3ewmqxnuu6","3","NaN","<div style=""width:500px;"">
                            <p style=""font-size:50px; font-weight:bold;""
                            >serious</p>
                            <div style=""width:240px; margin: auto;"">
                                <img src=""images/R_L_S_10.png"" style= ""width:200px""alt=""img"">
                            </div>
                        </div>","26","","0","images/R_L_S_10.png","","","","serious","1","10","R","L","S","",""
"","","","","","html-slider-response","88","178181","0.0-84.0","3ewmqxnuu6","3","NaN","<div style=""width:500px;"">
                            <p style=""font-size:50px; font-weight:bold;""
                            >serious</p>
                            <div style=""width:240px; margin: auto;"">
                                <img src=""images/G_L_S_23.png"" style= ""width:200px""alt=""img"">
                            </div>
                        </div>","58","","0","images/G_L_S_23.png","","","","serious","1","23","G","L","S","",""
"","","","","","html-slider-response","89","179499","0.0-85.0","3ewmqxnuu6","3","NaN","<div style=""width:500px;"">
                            <p style=""font-size:50px; font-weight:bold;""
                            >serious</p>
                            <div style=""width:240px; margin: auto;"">
                                <img src=""images/R_D_S_13.png"" style= ""width:200px""alt=""img"">
                            </div>
                        </div>","-18","","0","images/R_D_S_13.png","","","","serious","1","13","R","D","S","",""
"","","","","","html-slider-response","90","182031","0.0-86.0","3ewmqxnuu6","3","NaN","<div style=""width:500px;"">
                            <p style=""font-size:50px; font-weight:bold;""
                            >serious</p>
                            <div style=""width:240px; margin: auto;"">
                                <img src=""images/B_D_S_37.png"" style= ""width:200px""alt=""img"">
                            </div>
                        </div>","74","","0","images/B_D_S_37.png","","","","serious","2","37","B","D","S","",""
"","","","","","html-slider-response","91","183299","0.0-87.0","3ewmqxnuu6","3","NaN","<div style=""width:500px;"">
                            <p style=""font-size:50px; font-weight:bold;""
                            >serious</p>
                            <div style=""width:240px; margin: auto;"">
                                <img src=""images/G_L_U_26.png"" style= ""width:200px""alt=""img"">
                            </div>
                        </div>","-42","","0","images/G_L_U_26.png","","","","serious","2","26","G","L","U","",""
"","","","","","html-slider-response","92","184331","0.0-88.0","3ewmqxnuu6","3","NaN","<div style=""width:500px;"">
                            <p style=""font-size:50px; font-weight:bold;""
                            >serious</p>
                            <div style=""width:240px; margin: auto;"">
                                <img src=""images/G_L_U_26.png"" style= ""width:200px""alt=""img"">
                            </div>
                        </div>","-8","","0","images/G_L_U_26.png","","","","serious","1","26","G","L","U","",""
"","","","","","html-slider-response","93","186898","0.0-89.0","3ewmqxnuu6","3","NaN","<div style=""width:500px;"">
                            <p style=""font-size:50px; font-weight:bold;""
                            >serious</p>
                            <div style=""width:240px; margin: auto;"">
                                <img src=""images/B_L_S_30.png"" style= ""width:200px""alt=""img"">
                            </div>
                        </div>","-51","","0","images/B_L_S_30.png","","","","serious","1","30","B","L","S","",""
"","","","","","html-slider-response","94","188598","0.0-90.0","3ewmqxnuu6","3","NaN","<div style=""width:500px;"">
                            <p style=""font-size:50px; font-weight:bold;""
                            >serious</p>
                            <div style=""width:240px; margin: auto;"">
                                <img src=""images/Y_L_S_44.png"" style= ""width:200px""alt=""img"">
                            </div>
                        </div>","118","","0","images/Y_L_S_44.png","","","","serious","1","44","Y","L","S","",""
"","","","","","html-slider-response","95","189848","0.0-91.0","3ewmqxnuu6","3","NaN","<div style=""width:500px;"">
                            <p style=""font-size:50px; font-weight:bold;""
                            >serious</p>
                            <div style=""width:240px; margin: auto;"">
                                <img src=""images/Y_L_S_44.png"" style= ""width:200px""alt=""img"">
                            </div>
                        </div>","38","","0","images/Y_L_S_44.png","","","","serious","2","44","Y","L","S","",""
"","","","","","html-slider-response","96","191416","0.0-92.0","3ewmqxnuu6","3","NaN","<div style=""width:500px;"">
                            <p style=""font-size:50px; font-weight:bold;""
                            >serious</p>
                            <div style=""width:240px; margin: auto;"">
                                <img src=""images/G_D_S_27.png"" style= ""width:200px""alt=""img"">
                            </div>
                        </div>","200","","0","images/G_D_S_27.png","","","","serious","2","27","G","D","S","",""
"","","","","","html-slider-response","97","192749","0.0-93.0","3ewmqxnuu6","3","NaN","<div style=""width:500px;"">
                            <p style=""font-size:50px; font-weight:bold;""
                            >serious</p>
                            <div style=""width:240px; margin: auto;"">
                                <img src=""images/Y_D_U_07.png"" style= ""width:200px""alt=""img"">
                            </div>
                        </div>","200","","0","images/Y_D_U_07.png","","","","serious","2","07","Y","D","U","",""
"","","","","","html-slider-response","98","194082","0.0-94.0","3ewmqxnuu6","3","NaN","<div style=""width:500px;"">
                            <p style=""font-size:50px; font-weight:bold;""
                            >serious</p>
                            <div style=""width:240px; margin: auto;"">
                                <img src=""images/B_L_U_33.png"" style= ""width:200px""alt=""img"">
                            </div>
                        </div>","-22","","0","images/B_L_U_33.png","","","","serious","2","33","B","L","U","",""
"","","","","","html-slider-response","99","196332","0.0-95.0","3ewmqxnuu6","3","NaN","<div style=""width:500px;"">
                            <p style=""font-size:50px; font-weight:bold;""
                            >serious</p>
                            <div style=""width:240px; margin: auto;"">
                                <img src=""images/B_L_S_30.png"" style= ""width:200px""alt=""img"">
                            </div>
                        </div>","-20","","0","images/B_L_S_30.png","","","","serious","2","30","B","L","S","",""
"","","","","","html-slider-response","100","197100","0.0-96.0","3ewmqxnuu6","3","NaN","<div style=""width:500px;"">
                            <p style=""font-size:50px; font-weight:bold;""
                            >serious</p>
                            <div style=""width:240px; margin: auto;"">
                                <img src=""images/R_L_U_12.png"" style= ""width:200px""alt=""img"">
                            </div>
                        </div>","-66","","0","images/R_L_U_12.png","","","","serious","2","12","R","L","U","",""
"","","","","","html-slider-response","101","197950","0.0-97.0","3ewmqxnuu6","3","NaN","<div style=""width:500px;"">
                            <p style=""font-size:50px; font-weight:bold;""
                            >serious</p>
                            <div style=""width:240px; margin: auto;"">
                                <img src=""images/R_L_S_10.png"" style= ""width:200px""alt=""img"">
                            </div>
                        </div>","52","","0","images/R_L_S_10.png","","","","serious","2","10","R","L","S","",""
"","","","","","html-slider-response","102","198747","0.0-98.0","3ewmqxnuu6","3","NaN","<div style=""width:500px;"">
                            <p style=""font-size:50px; font-weight:bold;""
                            >serious</p>
                            <div style=""width:240px; margin: auto;"">
                                <img src=""images/G_D_S_27.png"" style= ""width:200px""alt=""img"">
                            </div>
                        </div>","-59","","0","images/G_D_S_27.png","","","","serious","1","27","G","D","S","",""
"","","","","","html-slider-response","103","199648","0.0-99.0","3ewmqxnuu6","3","NaN","<div style=""width:500px;"">
                            <p style=""font-size:50px; font-weight:bold;""
                            >serious</p>
                            <div style=""width:240px; margin: auto;"">
                                <img src=""images/G_D_U_28.png"" style= ""width:200px""alt=""img"">
                            </div>
                        </div>","31","","0","images/G_D_U_28.png","","","","serious","1","28","G","D","U","",""
"","","","","","html-slider-response","104","200548","0.0-100.0","3ewmqxnuu6","3","NaN","<div style=""width:500px;"">
                            <p style=""font-size:50px; font-weight:bold;""
                            >serious</p>
                            <div style=""width:240px; margin: auto;"">
                                <img src=""images/B_D_U_41.png"" style= ""width:200px""alt=""img"">
                            </div>
                        </div>","-22","","0","images/B_D_U_41.png","","","","serious","2","41","B","D","U","",""
"","","","","","html-slider-response","105","201998","0.0-101.0","3ewmqxnuu6","3","NaN","<div style=""width:500px;"">
                            <p style=""font-size:50px; font-weight:bold;""
                            >serious</p>
                            <div style=""width:240px; margin: auto;"">
                                <img src=""images/B_D_S_37.png"" style= ""width:200px""alt=""img"">
                            </div>
                        </div>","82","","0","images/B_D_S_37.png","","","","serious","1","37","B","D","S","",""
"","","","","","html-slider-response","106","202982","0.0-102.0","3ewmqxnuu6","3","NaN","<div style=""width:500px;"">
                            <p style=""font-size:50px; font-weight:bold;""
                            >serious</p>
                            <div style=""width:240px; margin: auto;"">
                                <img src=""images/B_L_U_33.png"" style= ""width:200px""alt=""img"">
                            </div>
                        </div>","79","","0","images/B_L_U_33.png","","","","serious","1","33","B","L","U","",""
"","","","","","html-slider-response","107","203631","0.0-103.0","3ewmqxnuu6","3","NaN","<div style=""width:500px;"">
                            <p style=""font-size:50px; font-weight:bold;""
                            >serious</p>
                            <div style=""width:240px; margin: auto;"">
                                <img src=""images/R_D_U_15.png"" style= ""width:200px""alt=""img"">
                            </div>
                        </div>","-40","","0","images/R_D_U_15.png","","","","serious","1","15","R","D","U","",""
"","","","","","html-slider-response","108","204332","0.0-104.0","3ewmqxnuu6","3","NaN","<div style=""width:500px;"">
                            <p style=""font-size:50px; font-weight:bold;""
                            >serious</p>
                            <div style=""width:240px; margin: auto;"">
                                <img src=""images/Y_D_U_07.png"" style= ""width:200px""alt=""img"">
                            </div>
                        </div>","39","","0","images/Y_D_U_07.png","","","","serious","1","07","Y","D","U","",""
"","","","","","html-slider-response","109","205099","0.0-105.0","3ewmqxnuu6","3","NaN","<div style=""width:500px;"">
                            <p style=""font-size:50px; font-weight:bold;""
                            >serious</p>
                            <div style=""width:240px; margin: auto;"">
                                <img src=""images/G_D_U_28.png"" style= ""width:200px""alt=""img"">
                            </div>
                        </div>","-8","","0","images/G_D_U_28.png","","","","serious","2","28","G","D","U","",""
"","","","","","html-slider-response","110","205765","0.0-106.0","3ewmqxnuu6","3","NaN","<div style=""width:500px;"">
                            <p style=""font-size:50px; font-weight:bold;""
                            >serious</p>
                            <div style=""width:240px; margin: auto;"">
                                <img src=""images/R_D_S_13.png"" style= ""width:200px""alt=""img"">
                            </div>
                        </div>","18","","0","images/R_D_S_13.png","","","","serious","2","13","R","D","S","",""
"","","","","","html-slider-response","111","206382","0.0-107.0","3ewmqxnuu6","3","NaN","<div style=""width:500px;"">
                            <p style=""font-size:50px; font-weight:bold;""
                            >serious</p>
                            <div style=""width:240px; margin: auto;"">
                                <img src=""images/Y_D_S_05.png"" style= ""width:200px""alt=""img"">
                            </div>
                        </div>","-49","","0","images/Y_D_S_05.png","","","","serious","1","05","Y","D","S","",""
"","","","","","html-slider-response","112","207148","0.0-108.0","3ewmqxnuu6","3","NaN","<div style=""width:500px;"">
                            <p style=""font-size:50px; font-weight:bold;""
                            >serious</p>
                            <div style=""width:240px; margin: auto;"">
                                <img src=""images/Y_L_U_02.png"" style= ""width:200px""alt=""img"">
                            </div>
                        </div>","58","","0","images/Y_L_U_02.png","","","","serious","2","02","Y","L","U","",""
"","","","","","html-slider-response","113","208699","0.0-109.0","3ewmqxnuu6","3","NaN","<div style=""width:500px;"">
                            <p style=""font-size:50px; font-weight:bold;""
                            >serious</p>
                            <div style=""width:240px; margin: auto;"">
                                <img src=""images/Y_D_S_05.png"" style= ""width:200px""alt=""img"">
                            </div>
                        </div>","193","","0","images/Y_D_S_05.png","","","","serious","2","05","Y","D","S","",""
"","","","","","html-slider-response","114","209764","0.0-110.0","3ewmqxnuu6","3","NaN","<div style=""width:500px;"">
                            <p style=""font-size:50px; font-weight:bold;""
                            >serious</p>
                            <div style=""width:240px; margin: auto;"">
                                <img src=""images/R_D_U_15.png"" style= ""width:200px""alt=""img"">
                            </div>
                        </div>","167","","0","images/R_D_U_15.png","","","","serious","2","15","R","D","U","",""
"","","","","","html-slider-response","115","210734","0.0-111.0","3ewmqxnuu6","3","NaN","<div style=""width:500px;"">
                            <p style=""font-size:50px; font-weight:bold;""
                            >serious</p>
                            <div style=""width:240px; margin: auto;"">
                                <img src=""images/B_D_U_41.png"" style= ""width:200px""alt=""img"">
                            </div>
                        </div>","144","","0","images/B_D_U_41.png","","","","serious","1","41","B","D","U","",""
"","","","","","html-slider-response","116","211448","0.0-112.0","3ewmqxnuu6","3","NaN","<div style=""width:500px;"">
                            <p style=""font-size:50px; font-weight:bold;""
                            >serious</p>
                            <div style=""width:240px; margin: auto;"">
                                <img src=""images/Y_L_U_02.png"" style= ""width:200px""alt=""img"">
                            </div>
                        </div>","133","","0","images/Y_L_U_02.png","","","","serious","1","02","Y","L","U","",""
"","","","","","html-slider-response","117","212165","0.0-113.0","3ewmqxnuu6","3","NaN","<div style=""width:500px;"">
                            <p style=""font-size:50px; font-weight:bold;""
                            >serious</p>
                            <div style=""width:240px; margin: auto;"">
                                <img src=""images/G_L_S_23.png"" style= ""width:200px""alt=""img"">
                            </div>
                        </div>","-38","","0","images/G_L_S_23.png","","","","serious","2","23","G","L","S","",""
"","","","","","html-button-response","118","213889","0.0-114.0","3ewmqxnuu6","3","1221","<p>Great Job! You've finished block 3.<br></br> You have 5 block(s) left to go.<br></br></p>","0","","","","","","","","","","","","","",""
"","","","","","html-button-response","119","214555","0.0-115.0","3ewmqxnuu6","3","665","<p>In this block of trials, you will be asked to rate how much you associate each map with:</p > <p style = 'font-size:150%; font-weight: bold'>playful</p><br></br>","0","","","","","","","","","","","","","",""
"","","","","","html-slider-response","120","215581","0.0-116.0","3ewmqxnuu6","3","NaN","<div style=""width:500px;"">
                            <p style=""font-size:50px; font-weight:bold;""
                            >playful</p>
                            <div style=""width:240px; margin: auto;"">
                                <img src=""images/R_L_S_10.png"" style= ""width:200px""alt=""img"">
                            </div>
                        </div>","89","","0","images/R_L_S_10.png","","","","playful","2","10","R","L","S","",""
"","","","","","html-slider-response","121","216681","0.0-117.0","3ewmqxnuu6","3","NaN","<div style=""width:500px;"">
                            <p style=""font-size:50px; font-weight:bold;""
                            >playful</p>
                            <div style=""width:240px; margin: auto;"">
                                <img src=""images/G_D_S_27.png"" style= ""width:200px""alt=""img"">
                            </div>
                        </div>","130","","0","images/G_D_S_27.png","","","","playful","1","27","G","D","S","",""
"","","","","","html-slider-response","122","217499","0.0-118.0","3ewmqxnuu6","3","NaN","<div style=""width:500px;"">
                            <p style=""font-size:50px; font-weight:bold;""
                            >playful</p>
                            <div style=""width:240px; margin: auto;"">
                                <img src=""images/R_D_S_13.png"" style= ""width:200px""alt=""img"">
                            </div>
                        </div>","-129","","0","images/R_D_S_13.png","","","","playful","2","13","R","D","S","",""
"","","","","","html-slider-response","123","218232","0.0-119.0","3ewmqxnuu6","3","NaN","<div style=""width:500px;"">
                            <p style=""font-size:50px; font-weight:bold;""
                            >playful</p>
                            <div style=""width:240px; margin: auto;"">
                                <img src=""images/R_L_U_12.png"" style= ""width:200px""alt=""img"">
                            </div>
                        </div>","79","","0","images/R_L_U_12.png","","","","playful","1","12","R","L","U","",""
"","","","","","html-slider-response","124","218999","0.0-120.0","3ewmqxnuu6","3","NaN","<div style=""width:500px;"">
                            <p style=""font-size:50px; font-weight:bold;""
                            >playful</p>
                            <div style=""width:240px; margin: auto;"">
                                <img src=""images/R_D_U_15.png"" style= ""width:200px""alt=""img"">
                            </div>
                        </div>","79","","0","images/R_D_U_15.png","","","","playful","1","15","R","D","U","",""
"","","","","","html-slider-response","125","220481","0.0-121.0","3ewmqxnuu6","3","NaN","<div style=""width:500px;"">
                            <p style=""font-size:50px; font-weight:bold;""
                            >playful</p>
                            <div style=""width:240px; margin: auto;"">
                                <img src=""images/B_L_S_30.png"" style= ""width:200px""alt=""img"">
                            </div>
                        </div>","180","","0","images/B_L_S_30.png","","","","playful","2","30","B","L","S","",""
"","","","","","html-slider-response","126","221149","0.0-122.0","3ewmqxnuu6","3","NaN","<div style=""width:500px;"">
                            <p style=""font-size:50px; font-weight:bold;""
                            >playful</p>
                            <div style=""width:240px; margin: auto;"">
                                <img src=""images/B_D_S_37.png"" style= ""width:200px""alt=""img"">
                            </div>
                        </div>","186","","0","images/B_D_S_37.png","","","","playful","2","37","B","D","S","",""
"","","","","","html-slider-response","127","222165","0.0-123.0","3ewmqxnuu6","3","NaN","<div style=""width:500px;"">
                            <p style=""font-size:50px; font-weight:bold;""
                            >playful</p>
                            <div style=""width:240px; margin: auto;"">
                                <img src=""images/B_L_S_30.png"" style= ""width:200px""alt=""img"">
                            </div>
                        </div>","152","","0","images/B_L_S_30.png","","","","playful","1","30","B","L","S","",""
"","","","","","html-slider-response","128","223115","0.0-124.0","3ewmqxnuu6","3","NaN","<div style=""width:500px;"">
                            <p style=""font-size:50px; font-weight:bold;""
                            >playful</p>
                            <div style=""width:240px; margin: auto;"">
                                <img src=""images/R_D_U_15.png"" style= ""width:200px""alt=""img"">
                            </div>
                        </div>","152","","0","images/R_D_U_15.png","","","","playful","2","15","R","D","U","",""
"","","","","","html-slider-response","129","223832","0.0-125.0","3ewmqxnuu6","3","NaN","<div style=""width:500px;"">
                            <p style=""font-size:50px; font-weight:bold;""
                            >playful</p>
                            <div style=""width:240px; margin: auto;"">
                                <img src=""images/G_D_S_27.png"" style= ""width:200px""alt=""img"">
                            </div>
                        </div>","152","","0","images/G_D_S_27.png","","","","playful","2","27","G","D","S","",""
"","","","","","html-slider-response","130","225616","0.0-126.0","3ewmqxnuu6","3","NaN","<div style=""width:500px;"">
                            <p style=""font-size:50px; font-weight:bold;""
                            >playful</p>
                            <div style=""width:240px; margin: auto;"">
                                <img src=""images/Y_L_U_02.png"" style= ""width:200px""alt=""img"">
                            </div>
                        </div>","126","","0","images/Y_L_U_02.png","","","","playful","2","02","Y","L","U","",""
"","","","","","html-slider-response","131","227165","0.0-127.0","3ewmqxnuu6","3","NaN","<div style=""width:500px;"">
                            <p style=""font-size:50px; font-weight:bold;""
                            >playful</p>
                            <div style=""width:240px; margin: auto;"">
                                <img src=""images/Y_L_U_02.png"" style= ""width:200px""alt=""img"">
                            </div>
                        </div>","130","","0","images/Y_L_U_02.png","","","","playful","1","02","Y","L","U","",""
"","","","","","html-slider-response","132","228399","0.0-128.0","3ewmqxnuu6","3","NaN","<div style=""width:500px;"">
                            <p style=""font-size:50px; font-weight:bold;""
                            >playful</p>
                            <div style=""width:240px; margin: auto;"">
                                <img src=""images/G_D_U_28.png"" style= ""width:200px""alt=""img"">
                            </div>
                        </div>","135","","0","images/G_D_U_28.png","","","","playful","2","28","G","D","U","",""
"","","","","","html-slider-response","133","229113","0.0-129.0","3ewmqxnuu6","3","NaN","<div style=""width:500px;"">
                            <p style=""font-size:50px; font-weight:bold;""
                            >playful</p>
                            <div style=""width:240px; margin: auto;"">
                                <img src=""images/G_D_U_28.png"" style= ""width:200px""alt=""img"">
                            </div>
                        </div>","135","","0","images/G_D_U_28.png","","","","playful","1","28","G","D","U","",""
"","","","","","html-slider-response","134","230164","0.0-130.0","3ewmqxnuu6","3","NaN","<div style=""width:500px;"">
                            <p style=""font-size:50px; font-weight:bold;""
                            >playful</p>
                            <div style=""width:240px; margin: auto;"">
                                <img src=""images/G_L_U_26.png"" style= ""width:200px""alt=""img"">
                            </div>
                        </div>","-39","","0","images/G_L_U_26.png","","","","playful","2","26","G","L","U","",""
"","","","","","html-slider-response","135","231231","0.0-131.0","3ewmqxnuu6","3","NaN","<div style=""width:500px;"">
                            <p style=""font-size:50px; font-weight:bold;""
                            >playful</p>
                            <div style=""width:240px; margin: auto;"">
                                <img src=""images/B_D_U_41.png"" style= ""width:200px""alt=""img"">
                            </div>
                        </div>","43","","0","images/B_D_U_41.png","","","","playful","2","41","B","D","U","",""
"","","","","","html-slider-response","136","232048","0.0-132.0","3ewmqxnuu6","3","NaN","<div style=""width:500px;"">
                            <p style=""font-size:50px; font-weight:bold;""
                            >playful</p>
                            <div style=""width:240px; margin: auto;"">
                                <img src=""images/Y_D_U_07.png"" style= ""width:200px""alt=""img"">
                            </div>
                        </div>","43","","0","images/Y_D_U_07.png","","","","playful","2","07","Y","D","U","",""
"","","","","","html-slider-response","137","233648","0.0-133.0","3ewmqxnuu6","3","NaN","<div style=""width:500px;"">
                            <p style=""font-size:50px; font-weight:bold;""
                            >playful</p>
                            <div style=""width:240px; margin: auto;"">
                                <img src=""images/G_L_S_23.png"" style= ""width:200px""alt=""img"">
                            </div>
                        </div>","34","","0","images/G_L_S_23.png","","","","playful","2","23","G","L","S","",""
"","","","","","html-slider-response","138","234765","0.0-134.0","3ewmqxnuu6","3","NaN","<div style=""width:500px;"">
                            <p style=""font-size:50px; font-weight:bold;""
                            >playful</p>
                            <div style=""width:240px; margin: auto;"">
                                <img src=""images/B_D_U_41.png"" style= ""width:200px""alt=""img"">
                            </div>
                        </div>","66","","0","images/B_D_U_41.png","","","","playful","1","41","B","D","U","",""
"","","","","","html-slider-response","139","235999","0.0-135.0","3ewmqxnuu6","3","NaN","<div style=""width:500px;"">
                            <p style=""font-size:50px; font-weight:bold;""
                            >playful</p>
                            <div style=""width:240px; margin: auto;"">
                                <img src=""images/R_D_S_13.png"" style= ""width:200px""alt=""img"">
                            </div>
                        </div>","-83","","0","images/R_D_S_13.png","","","","playful","1","13","R","D","S","",""
"","","","","","html-slider-response","140","238148","0.0-136.0","3ewmqxnuu6","3","NaN","<div style=""width:500px;"">
                            <p style=""font-size:50px; font-weight:bold;""
                            >playful</p>
                            <div style=""width:240px; margin: auto;"">
                                <img src=""images/Y_D_S_05.png"" style= ""width:200px""alt=""img"">
                            </div>
                        </div>","-158","","0","images/Y_D_S_05.png","","","","playful","2","05","Y","D","S","",""
"","","","","","html-slider-response","141","239782","0.0-137.0","3ewmqxnuu6","3","NaN","<div style=""width:500px;"">
                            <p style=""font-size:50px; font-weight:bold;""
                            >playful</p>
                            <div style=""width:240px; margin: auto;"">
                                <img src=""images/R_L_S_10.png"" style= ""width:200px""alt=""img"">
                            </div>
                        </div>","87","","0","images/R_L_S_10.png","","","","playful","1","10","R","L","S","",""
"","","","","","html-slider-response","142","241598","0.0-138.0","3ewmqxnuu6","3","NaN","<div style=""width:500px;"">
                            <p style=""font-size:50px; font-weight:bold;""
                            >playful</p>
                            <div style=""width:240px; margin: auto;"">
                                <img src=""images/Y_D_U_07.png"" style= ""width:200px""alt=""img"">
                            </div>
                        </div>","-150","","0","images/Y_D_U_07.png","","","","playful","1","07","Y","D","U","",""
"","","","","","html-slider-response","143","242831","0.0-139.0","3ewmqxnuu6","3","NaN","<div style=""width:500px;"">
                            <p style=""font-size:50px; font-weight:bold;""
                            >playful</p>
                            <div style=""width:240px; margin: auto;"">
                                <img src=""images/G_L_U_26.png"" style= ""width:200px""alt=""img"">
                            </div>
                        </div>","42","","0","images/G_L_U_26.png","","","","playful","1","26","G","L","U","",""
"","","","","","html-slider-response","144","243515","0.0-140.0","3ewmqxnuu6","3","NaN","<div style=""width:500px;"">
                            <p style=""font-size:50px; font-weight:bold;""
                            >playful</p>
                            <div style=""width:240px; margin: auto;"">
                                <img src=""images/Y_L_S_44.png"" style= ""width:200px""alt=""img"">
                            </div>
                        </div>","-78","","0","images/Y_L_S_44.png","","","","playful","1","44","Y","L","S","",""
"","","","","","html-slider-response","145","244682","0.0-141.0","3ewmqxnuu6","3","NaN","<div style=""width:500px;"">
                            <p style=""font-size:50px; font-weight:bold;""
                            >playful</p>
                            <div style=""width:240px; margin: auto;"">
                                <img src=""images/R_L_U_12.png"" style= ""width:200px""alt=""img"">
                            </div>
                        </div>","118","","0","images/R_L_U_12.png","","","","playful","2","12","R","L","U","",""
"","","","","","html-slider-response","146","245732","0.0-142.0","3ewmqxnuu6","3","NaN","<div style=""width:500px;"">
                            <p style=""font-size:50px; font-weight:bold;""
                            >playful</p>
                            <div style=""width:240px; margin: auto;"">
                                <img src=""images/B_D_S_37.png"" style= ""width:200px""alt=""img"">
                            </div>
                        </div>","124","","0","images/B_D_S_37.png","","","","playful","1","37","B","D","S","",""
"","","","","","html-slider-response","147","246631","0.0-143.0","3ewmqxnuu6","3","NaN","<div style=""width:500px;"">
                            <p style=""font-size:50px; font-weight:bold;""
                            >playful</p>
                            <div style=""width:240px; margin: auto;"">
                                <img src=""images/B_L_U_33.png"" style= ""width:200px""alt=""img"">
                            </div>
                        </div>","124","","0","images/B_L_U_33.png","","","","playful","2","33","B","L","U","",""
"","","","","","html-slider-response","148","248582","0.0-144.0","3ewmqxnuu6","3","NaN","<div style=""width:500px;"">
                            <p style=""font-size:50px; font-weight:bold;""
                            >playful</p>
                            <div style=""width:240px; margin: auto;"">
                                <img src=""images/Y_L_S_44.png"" style= ""width:200px""alt=""img"">
                            </div>
                        </div>","-133","","0","images/Y_L_S_44.png","","","","playful","2","44","Y","L","S","",""
"","","","","","html-slider-response","149","250031","0.0-145.0","3ewmqxnuu6","3","NaN","<div style=""width:500px;"">
                            <p style=""font-size:50px; font-weight:bold;""
                            >playful</p>
                            <div style=""width:240px; margin: auto;"">
                                <img src=""images/Y_D_S_05.png"" style= ""width:200px""alt=""img"">
                            </div>
                        </div>","-173","","0","images/Y_D_S_05.png","","","","playful","1","05","Y","D","S","",""
"","","","","","html-slider-response","150","251230","0.0-146.0","3ewmqxnuu6","3","NaN","<div style=""width:500px;"">
                            <p style=""font-size:50px; font-weight:bold;""
                            >playful</p>
                            <div style=""width:240px; margin: auto;"">
                                <img src=""images/G_L_S_23.png"" style= ""width:200px""alt=""img"">
                            </div>
                        </div>","146","","0","images/G_L_S_23.png","","","","playful","1","23","G","L","S","",""
"","","","","","html-slider-response","151","252315","0.0-147.0","3ewmqxnuu6","3","NaN","<div style=""width:500px;"">
                            <p style=""font-size:50px; font-weight:bold;""
                            >playful</p>
                            <div style=""width:240px; margin: auto;"">
                                <img src=""images/B_L_U_33.png"" style= ""width:200px""alt=""img"">
                            </div>
                        </div>","120","","0","images/B_L_U_33.png","","","","playful","1","33","B","L","U","",""
"","","","","","html-button-response","152","253938","0.0-148.0","3ewmqxnuu6","3","1121","<p>Great Job! You've finished block 4.<br></br> You have 4 block(s) left to go.<br></br></p>","0","","","","","","","","","","","","","",""
"","","","","","html-button-response","153","254688","0.0-149.0","3ewmqxnuu6","3","749","<p>In this block of trials, you will be asked to rate how much you associate each map with:</p > <p style = 'font-size:150%; font-weight: bold'>positive</p><br></br>","0","","","","","","","","","","","","","",""
"","","","","","html-slider-response","154","255334","0.0-150.0","3ewmqxnuu6","3","NaN","<div style=""width:500px;"">
                            <p style=""font-size:50px; font-weight:bold;""
                            >positive</p>
                            <div style=""width:240px; margin: auto;"">
                                <img src=""images/G_L_U_26.png"" style= ""width:200px""alt=""img"">
                            </div>
                        </div>","139","","0","images/G_L_U_26.png","","","","positive","2","26","G","L","U","",""
"","","","","","html-slider-response","155","256432","0.0-151.0","3ewmqxnuu6","3","NaN","<div style=""width:500px;"">
                            <p style=""font-size:50px; font-weight:bold;""
                            >positive</p>
                            <div style=""width:240px; margin: auto;"">
                                <img src=""images/G_L_S_23.png"" style= ""width:200px""alt=""img"">
                            </div>
                        </div>","139","","0","images/G_L_S_23.png","","","","positive","1","23","G","L","S","",""
"","","","","","html-slider-response","156","257581","0.0-152.0","3ewmqxnuu6","3","NaN","<div style=""width:500px;"">
                            <p style=""font-size:50px; font-weight:bold;""
                            >positive</p>
                            <div style=""width:240px; margin: auto;"">
                                <img src=""images/Y_L_U_02.png"" style= ""width:200px""alt=""img"">
                            </div>
                        </div>","53","","0","images/Y_L_U_02.png","","","","positive","1","02","Y","L","U","",""
"","","","","","html-slider-response","157","258749","0.0-153.0","3ewmqxnuu6","3","NaN","<div style=""width:500px;"">
                            <p style=""font-size:50px; font-weight:bold;""
                            >positive</p>
                            <div style=""width:240px; margin: auto;"">
                                <img src=""images/B_L_S_30.png"" style= ""width:200px""alt=""img"">
                            </div>
                        </div>","62","","0","images/B_L_S_30.png","","","","positive","2","30","B","L","S","",""
"","","","","","html-slider-response","158","259431","0.0-154.0","3ewmqxnuu6","3","NaN","<div style=""width:500px;"">
                            <p style=""font-size:50px; font-weight:bold;""
                            >positive</p>
                            <div style=""width:240px; margin: auto;"">
                                <img src=""images/Y_D_S_05.png"" style= ""width:200px""alt=""img"">
                            </div>
                        </div>","62","","0","images/Y_D_S_05.png","","","","positive","1","05","Y","D","S","",""
"","","","","","html-slider-response","159","260765","0.0-155.0","3ewmqxnuu6","3","NaN","<div style=""width:500px;"">
                            <p style=""font-size:50px; font-weight:bold;""
                            >positive</p>
                            <div style=""width:240px; margin: auto;"">
                                <img src=""images/R_L_S_10.png"" style= ""width:200px""alt=""img"">
                            </div>
                        </div>","74","","0","images/R_L_S_10.png","","","","positive","2","10","R","L","S","",""
"","","","","","html-slider-response","160","261665","0.0-156.0","3ewmqxnuu6","3","NaN","<div style=""width:500px;"">
                            <p style=""font-size:50px; font-weight:bold;""
                            >positive</p>
                            <div style=""width:240px; margin: auto;"">
                                <img src=""images/G_D_S_27.png"" style= ""width:200px""alt=""img"">
                            </div>
                        </div>","74","","0","images/G_D_S_27.png","","","","positive","1","27","G","D","S","",""
"","","","","","html-slider-response","161","262532","0.0-157.0","3ewmqxnuu6","3","NaN","<div style=""width:500px;"">
                            <p style=""font-size:50px; font-weight:bold;""
                            >positive</p>
                            <div style=""width:240px; margin: auto;"">
                                <img src=""images/Y_L_U_02.png"" style= ""width:200px""alt=""img"">
                            </div>
                        </div>","-55","","0","images/Y_L_U_02.png","","","","positive","2","02","Y","L","U","",""
"","","","","","html-slider-response","162","263465","0.0-158.0","3ewmqxnuu6","3","NaN","<div style=""width:500px;"">
                            <p style=""font-size:50px; font-weight:bold;""
                            >positive</p>
                            <div style=""width:240px; margin: auto;"">
                                <img src=""images/Y_D_U_07.png"" style= ""width:200px""alt=""img"">
                            </div>
                        </div>","-52","","0","images/Y_D_U_07.png","","","","positive","2","07","Y","D","U","",""
"","","","","","html-slider-response","163","264132","0.0-159.0","3ewmqxnuu6","3","NaN","<div style=""width:500px;"">
                            <p style=""font-size:50px; font-weight:bold;""
                            >positive</p>
                            <div style=""width:240px; margin: auto;"">
                                <img src=""images/B_L_U_33.png"" style= ""width:200px""alt=""img"">
                            </div>
                        </div>","22","","0","images/B_L_U_33.png","","","","positive","1","33","B","L","U","",""
"","","","","","html-slider-response","164","265297","0.0-160.0","3ewmqxnuu6","3","NaN","<div style=""width:500px;"">
                            <p style=""font-size:50px; font-weight:bold;""
                            >positive</p>
                            <div style=""width:240px; margin: auto;"">
                                <img src=""images/R_L_S_10.png"" style= ""width:200px""alt=""img"">
                            </div>
                        </div>","26","","0","images/R_L_S_10.png","","","","positive","1","10","R","L","S","",""
"","","","","","html-slider-response","165","266082","0.0-161.0","3ewmqxnuu6","3","NaN","<div style=""width:500px;"">
                            <p style=""font-size:50px; font-weight:bold;""
                            >positive</p>
                            <div style=""width:240px; margin: auto;"">
                                <img src=""images/R_L_U_12.png"" style= ""width:200px""alt=""img"">
                            </div>
                        </div>","-48","","0","images/R_L_U_12.png","","","","positive","2","12","R","L","U","",""
"","","","","","html-slider-response","166","266749","0.0-162.0","3ewmqxnuu6","3","NaN","<div style=""width:500px;"">
                            <p style=""font-size:50px; font-weight:bold;""
                            >positive</p>
                            <div style=""width:240px; margin: auto;"">
                                <img src=""images/B_L_U_33.png"" style= ""width:200px""alt=""img"">
                            </div>
                        </div>","22","","0","images/B_L_U_33.png","","","","positive","2","33","B","L","U","",""
"","","","","","html-slider-response","167","267881","0.0-163.0","3ewmqxnuu6","3","NaN","<div style=""width:500px;"">
                            <p style=""font-size:50px; font-weight:bold;""
                            >positive</p>
                            <div style=""width:240px; margin: auto;"">
                                <img src=""images/Y_L_S_44.png"" style= ""width:200px""alt=""img"">
                            </div>
                        </div>","58","","0","images/Y_L_S_44.png","","","","positive","2","44","Y","L","S","",""
"","","","","","html-slider-response","168","268515","0.0-164.0","3ewmqxnuu6","3","NaN","<div style=""width:500px;"">
                            <p style=""font-size:50px; font-weight:bold;""
                            >positive</p>
                            <div style=""width:240px; margin: auto;"">
                                <img src=""images/G_D_U_28.png"" style= ""width:200px""alt=""img"">
                            </div>
                        </div>","-32","","0","images/G_D_U_28.png","","","","positive","2","28","G","D","U","",""
"","","","","","html-slider-response","169","269165","0.0-165.0","3ewmqxnuu6","3","NaN","<div style=""width:500px;"">
                            <p style=""font-size:50px; font-weight:bold;""
                            >positive</p>
                            <div style=""width:240px; margin: auto;"">
                                <img src=""images/R_D_U_15.png"" style= ""width:200px""alt=""img"">
                            </div>
                        </div>","98","","0","images/R_D_U_15.png","","","","positive","2","15","R","D","U","",""
"","","","","","html-slider-response","170","270765","0.0-166.0","3ewmqxnuu6","3","NaN","<div style=""width:500px;"">
                            <p style=""font-size:50px; font-weight:bold;""
                            >positive</p>
                            <div style=""width:240px; margin: auto;"">
                                <img src=""images/R_D_S_13.png"" style= ""width:200px""alt=""img"">
                            </div>
                        </div>","7","","0","images/R_D_S_13.png","","","","positive","1","13","R","D","S","",""
"","","","","","html-slider-response","171","274331","0.0-167.0","3ewmqxnuu6","3","NaN","<div style=""width:500px;"">
                            <p style=""font-size:50px; font-weight:bold;""
                            >positive</p>
                            <div style=""width:240px; margin: auto;"">
                                <img src=""images/R_D_U_15.png"" style= ""width:200px""alt=""img"">
                            </div>
                        </div>","-32","","0","images/R_D_U_15.png","","","","positive","1","15","R","D","U","",""
"","","","","","html-slider-response","172","275630","0.0-168.0","3ewmqxnuu6","3","NaN","<div style=""width:500px;"">
                            <p style=""font-size:50px; font-weight:bold;""
                            >positive</p>
                            <div style=""width:240px; margin: auto;"">
                                <img src=""images/G_L_S_23.png"" style= ""width:200px""alt=""img"">
                            </div>
                        </div>","106","","0","images/G_L_S_23.png","","","","positive","2","23","G","L","S","",""
"","","","","","html-slider-response","173","276732","0.0-169.0","3ewmqxnuu6","3","NaN","<div style=""width:500px;"">
                            <p style=""font-size:50px; font-weight:bold;""
                            >positive</p>
                            <div style=""width:240px; margin: auto;"">
                                <img src=""images/G_L_U_26.png"" style= ""width:200px""alt=""img"">
                            </div>
                        </div>","106","","0","images/G_L_U_26.png","","","","positive","1","26","G","L","U","",""
"","","","","","html-slider-response","174","278914","0.0-170.0","3ewmqxnuu6","3","NaN","<div style=""width:500px;"">
                            <p style=""font-size:50px; font-weight:bold;""
                            >positive</p>
                            <div style=""width:240px; margin: auto;"">
                                <img src=""images/B_L_S_30.png"" style= ""width:200px""alt=""img"">
                            </div>
                        </div>","124","","0","images/B_L_S_30.png","","","","positive","1","30","B","L","S","",""
"","","","","","html-slider-response","175","285932","0.0-171.0","3ewmqxnuu6","3","NaN","<div style=""width:500px;"">
                            <p style=""font-size:50px; font-weight:bold;""
                            >positive</p>
                            <div style=""width:240px; margin: auto;"">
                                <img src=""images/G_D_S_27.png"" style= ""width:200px""alt=""img"">
                            </div>
                        </div>","-35","","0","images/G_D_S_27.png","","","","positive","2","27","G","D","S","",""
"","","","","","html-slider-response","176","289331","0.0-172.0","3ewmqxnuu6","3","NaN","<div style=""width:500px;"">
                            <p style=""font-size:50px; font-weight:bold;""
                            >positive</p>
                            <div style=""width:240px; margin: auto;"">
                                <img src=""images/R_L_U_12.png"" style= ""width:200px""alt=""img"">
                            </div>
                        </div>","35","","0","images/R_L_U_12.png","","","","positive","1","12","R","L","U","",""
"","","","","","html-slider-response","177","291048","0.0-173.0","3ewmqxnuu6","3","NaN","<div style=""width:500px;"">
                            <p style=""font-size:50px; font-weight:bold;""
                            >positive</p>
                            <div style=""width:240px; margin: auto;"">
                                <img src=""images/Y_L_S_44.png"" style= ""width:200px""alt=""img"">
                            </div>
                        </div>","-38","","0","images/Y_L_S_44.png","","","","positive","1","44","Y","L","S","",""
"","","","","","html-slider-response","178","292032","0.0-174.0","3ewmqxnuu6","3","NaN","<div style=""width:500px;"">
                            <p style=""font-size:50px; font-weight:bold;""
                            >positive</p>
                            <div style=""width:240px; margin: auto;"">
                                <img src=""images/B_D_U_41.png"" style= ""width:200px""alt=""img"">
                            </div>
                        </div>","-38","","0","images/B_D_U_41.png","","","","positive","2","41","B","D","U","",""
"","","","","","html-slider-response","179","297432","0.0-175.0","3ewmqxnuu6","3","NaN","<div style=""width:500px;"">
                            <p style=""font-size:50px; font-weight:bold;""
                            >positive</p>
                            <div style=""width:240px; margin: auto;"">
                                <img src=""images/G_D_U_28.png"" style= ""width:200px""alt=""img"">
                            </div>
                        </div>","-82","","0","images/G_D_U_28.png","","","","positive","1","28","G","D","U","",""
"","","","","","html-slider-response","180","300599","0.0-176.0","3ewmqxnuu6","3","NaN","<div style=""width:500px;"">
                            <p style=""font-size:50px; font-weight:bold;""
                            >positive</p>
                            <div style=""width:240px; margin: auto;"">
                                <img src=""images/Y_D_S_05.png"" style= ""width:200px""alt=""img"">
                            </div>
                        </div>","-38","","0","images/Y_D_S_05.png","","","","positive","2","05","Y","D","S","",""
"","","","","","html-slider-response","181","307331","0.0-177.0","3ewmqxnuu6","3","NaN","<div style=""width:500px;"">
                            <p style=""font-size:50px; font-weight:bold;""
                            >positive</p>
                            <div style=""width:240px; margin: auto;"">
                                <img src=""images/B_D_U_41.png"" style= ""width:200px""alt=""img"">
                            </div>
                        </div>","40","","0","images/B_D_U_41.png","","","","positive","1","41","B","D","U","",""
"","","","","","html-slider-response","182","308532","0.0-178.0","3ewmqxnuu6","3","NaN","<div style=""width:500px;"">
                            <p style=""font-size:50px; font-weight:bold;""
                            >positive</p>
                            <div style=""width:240px; margin: auto;"">
                                <img src=""images/B_D_S_37.png"" style= ""width:200px""alt=""img"">
                            </div>
                        </div>","5","","0","images/B_D_S_37.png","","","","positive","1","37","B","D","S","",""
"","","","","","html-slider-response","183","310833","0.0-179.0","3ewmqxnuu6","3","NaN","<div style=""width:500px;"">
                            <p style=""font-size:50px; font-weight:bold;""
                            >positive</p>
                            <div style=""width:240px; margin: auto;"">
                                <img src=""images/Y_D_U_07.png"" style= ""width:200px""alt=""img"">
                            </div>
                        </div>","-200","","0","images/Y_D_U_07.png","","","","positive","1","07","Y","D","U","",""
"","","","","","html-slider-response","184","312415","0.0-180.0","3ewmqxnuu6","3","NaN","<div style=""width:500px;"">
                            <p style=""font-size:50px; font-weight:bold;""
                            >positive</p>
                            <div style=""width:240px; margin: auto;"">
                                <img src=""images/R_D_S_13.png"" style= ""width:200px""alt=""img"">
