"success","timeout","failed_images","failed_audio","failed_video","trial_type","trial_index","time_elapsed","internal_node_id","subject_id","condition_num","rt","stimulus","response","question_order","slider_start","image_path","practiceTrial","practiceTrialNum","correct","concept","repetition","map_id","hue","lightness","saturation","ishihara_plate","correct_response"
"true","false","[]","[]","[]","preload","0","907","0.0-0.0","42cwmjjnys","5","","","","","","","","","","","","","","","","",""
"","","","","","html-button-response","1","5138","0.0-1.0","42cwmjjnys","5","4229","Welcome to our experiment!<p>At the bottom of this screen, you will see a button that says ""Begin Experiment"".<br>Please only click that button when you are ready to complete the 25 minute experiment in one sitting.</p><p> Once you click that button, it will not be possible to restart the experiment.","0","","","","","","","","","","","","","",""
"true","","","","","fullscreen","2","8809","0.0-2.0","42cwmjjnys","5","2669","","","","","","","","","","","","","","","",""
"","","","","","survey-multi-select","3","21670","0.0-3.0","42cwmjjnys","5","12860","","{""Consent"":[""<strong>I consent</strong>""]}","[0]","","","","","","","","","","","","",""
"","","","","","html-button-response","4","24216","0.0-4.0","42cwmjjnys","5","2543","Welcome! <p> This experiment involves two parts: demographic information, followed by the experimental task.<p> It will take about 25 minutes to complete both parts.","0","","","","","","","","","","","","","",""
"","","","","","survey-text","5","33434","0.0-5.0","42cwmjjnys","5","9204","","{""Age"":""20"",""Gender"":""male"",""Race/ethnicity"":""black"",""Languages"":""english""}","","","","","","","","","","","","","",""
"","","","","","html-slider-response","6","57583","0.0-6.0","42cwmjjnys","5","24147","
                            <div style='text-align:left; font-size:20px; line-height:25px; width: 1400px;'>
                                During this experiment you will be asked to rate how much you associate maps with                    different concepts.<br> Below, you can see some examples of the maps you will be asked to rate. Next to the maps
                    is the list of concepts.<br>You will be asked                    to rate how much you associate each map with each concept on a scale from 'not at all' to 'very much' like the
                    one below. <br><br>
                    Now, please look at the list of concepts and maps. For each concept, think about the map you associate 'very
                    much' with the concept.<br>                     When you see that map during the experiment, please rate it near the 'very much' endpoint of the
                    scale.<br>Now, please think about which map you associate 'not at all'                     with each concept. When you see that map during the experiment, please rate it near the 'not at all' endpoint
                    of the scale.<br>
                    Please use the full range of the scale. That is, if a map is somewhat associated with the concept, you would
                    click partway between the middle point and right side of the scale.                    You will be asked to rate each map for a given concept before moving on to the next concept.<br><br>Press the
                    'Continue' button for instructions on how to use the slider.                    <br><br>
                </div>

                <div style=""width: 500px; margin: 0 auto;"">
                    <!-- Centered text paragraphs -->
                    <div style=""text-align: center; width: 500px;"">
                        <p style=""font-size:25px; line-height:18px;"">calm</p>
                        <p style=""font-size:25px; line-height:18px;"">exciting</p>
                        <p style=""font-size:25px;line-height:18px;"">positive</p>
                        <p style=""font-size:25px;line-height:18px;"">negative</p>
                        <p style=""font-size:25px;line-height:18px;"">serious</p>
                        <p style=""font-size:25px;line-height:18px;"">playful</p>
                        <p style=""font-size:25px;line-height:18px;"">trustworthy</p>
                        <p style=""font-size:25px;line-height:18px;"">disturbing</p>
                    </div>

                    <!-- Grid section -->
                   <div style=""display: flex; justify-content: center; padding-top: 15px;"">
                    <div style=""display: grid; grid-template-columns: repeat(8, 80px); grid-gap: 5px; width: auto;"">
                        <img src=""images/B_L_S_37.png"" alt=""map"" style=""width: 100%;""><img src=""images/Y_D_S_10.png"" alt=""map"" style=""width: 100%;""><img src=""images/B_D_U_02.png"" alt=""map"" style=""width: 100%;""><img src=""images/G_L_U_28.png"" alt=""map"" style=""width: 100%;""><img src=""images/G_D_S_30.png"" alt=""map"" style=""width: 100%;""><img src=""images/R_D_S_23.png"" alt=""map"" style=""width: 100%;""><img src=""images/B_L_U_41.png"" alt=""map"" style=""width: 100%;""><img src=""images/R_L_U_15.png"" alt=""map"" style=""width: 100%;""><img src=""images/R_L_S_13.png"" alt=""map"" style=""width: 100%;""><img src=""images/Y_D_U_12.png"" alt=""map"" style=""width: 100%;""><img src=""images/R_D_U_26.png"" alt=""map"" style=""width: 100%;""><img src=""images/Y_L_S_05.png"" alt=""map"" style=""width: 100%;""><img src=""images/Y_L_U_07.png"" alt=""map"" style=""width: 100%;""><img src=""images/B_D_S_44.png"" alt=""map"" style=""width: 100%;""><img src=""images/G_D_U_33.png"" alt=""map"" style=""width: 100%;""><img src=""images/G_L_S_27.png"" alt=""map"" style=""width: 100%;"">
                    </div>
                </div>

                    <!-- Clear floats -->
                    <div style=""clear: both;""></div>
                </div>
                            ","45","","0","maps_anchoring.png","true","","","","","","","","","",""
"","","","","","html-button-response","7","66034","0.0-7.0","42cwmjjnys","5","8449","<div style=""width:800px;""><p style=""text-align:left"">To move the slider, click and drag your cursor to the location of the scale where you would like to make your rating and then let go. When you let go of the slider, your response will be recorded and the next trial will begin. <br>
                    We are interested in your initial impressions of each map for the given concept, so please go with your first intuition. <br>
                    Before you begin the experiment, there will be four training trials for you to practice using the scale. <br>
                     When you are ready to start the training trials, please click ""Continue"".</p><br></div>","0","","","","","","","","","","","","","",""
"","","","","","html-slider-response","8","69121","0.0-8.0-0.0","42cwmjjnys","5","NaN","<div style=""width:500px;"">
                                    <p style=""font-size:25px;"">Please move the slider all the way to the <br> right endpoint of the scale</p>

                                    </div>
                                </div>","200","","0","","true","0","true","","","","","","","",""
"","","","","","html-button-response","9","70490","0.0-8.0-1.0","42cwmjjnys","5","866","<p align='center'><b>Good job!</b> Click on 'Continue' to proceed.</p>","0","","","","","","","","","","","","","",""
"","","","","","html-slider-response","10","71953","0.0-9.0-0.0","42cwmjjnys","5","NaN","<div style=""width:500px;"">
                                    <p style=""font-size:25px;"">Please move the slider all the way to the <br> left endpoint of the scale</p>

                                    </div>
                                </div>","-200","","0","","true","1","true","","","","","","","",""
"","","","","","html-button-response","11","73038","0.0-9.0-1.0","42cwmjjnys","5","583","<p align='center'><b>Good job!</b> Click on 'Continue' to proceed.</p>","0","","","","","","","","","","","","","",""
"","","","","","html-slider-response","12","78248","0.0-10.0-0.0","42cwmjjnys","5","NaN","<div style=""width:500px;"">
                                    <p style=""font-size:25px;"">Please move the slider halfway between the center and right endpoint of the scale</p>

                                    </div>
                                </div>","109","","0","","true","2","true","","","","","","","",""
"","","","","","html-button-response","13","79301","0.0-10.0-1.0","42cwmjjnys","5","551","<p align='center'><b>Good job!</b> Click on 'Continue' to proceed.</p>","0","","","","","","","","","","","","","",""
"","","","","","html-slider-response","14","81294","0.0-11.0-0.0","42cwmjjnys","5","NaN","<div style=""width:500px;"">
                                    <p style=""font-size:25px;"">Please move the slider halfway between the center and left endpoint of the scale</p>

                                    </div>
                                </div>","-112","","0","","true","3","false","","","","","","","",""
"","","","","","html-button-response","15","84839","0.0-11.0-1.0","42cwmjjnys","5","3043","<p align='center'><b>Not quite!</b> The slider was not placed near the instructed located. Click on 'Continue' to try again. </p>","0","","","","","","","","","","","","","",""
"","","","","","html-slider-response","16","88816","0.0-11.1-0.1","42cwmjjnys","5","NaN","<div style=""width:500px;"">
                                    <p style=""font-size:25px;"">Please move the slider halfway between the center and left endpoint of the scale</p>

                                    </div>
                                </div>","-105","","0","","true","3","true","","","","","","","",""
"","","","","","html-button-response","17","89981","0.0-11.1-1.1","42cwmjjnys","5","663","<p align='center'><b>Good job!</b> Click on 'Continue' to proceed.</p>","0","","","","","","","","","","","","","",""
"","","","","","html-button-response","18","91190","0.0-12.0","42cwmjjnys","5","1208","<p>Great job! You've completed the practice trials. Now you will begin the main task.</p>","0","","","","","","","","","","","","","",""
"","","","","","html-button-response","19","100050","0.0-13.0","42cwmjjnys","5","8858","<p>In this block of trials, you will be asked to rate how much you associate each map with:</p > <p style = 'font-size:150%; font-weight: bold'>disturbing</p><br></br>","0","","","","","","","","","","","","","",""
"","","","","","html-slider-response","20","101940","0.0-14.0","42cwmjjnys","5","NaN","<div style=""width:500px;"">
                            <p style=""font-size:50px; font-weight:bold;""
                            >disturbing</p>
                            <div style=""width:240px; margin: auto;"">
                                <img src=""images/R_D_U_26.png"" style= ""width:200px""alt=""img"">
                            </div>
                        </div>","200","","0","images/R_D_U_26.png","","","","disturbing","1","26","R","D","U","",""
"","","","","","html-slider-response","21","104519","0.0-15.0","42cwmjjnys","5","NaN","<div style=""width:500px;"">
                            <p style=""font-size:50px; font-weight:bold;""
                            >disturbing</p>
                            <div style=""width:240px; margin: auto;"">
                                <img src=""images/Y_D_U_12.png"" style= ""width:200px""alt=""img"">
                            </div>
                        </div>","82","","0","images/Y_D_U_12.png","","","","disturbing","1","12","Y","D","U","",""
"","","","","","html-slider-response","22","106284","0.0-16.0","42cwmjjnys","5","NaN","<div style=""width:500px;"">
                            <p style=""font-size:50px; font-weight:bold;""
                            >disturbing</p>
                            <div style=""width:240px; margin: auto;"">
                                <img src=""images/R_L_U_15.png"" style= ""width:200px""alt=""img"">
                            </div>
                        </div>","114","","0","images/R_L_U_15.png","","","","disturbing","1","15","R","L","U","",""
"","","","","","html-slider-response","23","108308","0.0-17.0","42cwmjjnys","5","NaN","<div style=""width:500px;"">
                            <p style=""font-size:50px; font-weight:bold;""
                            >disturbing</p>
                            <div style=""width:240px; margin: auto;"">
                                <img src=""images/Y_L_U_07.png"" style= ""width:200px""alt=""img"">
                            </div>
                        </div>","30","","0","images/Y_L_U_07.png","","","","disturbing","1","07","Y","L","U","",""
"","","","","","html-slider-response","24","111016","0.0-18.0","42cwmjjnys","5","NaN","<div style=""width:500px;"">
                            <p style=""font-size:50px; font-weight:bold;""
                            >disturbing</p>
                            <div style=""width:240px; margin: auto;"">
                                <img src=""images/R_L_S_13.png"" style= ""width:200px""alt=""img"">
                            </div>
                        </div>","-36","","0","images/R_L_S_13.png","","","","disturbing","2","13","R","L","S","",""
"","","","","","html-slider-response","25","112587","0.0-19.0","42cwmjjnys","5","NaN","<div style=""width:500px;"">
                            <p style=""font-size:50px; font-weight:bold;""
                            >disturbing</p>
                            <div style=""width:240px; margin: auto;"">
                                <img src=""images/Y_D_U_12.png"" style= ""width:200px""alt=""img"">
                            </div>
                        </div>","-112","","0","images/Y_D_U_12.png","","","","disturbing","2","12","Y","D","U","",""
"","","","","","html-slider-response","26","115408","0.0-20.0","42cwmjjnys","5","NaN","<div style=""width:500px;"">
                            <p style=""font-size:50px; font-weight:bold;""
                            >disturbing</p>
                            <div style=""width:240px; margin: auto;"">
                                <img src=""images/R_L_U_15.png"" style= ""width:200px""alt=""img"">
                            </div>
                        </div>","85","","0","images/R_L_U_15.png","","","","disturbing","2","15","R","L","U","",""
"","","","","","html-slider-response","27","117255","0.0-21.0","42cwmjjnys","5","NaN","<div style=""width:500px;"">
                            <p style=""font-size:50px; font-weight:bold;""
                            >disturbing</p>
                            <div style=""width:240px; margin: auto;"">
                                <img src=""images/G_L_S_27.png"" style= ""width:200px""alt=""img"">
                            </div>
                        </div>","-186","","0","images/G_L_S_27.png","","","","disturbing","2","27","G","L","S","",""
"","","","","","html-slider-response","28","119238","0.0-22.0","42cwmjjnys","5","NaN","<div style=""width:500px;"">
                            <p style=""font-size:50px; font-weight:bold;""
                            >disturbing</p>
                            <div style=""width:240px; margin: auto;"">
                                <img src=""images/Y_L_S_05.png"" style= ""width:200px""alt=""img"">
                            </div>
                        </div>","-126","","0","images/Y_L_S_05.png","","","","disturbing","2","05","Y","L","S","",""
"","","","","","html-slider-response","29","120970","0.0-23.0","42cwmjjnys","5","NaN","<div style=""width:500px;"">
                            <p style=""font-size:50px; font-weight:bold;""
                            >disturbing</p>
                            <div style=""width:240px; margin: auto;"">
                                <img src=""images/Y_L_U_07.png"" style= ""width:200px""alt=""img"">
                            </div>
                        </div>","-77","","0","images/Y_L_U_07.png","","","","disturbing","2","07","Y","L","U","",""
"","","","","","html-slider-response","30","122453","0.0-24.0","42cwmjjnys","5","NaN","<div style=""width:500px;"">
                            <p style=""font-size:50px; font-weight:bold;""
                            >disturbing</p>
                            <div style=""width:240px; margin: auto;"">
                                <img src=""images/Y_L_S_05.png"" style= ""width:200px""alt=""img"">
                            </div>
                        </div>","-168","","0","images/Y_L_S_05.png","","","","disturbing","1","05","Y","L","S","",""
"","","","","","html-slider-response","31","124437","0.0-25.0","42cwmjjnys","5","NaN","<div style=""width:500px;"">
                            <p style=""font-size:50px; font-weight:bold;""
                            >disturbing</p>
                            <div style=""width:240px; margin: auto;"">
                                <img src=""images/B_L_S_37.png"" style= ""width:200px""alt=""img"">
                            </div>
                        </div>","-66","","0","images/B_L_S_37.png","","","","disturbing","2","37","B","L","S","",""
"","","","","","html-slider-response","32","126233","0.0-26.0","42cwmjjnys","5","NaN","<div style=""width:500px;"">
                            <p style=""font-size:50px; font-weight:bold;""
                            >disturbing</p>
                            <div style=""width:240px; margin: auto;"">
                                <img src=""images/G_D_S_30.png"" style= ""width:200px""alt=""img"">
                            </div>
                        </div>","-120","","0","images/G_D_S_30.png","","","","disturbing","2","30","G","D","S","",""
"","","","","","html-slider-response","33","127958","0.0-27.0","42cwmjjnys","5","NaN","<div style=""width:500px;"">
                            <p style=""font-size:50px; font-weight:bold;""
                            >disturbing</p>
                            <div style=""width:240px; margin: auto;"">
                                <img src=""images/G_D_U_33.png"" style= ""width:200px""alt=""img"">
                            </div>
                        </div>","46","","0","images/G_D_U_33.png","","","","disturbing","2","33","G","D","U","",""
"","","","","","html-slider-response","34","129440","0.0-28.0","42cwmjjnys","5","NaN","<div style=""width:500px;"">
                            <p style=""font-size:50px; font-weight:bold;""
                            >disturbing</p>
                            <div style=""width:240px; margin: auto;"">
                                <img src=""images/G_D_S_30.png"" style= ""width:200px""alt=""img"">
                            </div>
                        </div>","54","","0","images/G_D_S_30.png","","","","disturbing","1","30","G","D","S","",""
"","","","","","html-slider-response","35","130874","0.0-29.0","42cwmjjnys","5","NaN","<div style=""width:500px;"">
                            <p style=""font-size:50px; font-weight:bold;""
                            >disturbing</p>
                            <div style=""width:240px; margin: auto;"">
                                <img src=""images/B_L_U_41.png"" style= ""width:200px""alt=""img"">
                            </div>
                        </div>","-94","","0","images/B_L_U_41.png","","","","disturbing","2","41","B","L","U","",""
"","","","","","html-slider-response","36","132382","0.0-30.0","42cwmjjnys","5","NaN","<div style=""width:500px;"">
                            <p style=""font-size:50px; font-weight:bold;""
                            >disturbing</p>
                            <div style=""width:240px; margin: auto;"">
                                <img src=""images/B_L_U_41.png"" style= ""width:200px""alt=""img"">
                            </div>
                        </div>","-54","","0","images/B_L_U_41.png","","","","disturbing","1","41","B","L","U","",""
"","","","","","html-slider-response","37","133986","0.0-31.0","42cwmjjnys","5","NaN","<div style=""width:500px;"">
                            <p style=""font-size:50px; font-weight:bold;""
                            >disturbing</p>
                            <div style=""width:240px; margin: auto;"">
                                <img src=""images/B_D_S_44.png"" style= ""width:200px""alt=""img"">
                            </div>
                        </div>","-186","","0","images/B_D_S_44.png","","","","disturbing","2","44","B","D","S","",""
"","","","","","html-slider-response","38","135535","0.0-32.0","42cwmjjnys","5","NaN","<div style=""width:500px;"">
                            <p style=""font-size:50px; font-weight:bold;""
                            >disturbing</p>
                            <div style=""width:240px; margin: auto;"">
                                <img src=""images/B_D_S_44.png"" style= ""width:200px""alt=""img"">
                            </div>
                        </div>","-166","","0","images/B_D_S_44.png","","","","disturbing","1","44","B","D","S","",""
"","","","","","html-slider-response","39","140024","0.0-33.0","42cwmjjnys","5","NaN","<div style=""width:500px;"">
                            <p style=""font-size:50px; font-weight:bold;""
                            >disturbing</p>
                            <div style=""width:240px; margin: auto;"">
                                <img src=""images/R_D_S_23.png"" style= ""width:200px""alt=""img"">
                            </div>
                        </div>","109","","0","images/R_D_S_23.png","","","","disturbing","2","23","R","D","S","",""
"","","","","","html-slider-response","40","141449","0.0-34.0","42cwmjjnys","5","NaN","<div style=""width:500px;"">
                            <p style=""font-size:50px; font-weight:bold;""
                            >disturbing</p>
                            <div style=""width:240px; margin: auto;"">
                                <img src=""images/R_D_U_26.png"" style= ""width:200px""alt=""img"">
                            </div>
                        </div>","166","","0","images/R_D_U_26.png","","","","disturbing","2","26","R","D","U","",""
"","","","","","html-slider-response","41","142843","0.0-35.0","42cwmjjnys","5","NaN","<div style=""width:500px;"">
                            <p style=""font-size:50px; font-weight:bold;""
                            >disturbing</p>
                            <div style=""width:240px; margin: auto;"">
                                <img src=""images/G_D_U_33.png"" style= ""width:200px""alt=""img"">
                            </div>
                        </div>","-74","","0","images/G_D_U_33.png","","","","disturbing","1","33","G","D","U","",""
"","","","","","html-slider-response","42","144407","0.0-36.0","42cwmjjnys","5","NaN","<div style=""width:500px;"">
                            <p style=""font-size:50px; font-weight:bold;""
                            >disturbing</p>
                            <div style=""width:240px; margin: auto;"">
                                <img src=""images/G_L_S_27.png"" style= ""width:200px""alt=""img"">
                            </div>
                        </div>","-156","","0","images/G_L_S_27.png","","","","disturbing","1","27","G","L","S","",""
"","","","","","html-slider-response","43","145890","0.0-37.0","42cwmjjnys","5","NaN","<div style=""width:500px;"">
                            <p style=""font-size:50px; font-weight:bold;""
                            >disturbing</p>
                            <div style=""width:240px; margin: auto;"">
                                <img src=""images/R_D_S_23.png"" style= ""width:200px""alt=""img"">
                            </div>
                        </div>","185","","0","images/R_D_S_23.png","","","","disturbing","1","23","R","D","S","",""
"","","","","","html-slider-response","44","147254","0.0-38.0","42cwmjjnys","5","NaN","<div style=""width:500px;"">
                            <p style=""font-size:50px; font-weight:bold;""
                            >disturbing</p>
                            <div style=""width:240px; margin: auto;"">
                                <img src=""images/B_L_S_37.png"" style= ""width:200px""alt=""img"">
                            </div>
                        </div>","-114","","0","images/B_L_S_37.png","","","","disturbing","1","37","B","L","S","",""
"","","","","","html-slider-response","45","149179","0.0-39.0","42cwmjjnys","5","NaN","<div style=""width:500px;"">
                            <p style=""font-size:50px; font-weight:bold;""
                            >disturbing</p>
                            <div style=""width:240px; margin: auto;"">
                                <img src=""images/Y_D_S_10.png"" style= ""width:200px""alt=""img"">
                            </div>
                        </div>","16","","0","images/Y_D_S_10.png","","","","disturbing","1","10","Y","D","S","",""
"","","","","","html-slider-response","46","150573","0.0-40.0","42cwmjjnys","5","NaN","<div style=""width:500px;"">
                            <p style=""font-size:50px; font-weight:bold;""
                            >disturbing</p>
                            <div style=""width:240px; margin: auto;"">
                                <img src=""images/B_D_U_02.png"" style= ""width:200px""alt=""img"">
                            </div>
                        </div>","-60","","0","images/B_D_U_02.png","","","","disturbing","1","02","B","D","U","",""
"","","","","","html-slider-response","47","151958","0.0-41.0","42cwmjjnys","5","NaN","<div style=""width:500px;"">
                            <p style=""font-size:50px; font-weight:bold;""
                            >disturbing</p>
                            <div style=""width:240px; margin: auto;"">
                                <img src=""images/Y_D_S_10.png"" style= ""width:200px""alt=""img"">
                            </div>
                        </div>","-23","","0","images/Y_D_S_10.png","","","","disturbing","2","10","Y","D","S","",""
"","","","","","html-slider-response","48","153336","0.0-42.0","42cwmjjnys","5","NaN","<div style=""width:500px;"">
                            <p style=""font-size:50px; font-weight:bold;""
                            >disturbing</p>
                            <div style=""width:240px; margin: auto;"">
                                <img src=""images/G_L_U_28.png"" style= ""width:200px""alt=""img"">
                            </div>
                        </div>","-134","","0","images/G_L_U_28.png","","","","disturbing","2","28","G","L","U","",""
"","","","","","html-slider-response","49","154587","0.0-43.0","42cwmjjnys","5","NaN","<div style=""width:500px;"">
                            <p style=""font-size:50px; font-weight:bold;""
                            >disturbing</p>
                            <div style=""width:240px; margin: auto;"">
                                <img src=""images/G_L_U_28.png"" style= ""width:200px""alt=""img"">
                            </div>
                        </div>","-60","","0","images/G_L_U_28.png","","","","disturbing","1","28","G","L","U","",""
"","","","","","html-slider-response","50","156016","0.0-44.0","42cwmjjnys","5","NaN","<div style=""width:500px;"">
                            <p style=""font-size:50px; font-weight:bold;""
                            >disturbing</p>
                            <div style=""width:240px; margin: auto;"">
                                <img src=""images/B_D_U_02.png"" style= ""width:200px""alt=""img"">
                            </div>
                        </div>","-35","","0","images/B_D_U_02.png","","","","disturbing","2","02","B","D","U","",""
"","","","","","html-slider-response","51","157401","0.0-45.0","42cwmjjnys","5","NaN","<div style=""width:500px;"">
                            <p style=""font-size:50px; font-weight:bold;""
                            >disturbing</p>
                            <div style=""width:240px; margin: auto;"">
                                <img src=""images/R_L_S_13.png"" style= ""width:200px""alt=""img"">
                            </div>
                        </div>","178","","0","images/R_L_S_13.png","","","","disturbing","1","13","R","L","S","",""
"","","","","","html-button-response","52","159968","0.0-46.0","42cwmjjnys","5","2065","<p>Great Job! You've finished block 1.<br></br> You have 7 block(s) left to go.<br></br></p>","0","","","","","","","","","","","","","",""
"","","","","","html-button-response","53","161701","0.0-47.0","42cwmjjnys","5","1732","<p>In this block of trials, you will be asked to rate how much you associate each map with:</p > <p style = 'font-size:150%; font-weight: bold'>trustworthy</p><br></br>","0","","","","","","","","","","","","","",""
"","","","","","html-slider-response","54","163438","0.0-48.0","42cwmjjnys","5","NaN","<div style=""width:500px;"">
                            <p style=""font-size:50px; font-weight:bold;""
                            >trustworthy</p>
                            <div style=""width:240px; margin: auto;"">
                                <img src=""images/G_D_S_30.png"" style= ""width:200px""alt=""img"">
                            </div>
                        </div>","70","","0","images/G_D_S_30.png","","","","trustworthy","2","30","G","D","S","",""
"","","","","","html-slider-response","55","164983","0.0-49.0","42cwmjjnys","5","NaN","<div style=""width:500px;"">
                            <p style=""font-size:50px; font-weight:bold;""
                            >trustworthy</p>
                            <div style=""width:240px; margin: auto;"">
                                <img src=""images/G_D_U_33.png"" style= ""width:200px""alt=""img"">
                            </div>
                        </div>","116","","0","images/G_D_U_33.png","","","","trustworthy","2","33","G","D","U","",""
"","","","","","html-slider-response","56","166974","0.0-50.0","42cwmjjnys","5","NaN","<div style=""width:500px;"">
                            <p style=""font-size:50px; font-weight:bold;""
                            >trustworthy</p>
                            <div style=""width:240px; margin: auto;"">
                                <img src=""images/B_D_U_02.png"" style= ""width:200px""alt=""img"">
                            </div>
                        </div>","-110","","0","images/B_D_U_02.png","","","","trustworthy","1","02","B","D","U","",""
"","","","","","html-slider-response","57","168497","0.0-51.0","42cwmjjnys","5","NaN","<div style=""width:500px;"">
                            <p style=""font-size:50px; font-weight:bold;""
                            >trustworthy</p>
                            <div style=""width:240px; margin: auto;"">
                                <img src=""images/B_D_U_02.png"" style= ""width:200px""alt=""img"">
                            </div>
                        </div>","-133","","0","images/B_D_U_02.png","","","","trustworthy","2","02","B","D","U","",""
"","","","","","html-slider-response","58","170374","0.0-52.0","42cwmjjnys","5","NaN","<div style=""width:500px;"">
                            <p style=""font-size:50px; font-weight:bold;""
                            >trustworthy</p>
                            <div style=""width:240px; margin: auto;"">
                                <img src=""images/R_D_U_26.png"" style= ""width:200px""alt=""img"">
                            </div>
                        </div>","54","","0","images/R_D_U_26.png","","","","trustworthy","2","26","R","D","U","",""
"","","","","","html-slider-response","59","171721","0.0-53.0","42cwmjjnys","5","NaN","<div style=""width:500px;"">
                            <p style=""font-size:50px; font-weight:bold;""
                            >trustworthy</p>
                            <div style=""width:240px; margin: auto;"">
                                <img src=""images/B_L_U_41.png"" style= ""width:200px""alt=""img"">
                            </div>
                        </div>","127","","0","images/B_L_U_41.png","","","","trustworthy","1","41","B","L","U","",""
"","","","","","html-slider-response","60","174268","0.0-54.0","42cwmjjnys","5","NaN","<div style=""width:500px;"">
                            <p style=""font-size:50px; font-weight:bold;""
                            >trustworthy</p>
                            <div style=""width:240px; margin: auto;"">
                                <img src=""images/R_D_S_23.png"" style= ""width:200px""alt=""img"">
                            </div>
                        </div>","130","","0","images/R_D_S_23.png","","","","trustworthy","2","23","R","D","S","",""
"","","","","","html-slider-response","61","175631","0.0-55.0","42cwmjjnys","5","NaN","<div style=""width:500px;"">
                            <p style=""font-size:50px; font-weight:bold;""
                            >trustworthy</p>
                            <div style=""width:240px; margin: auto;"">
                                <img src=""images/B_L_S_37.png"" style= ""width:200px""alt=""img"">
                            </div>
                        </div>","-85","","0","images/B_L_S_37.png","","","","trustworthy","2","37","B","L","S","",""
"","","","","","html-slider-response","62","177363","0.0-56.0","42cwmjjnys","5","NaN","<div style=""width:500px;"">
                            <p style=""font-size:50px; font-weight:bold;""
                            >trustworthy</p>
                            <div style=""width:240px; margin: auto;"">
                                <img src=""images/Y_L_U_07.png"" style= ""width:200px""alt=""img"">
                            </div>
                        </div>","34","","0","images/Y_L_U_07.png","","","","trustworthy","2","07","Y","L","U","",""
"","","","","","html-slider-response","63","179315","0.0-57.0","42cwmjjnys","5","NaN","<div style=""width:500px;"">
                            <p style=""font-size:50px; font-weight:bold;""
                            >trustworthy</p>
                            <div style=""width:240px; margin: auto;"">
                                <img src=""images/Y_L_S_05.png"" style= ""width:200px""alt=""img"">
                            </div>
                        </div>","70","","0","images/Y_L_S_05.png","","","","trustworthy","2","05","Y","L","S","",""
"","","","","","html-slider-response","64","180968","0.0-58.0","42cwmjjnys","5","NaN","<div style=""width:500px;"">
                            <p style=""font-size:50px; font-weight:bold;""
                            >trustworthy</p>
                            <div style=""width:240px; margin: auto;"">
                                <img src=""images/Y_L_U_07.png"" style= ""width:200px""alt=""img"">
                            </div>
                        </div>","86","","0","images/Y_L_U_07.png","","","","trustworthy","1","07","Y","L","U","",""
"","","","","","html-slider-response","65","182527","0.0-59.0","42cwmjjnys","5","NaN","<div style=""width:500px;"">
                            <p style=""font-size:50px; font-weight:bold;""
                            >trustworthy</p>
                            <div style=""width:240px; margin: auto;"">
                                <img src=""images/B_L_U_41.png"" style= ""width:200px""alt=""img"">
                            </div>
                        </div>","112","","0","images/B_L_U_41.png","","","","trustworthy","2","41","B","L","U","",""
"","","","","","html-slider-response","66","184083","0.0-60.0","42cwmjjnys","5","NaN","<div style=""width:500px;"">
                            <p style=""font-size:50px; font-weight:bold;""
                            >trustworthy</p>
                            <div style=""width:240px; margin: auto;"">
                                <img src=""images/G_L_S_27.png"" style= ""width:200px""alt=""img"">
                            </div>
                        </div>","112","","0","images/G_L_S_27.png","","","","trustworthy","2","27","G","L","S","",""
"","","","","","html-slider-response","67","185566","0.0-61.0","42cwmjjnys","5","NaN","<div style=""width:500px;"">
                            <p style=""font-size:50px; font-weight:bold;""
                            >trustworthy</p>
                            <div style=""width:240px; margin: auto;"">
                                <img src=""images/G_L_U_28.png"" style= ""width:200px""alt=""img"">
                            </div>
                        </div>","158","","0","images/G_L_U_28.png","","","","trustworthy","1","28","G","L","U","",""
"","","","","","html-slider-response","68","187315","0.0-62.0","42cwmjjnys","5","NaN","<div style=""width:500px;"">
                            <p style=""font-size:50px; font-weight:bold;""
                            >trustworthy</p>
                            <div style=""width:240px; margin: auto;"">
                                <img src=""images/B_D_S_44.png"" style= ""width:200px""alt=""img"">
                            </div>
                        </div>","73","","0","images/B_D_S_44.png","","","","trustworthy","2","44","B","D","S","",""
"","","","","","html-slider-response","69","188731","0.0-63.0","42cwmjjnys","5","NaN","<div style=""width:500px;"">
                            <p style=""font-size:50px; font-weight:bold;""
                            >trustworthy</p>
                            <div style=""width:240px; margin: auto;"">
                                <img src=""images/R_L_U_15.png"" style= ""width:200px""alt=""img"">
                            </div>
                        </div>","-124","","0","images/R_L_U_15.png","","","","trustworthy","2","15","R","L","U","",""
"","","","","","html-slider-response","70","190247","0.0-64.0","42cwmjjnys","5","NaN","<div style=""width:500px;"">
                            <p style=""font-size:50px; font-weight:bold;""
                            >trustworthy</p>
                            <div style=""width:240px; margin: auto;"">
                                <img src=""images/Y_L_S_05.png"" style= ""width:200px""alt=""img"">
                            </div>
                        </div>","44","","0","images/Y_L_S_05.png","","","","trustworthy","1","05","Y","L","S","",""
"","","","","","html-slider-response","71","191680","0.0-65.0","42cwmjjnys","5","NaN","<div style=""width:500px;"">
                            <p style=""font-size:50px; font-weight:bold;""
                            >trustworthy</p>
                            <div style=""width:240px; margin: auto;"">
                                <img src=""images/R_D_S_23.png"" style= ""width:200px""alt=""img"">
                            </div>
                        </div>","-107","","0","images/R_D_S_23.png","","","","trustworthy","1","23","R","D","S","",""
"","","","","","html-slider-response","72","193334","0.0-66.0","42cwmjjnys","5","NaN","<div style=""width:500px;"">
                            <p style=""font-size:50px; font-weight:bold;""
                            >trustworthy</p>
                            <div style=""width:240px; margin: auto;"">
                                <img src=""images/Y_D_S_10.png"" style= ""width:200px""alt=""img"">
                            </div>
                        </div>","-195","","0","images/Y_D_S_10.png","","","","trustworthy","1","10","Y","D","S","",""
"","","","","","html-slider-response","73","195041","0.0-67.0","42cwmjjnys","5","NaN","<div style=""width:500px;"">
                            <p style=""font-size:50px; font-weight:bold;""
                            >trustworthy</p>
                            <div style=""width:240px; margin: auto;"">
                                <img src=""images/G_D_S_30.png"" style= ""width:200px""alt=""img"">
                            </div>
                        </div>","141","","0","images/G_D_S_30.png","","","","trustworthy","1","30","G","D","S","",""
"","","","","","html-slider-response","74","196491","0.0-68.0","42cwmjjnys","5","NaN","<div style=""width:500px;"">
                            <p style=""font-size:50px; font-weight:bold;""
                            >trustworthy</p>
                            <div style=""width:240px; margin: auto;"">
                                <img src=""images/R_L_S_13.png"" style= ""width:200px""alt=""img"">
                            </div>
                        </div>","35","","0","images/R_L_S_13.png","","","","trustworthy","1","13","R","L","S","",""
"","","","","","html-slider-response","75","197942","0.0-69.0","42cwmjjnys","5","NaN","<div style=""width:500px;"">
                            <p style=""font-size:50px; font-weight:bold;""
                            >trustworthy</p>
                            <div style=""width:240px; margin: auto;"">
                                <img src=""images/G_D_U_33.png"" style= ""width:200px""alt=""img"">
                            </div>
                        </div>","2","","0","images/G_D_U_33.png","","","","trustworthy","1","33","G","D","U","",""
"","","","","","html-slider-response","76","199522","0.0-70.0","42cwmjjnys","5","NaN","<div style=""width:500px;"">
                            <p style=""font-size:50px; font-weight:bold;""
                            >trustworthy</p>
                            <div style=""width:240px; margin: auto;"">
                                <img src=""images/G_L_U_28.png"" style= ""width:200px""alt=""img"">
                            </div>
                        </div>","74","","0","images/G_L_U_28.png","","","","trustworthy","2","28","G","L","U","",""
"","","","","","html-slider-response","77","201064","0.0-71.0","42cwmjjnys","5","NaN","<div style=""width:500px;"">
                            <p style=""font-size:50px; font-weight:bold;""
                            >trustworthy</p>
                            <div style=""width:240px; margin: auto;"">
                                <img src=""images/B_D_S_44.png"" style= ""width:200px""alt=""img"">
                            </div>
                        </div>","-98","","0","images/B_D_S_44.png","","","","trustworthy","1","44","B","D","S","",""
"","","","","","html-slider-response","78","203319","0.0-72.0","42cwmjjnys","5","NaN","<div style=""width:500px;"">
                            <p style=""font-size:50px; font-weight:bold;""
                            >trustworthy</p>
                            <div style=""width:240px; margin: auto;"">
                                <img src=""images/R_D_U_26.png"" style= ""width:200px""alt=""img"">
                            </div>
                        </div>","-171","","0","images/R_D_U_26.png","","","","trustworthy","1","26","R","D","U","",""
"","","","","","html-slider-response","79","205024","0.0-73.0","42cwmjjnys","5","NaN","<div style=""width:500px;"">
                            <p style=""font-size:50px; font-weight:bold;""
                            >trustworthy</p>
                            <div style=""width:240px; margin: auto;"">
                                <img src=""images/R_L_S_13.png"" style= ""width:200px""alt=""img"">
                            </div>
                        </div>","-123","","0","images/R_L_S_13.png","","","","trustworthy","2","13","R","L","S","",""
"","","","","","html-slider-response","80","206848","0.0-74.0","42cwmjjnys","5","NaN","<div style=""width:500px;"">
                            <p style=""font-size:50px; font-weight:bold;""
                            >trustworthy</p>
                            <div style=""width:240px; margin: auto;"">
                                <img src=""images/Y_D_U_12.png"" style= ""width:200px""alt=""img"">
                            </div>
                        </div>","-52","","0","images/Y_D_U_12.png","","","","trustworthy","2","12","Y","D","U","",""
"","","","","","html-slider-response","81","208281","0.0-75.0","42cwmjjnys","5","NaN","<div style=""width:500px;"">
                            <p style=""font-size:50px; font-weight:bold;""
                            >trustworthy</p>
                            <div style=""width:240px; margin: auto;"">
                                <img src=""images/R_L_U_15.png"" style= ""width:200px""alt=""img"">
                            </div>
                        </div>","-158","","0","images/R_L_U_15.png","","","","trustworthy","1","15","R","L","U","",""
"","","","","","html-slider-response","82","209669","0.0-76.0","42cwmjjnys","5","NaN","<div style=""width:500px;"">
                            <p style=""font-size:50px; font-weight:bold;""
                            >trustworthy</p>
                            <div style=""width:240px; margin: auto;"">
                                <img src=""images/Y_D_S_10.png"" style= ""width:200px""alt=""img"">
                            </div>
                        </div>","-179","","0","images/Y_D_S_10.png","","","","trustworthy","2","10","Y","D","S","",""
"","","","","","html-slider-response","83","211206","0.0-77.0","42cwmjjnys","5","NaN","<div style=""width:500px;"">
                            <p style=""font-size:50px; font-weight:bold;""
                            >trustworthy</p>
                            <div style=""width:240px; margin: auto;"">
                                <img src=""images/B_L_S_37.png"" style= ""width:200px""alt=""img"">
                            </div>
                        </div>","-130","","0","images/B_L_S_37.png","","","","trustworthy","1","37","B","L","S","",""
"","","","","","html-slider-response","84","212623","0.0-78.0","42cwmjjnys","5","NaN","<div style=""width:500px;"">
                            <p style=""font-size:50px; font-weight:bold;""
                            >trustworthy</p>
                            <div style=""width:240px; margin: auto;"">
                                <img src=""images/Y_D_U_12.png"" style= ""width:200px""alt=""img"">
                            </div>
                        </div>","-67","","0","images/Y_D_U_12.png","","","","trustworthy","1","12","Y","D","U","",""
"","","","","","html-slider-response","85","214018","0.0-79.0","42cwmjjnys","5","NaN","<div style=""width:500px;"">
                            <p style=""font-size:50px; font-weight:bold;""
                            >trustworthy</p>
                            <div style=""width:240px; margin: auto;"">
                                <img src=""images/G_L_S_27.png"" style= ""width:200px""alt=""img"">
                            </div>
                        </div>","80","","0","images/G_L_S_27.png","","","","trustworthy","1","27","G","L","S","",""
"","","","","","html-button-response","86","215337","0.0-80.0","42cwmjjnys","5","817","<p>Great Job! You've finished block 2.<br></br> You have 6 block(s) left to go.<br></br></p>","0","","","","","","","","","","","","","",""
"","","","","","html-button-response","87","216134","0.0-81.0","42cwmjjnys","5","796","<p>In this block of trials, you will be asked to rate how much you associate each map with:</p > <p style = 'font-size:150%; font-weight: bold'>playful</p><br></br>","0","","","","","","","","","","","","","",""
"","","","","","html-slider-response","88","218207","0.0-82.0","42cwmjjnys","5","NaN","<div style=""width:500px;"">
                            <p style=""font-size:50px; font-weight:bold;""
                            >playful</p>
                            <div style=""width:240px; margin: auto;"">
                                <img src=""images/G_L_U_28.png"" style= ""width:200px""alt=""img"">
                            </div>
                        </div>","14","","0","images/G_L_U_28.png","","","","playful","1","28","G","L","U","",""
"","","","","","html-slider-response","89","219570","0.0-83.0","42cwmjjnys","5","NaN","<div style=""width:500px;"">
                            <p style=""font-size:50px; font-weight:bold;""
                            >playful</p>
                            <div style=""width:240px; margin: auto;"">
                                <img src=""images/G_L_S_27.png"" style= ""width:200px""alt=""img"">
                            </div>
                        </div>","51","","0","images/G_L_S_27.png","","","","playful","2","27","G","L","S","",""
"","","","","","html-slider-response","90","221140","0.0-84.0","42cwmjjnys","5","NaN","<div style=""width:500px;"">
                            <p style=""font-size:50px; font-weight:bold;""
                            >playful</p>
                            <div style=""width:240px; margin: auto;"">
                                <img src=""images/Y_L_S_05.png"" style= ""width:200px""alt=""img"">
                            </div>
                        </div>","94","","0","images/Y_L_S_05.png","","","","playful","1","05","Y","L","S","",""
"","","","","","html-slider-response","91","222567","0.0-85.0","42cwmjjnys","5","NaN","<div style=""width:500px;"">
                            <p style=""font-size:50px; font-weight:bold;""
                            >playful</p>
                            <div style=""width:240px; margin: auto;"">
                                <img src=""images/Y_L_S_05.png"" style= ""width:200px""alt=""img"">
                            </div>
                        </div>","153","","0","images/Y_L_S_05.png","","","","playful","2","05","Y","L","S","",""
"","","","","","html-slider-response","92","224003","0.0-86.0","42cwmjjnys","5","NaN","<div style=""width:500px;"">
                            <p style=""font-size:50px; font-weight:bold;""
                            >playful</p>
                            <div style=""width:240px; margin: auto;"">
                                <img src=""images/G_L_S_27.png"" style= ""width:200px""alt=""img"">
                            </div>
                        </div>","74","","0","images/G_L_S_27.png","","","","playful","1","27","G","L","S","",""
"","","","","","html-slider-response","93","225469","0.0-87.0","42cwmjjnys","5","NaN","<div style=""width:500px;"">
                            <p style=""font-size:50px; font-weight:bold;""
                            >playful</p>
                            <div style=""width:240px; margin: auto;"">
                                <img src=""images/B_L_S_37.png"" style= ""width:200px""alt=""img"">
                            </div>
                        </div>","-86","","0","images/B_L_S_37.png","","","","playful","1","37","B","L","S","",""
"","","","","","html-slider-response","94","226789","0.0-88.0","42cwmjjnys","5","NaN","<div style=""width:500px;"">
                            <p style=""font-size:50px; font-weight:bold;""
                            >playful</p>
                            <div style=""width:240px; margin: auto;"">
                                <img src=""images/R_D_U_26.png"" style= ""width:200px""alt=""img"">
                            </div>
                        </div>","131","","0","images/R_D_U_26.png","","","","playful","1","26","R","D","U","",""
"","","","","","html-slider-response","95","228169","0.0-89.0","42cwmjjnys","5","NaN","<div style=""width:500px;"">
                            <p style=""font-size:50px; font-weight:bold;""
                            >playful</p>
                            <div style=""width:240px; margin: auto;"">
                                <img src=""images/B_D_S_44.png"" style= ""width:200px""alt=""img"">
                            </div>
                        </div>","55","","0","images/B_D_S_44.png","","","","playful","2","44","B","D","S","",""
"","","","","","html-slider-response","96","229483","0.0-90.0","42cwmjjnys","5","NaN","<div style=""width:500px;"">
                            <p style=""font-size:50px; font-weight:bold;""
                            >playful</p>
                            <div style=""width:240px; margin: auto;"">
                                <img src=""images/R_L_S_13.png"" style= ""width:200px""alt=""img"">
                            </div>
                        </div>","101","","0","images/R_L_S_13.png","","","","playful","1","13","R","L","S","",""
"","","","","","html-slider-response","97","230813","0.0-91.0","42cwmjjnys","5","NaN","<div style=""width:500px;"">
                            <p style=""font-size:50px; font-weight:bold;""
                            >playful</p>
                            <div style=""width:240px; margin: auto;"">
                                <img src=""images/G_D_S_30.png"" style= ""width:200px""alt=""img"">
                            </div>
                        </div>","172","","0","images/G_D_S_30.png","","","","playful","1","30","G","D","S","",""
"","","","","","html-slider-response","98","232294","0.0-92.0","42cwmjjnys","5","NaN","<div style=""width:500px;"">
                            <p style=""font-size:50px; font-weight:bold;""
                            >playful</p>
                            <div style=""width:240px; margin: auto;"">
                                <img src=""images/G_D_U_33.png"" style= ""width:200px""alt=""img"">
                            </div>
                        </div>","74","","0","images/G_D_U_33.png","","","","playful","2","33","G","D","U","",""
"","","","","","html-slider-response","99","233680","0.0-93.0","42cwmjjnys","5","NaN","<div style=""width:500px;"">
                            <p style=""font-size:50px; font-weight:bold;""
                            >playful</p>
                            <div style=""width:240px; margin: auto;"">
                                <img src=""images/R_D_S_23.png"" style= ""width:200px""alt=""img"">
                            </div>
                        </div>","45","","0","images/R_D_S_23.png","","","","playful","1","23","R","D","S","",""
"","","","","","html-slider-response","100","235017","0.0-94.0","42cwmjjnys","5","NaN","<div style=""width:500px;"">
                            <p style=""font-size:50px; font-weight:bold;""
                            >playful</p>
                            <div style=""width:240px; margin: auto;"">
                                <img src=""images/G_D_U_33.png"" style= ""width:200px""alt=""img"">
                            </div>
                        </div>","119","","0","images/G_D_U_33.png","","","","playful","1","33","G","D","U","",""
"","","","","","html-slider-response","101","236273","0.0-95.0","42cwmjjnys","5","NaN","<div style=""width:500px;"">
                            <p style=""font-size:50px; font-weight:bold;""
                            >playful</p>
                            <div style=""width:240px; margin: auto;"">
                                <img src=""images/Y_D_U_12.png"" style= ""width:200px""alt=""img"">
                            </div>
                        </div>","50","","0","images/Y_D_U_12.png","","","","playful","2","12","Y","D","U","",""
"","","","","","html-slider-response","102","237537","0.0-96.0","42cwmjjnys","5","NaN","<div style=""width:500px;"">
                            <p style=""font-size:50px; font-weight:bold;""
                            >playful</p>
                            <div style=""width:240px; margin: auto;"">
                                <img src=""images/R_L_U_15.png"" style= ""width:200px""alt=""img"">
                            </div>
                        </div>","149","","0","images/R_L_U_15.png","","","","playful","1","15","R","L","U","",""
"","","","","","html-slider-response","103","238942","0.0-97.0","42cwmjjnys","5","NaN","<div style=""width:500px;"">
                            <p style=""font-size:50px; font-weight:bold;""
                            >playful</p>
                            <div style=""width:240px; margin: auto;"">
                                <img src=""images/R_D_U_26.png"" style= ""width:200px""alt=""img"">
                            </div>
                        </div>","132","","0","images/R_D_U_26.png","","","","playful","2","26","R","D","U","",""
"","","","","","html-slider-response","104","240103","0.0-98.0","42cwmjjnys","5","NaN","<div style=""width:500px;"">
                            <p style=""font-size:50px; font-weight:bold;""
                            >playful</p>
                            <div style=""width:240px; margin: auto;"">
                                <img src=""images/R_D_S_23.png"" style= ""width:200px""alt=""img"">
                            </div>
                        </div>","170","","0","images/R_D_S_23.png","","","","playful","2","23","R","D","S","",""
"","","","","","html-slider-response","105","241386","0.0-99.0","42cwmjjnys","5","NaN","<div style=""width:500px;"">
                            <p style=""font-size:50px; font-weight:bold;""
                            >playful</p>
                            <div style=""width:240px; margin: auto;"">
                                <img src=""images/G_L_U_28.png"" style= ""width:200px""alt=""img"">
                            </div>
                        </div>","22","","0","images/G_L_U_28.png","","","","playful","2","28","G","L","U","",""
"","","","","","html-slider-response","106","242824","0.0-100.0","42cwmjjnys","5","NaN","<div style=""width:500px;"">
                            <p style=""font-size:50px; font-weight:bold;""
                            >playful</p>
                            <div style=""width:240px; margin: auto;"">
                                <img src=""images/B_D_S_44.png"" style= ""width:200px""alt=""img"">
                            </div>
                        </div>","-39","","0","images/B_D_S_44.png","","","","playful","1","44","B","D","S","",""
"","","","","","html-slider-response","107","244583","0.0-101.0","42cwmjjnys","5","NaN","<div style=""width:500px;"">
                            <p style=""font-size:50px; font-weight:bold;""
                            >playful</p>
                            <div style=""width:240px; margin: auto;"">
                                <img src=""images/Y_L_U_07.png"" style= ""width:200px""alt=""img"">
                            </div>
                        </div>","173","","0","images/Y_L_U_07.png","","","","playful","1","07","Y","L","U","",""
"","","","","","html-slider-response","108","245897","0.0-102.0","42cwmjjnys","5","NaN","<div style=""width:500px;"">
                            <p style=""font-size:50px; font-weight:bold;""
                            >playful</p>
                            <div style=""width:240px; margin: auto;"">
                                <img src=""images/R_L_U_15.png"" style= ""width:200px""alt=""img"">
                            </div>
                        </div>","68","","0","images/R_L_U_15.png","","","","playful","2","15","R","L","U","",""
"","","","","","html-slider-response","109","247196","0.0-103.0","42cwmjjnys","5","NaN","<div style=""width:500px;"">
                            <p style=""font-size:50px; font-weight:bold;""
                            >playful</p>
                            <div style=""width:240px; margin: auto;"">
                                <img src=""images/B_L_U_41.png"" style= ""width:200px""alt=""img"">
                            </div>
                        </div>","-114","","0","images/B_L_U_41.png","","","","playful","2","41","B","L","U","",""
"","","","","","html-slider-response","110","248239","0.0-104.0","42cwmjjnys","5","NaN","<div style=""width:500px;"">
                            <p style=""font-size:50px; font-weight:bold;""
                            >playful</p>
                            <div style=""width:240px; margin: auto;"">
                                <img src=""images/Y_D_U_12.png"" style= ""width:200px""alt=""img"">
                            </div>
                        </div>","191","","0","images/Y_D_U_12.png","","","","playful","1","12","Y","D","U","",""
"","","","","","html-slider-response","111","249488","0.0-105.0","42cwmjjnys","5","NaN","<div style=""width:500px;"">
                            <p style=""font-size:50px; font-weight:bold;""
                            >playful</p>
                            <div style=""width:240px; margin: auto;"">
                                <img src=""images/B_D_U_02.png"" style= ""width:200px""alt=""img"">
                            </div>
                        </div>","50","","0","images/B_D_U_02.png","","","","playful","1","02","B","D","U","",""
"","","","","","html-slider-response","112","250811","0.0-106.0","42cwmjjnys","5","NaN","<div style=""width:500px;"">
                            <p style=""font-size:50px; font-weight:bold;""
                            >playful</p>
                            <div style=""width:240px; margin: auto;"">
                                <img src=""images/Y_D_S_10.png"" style= ""width:200px""alt=""img"">
                            </div>
                        </div>","70","","0","images/Y_D_S_10.png","","","","playful","2","10","Y","D","S","",""
"","","","","","html-slider-response","113","252564","0.0-107.0","42cwmjjnys","5","NaN","<div style=""width:500px;"">
                            <p style=""font-size:50px; font-weight:bold;""
                            >playful</p>
                            <div style=""width:240px; margin: auto;"">
                                <img src=""images/Y_D_S_10.png"" style= ""width:200px""alt=""img"">
                            </div>
                        </div>","50","","0","images/Y_D_S_10.png","","","","playful","1","10","Y","D","S","",""
"","","","","","html-slider-response","114","253980","0.0-108.0","42cwmjjnys","5","NaN","<div style=""width:500px;"">
                            <p style=""font-size:50px; font-weight:bold;""
                            >playful</p>
                            <div style=""width:240px; margin: auto;"">
                                <img src=""images/Y_L_U_07.png"" style= ""width:200px""alt=""img"">
                            </div>
                        </div>","-83","","0","images/Y_L_U_07.png","","","","playful","2","07","Y","L","U","",""
"","","","","","html-slider-response","115","255213","0.0-109.0","42cwmjjnys","5","NaN","<div style=""width:500px;"">
                            <p style=""font-size:50px; font-weight:bold;""
                            >playful</p>
                            <div style=""width:240px; margin: auto;"">
                                <img src=""images/G_D_S_30.png"" style= ""width:200px""alt=""img"">
                            </div>
                        </div>","66","","0","images/G_D_S_30.png","","","","playful","2","30","G","D","S","",""
"","","","","","html-slider-response","116","256256","0.0-110.0","42cwmjjnys","5","NaN","<div style=""width:500px;"">
                            <p style=""font-size:50px; font-weight:bold;""
                            >playful</p>
                            <div style=""width:240px; margin: auto;"">
                                <img src=""images/B_D_U_02.png"" style= ""width:200px""alt=""img"">
                            </div>
                        </div>","-85","","0","images/B_D_U_02.png","","","","playful","2","02","B","D","U","",""
"","","","","","html-slider-response","117","257379","0.0-111.0","42cwmjjnys","5","NaN","<div style=""width:500px;"">
                            <p style=""font-size:50px; font-weight:bold;""
                            >playful</p>
                            <div style=""width:240px; margin: auto;"">
                                <img src=""images/B_L_U_41.png"" style= ""width:200px""alt=""img"">
                            </div>
                        </div>","123","","0","images/B_L_U_41.png","","","","playful","1","41","B","L","U","",""
"","","","","","html-slider-response","118","258646","0.0-112.0","42cwmjjnys","5","NaN","<div style=""width:500px;"">
                            <p style=""font-size:50px; font-weight:bold;""
                            >playful</p>
                            <div style=""width:240px; margin: auto;"">
                                <img src=""images/B_L_S_37.png"" style= ""width:200px""alt=""img"">
                            </div>
                        </div>","-68","","0","images/B_L_S_37.png","","","","playful","2","37","B","L","S","",""
"","","","","","html-slider-response","119","259672","0.0-113.0","42cwmjjnys","5","NaN","<div style=""width:500px;"">
                            <p style=""font-size:50px; font-weight:bold;""
                            >playful</p>
                            <div style=""width:240px; margin: auto;"">
                                <img src=""images/R_L_S_13.png"" style= ""width:200px""alt=""img"">
                            </div>
                        </div>","119","","0","images/R_L_S_13.png","","","","playful","2","13","R","L","S","",""
"","","","","","html-button-response","120","260889","0.0-114.0","42cwmjjnys","5","715","<p>Great Job! You've finished block 3.<br></br> You have 5 block(s) left to go.<br></br></p>","0","","","","","","","","","","","","","",""
"","","","","","html-button-response","121","261541","0.0-115.0","42cwmjjnys","5","651","<p>In this block of trials, you will be asked to rate how much you associate each map with:</p > <p style = 'font-size:150%; font-weight: bold'>calm</p><br></br>","0","","","","","","","","","","","","","",""
"","","","","","html-slider-response","122","262795","0.0-116.0","42cwmjjnys","5","NaN","<div style=""width:500px;"">
                            <p style=""font-size:50px; font-weight:bold;""
                            >calm</p>
                            <div style=""width:240px; margin: auto;"">
                                <img src=""images/Y_D_S_10.png"" style= ""width:200px""alt=""img"">
                            </div>
                        </div>","188","","0","images/Y_D_S_10.png","","","","calm","1","10","Y","D","S","",""
"","","","","","html-slider-response","123","264332","0.0-117.0","42cwmjjnys","5","NaN","<div style=""width:500px;"">
                            <p style=""font-size:50px; font-weight:bold;""
                            >calm</p>
                            <div style=""width:240px; margin: auto;"">
                                <img src=""images/B_D_S_44.png"" style= ""width:200px""alt=""img"">
                            </div>
                        </div>","33","","0","images/B_D_S_44.png","","","","calm","2","44","B","D","S","",""
"","","","","","html-slider-response","124","265502","0.0-118.0","42cwmjjnys","5","NaN","<div style=""width:500px;"">
                            <p style=""font-size:50px; font-weight:bold;""
                            >calm</p>
                            <div style=""width:240px; margin: auto;"">
                                <img src=""images/R_L_U_15.png"" style= ""width:200px""alt=""img"">
                            </div>
                        </div>","-173","","0","images/R_L_U_15.png","","","","calm","1","15","R","L","U","",""
"","","","","","html-slider-response","125","267030","0.0-119.0","42cwmjjnys","5","NaN","<div style=""width:500px;"">
                            <p style=""font-size:50px; font-weight:bold;""
                            >calm</p>
                            <div style=""width:240px; margin: auto;"">
                                <img src=""images/B_L_S_37.png"" style= ""width:200px""alt=""img"">
                            </div>
                        </div>","-170","","0","images/B_L_S_37.png","","","","calm","2","37","B","L","S","",""
"","","","","","html-slider-response","126","268418","0.0-120.0","42cwmjjnys","5","NaN","<div style=""width:500px;"">
                            <p style=""font-size:50px; font-weight:bold;""
                            >calm</p>
                            <div style=""width:240px; margin: auto;"">
                                <img src=""images/B_L_U_41.png"" style= ""width:200px""alt=""img"">
                            </div>
                        </div>","-200","","0","images/B_L_U_41.png","","","","calm","1","41","B","L","U","",""
"","","","","","html-slider-response","127","269618","0.0-121.0","42cwmjjnys","5","NaN","<div style=""width:500px;"">
                            <p style=""font-size:50px; font-weight:bold;""
                            >calm</p>
                            <div style=""width:240px; margin: auto;"">
                                <img src=""images/Y_D_U_12.png"" style= ""width:200px""alt=""img"">
                            </div>
                        </div>","200","","0","images/Y_D_U_12.png","","","","calm","1","12","Y","D","U","",""
"","","","","","html-slider-response","128","270938","0.0-122.0","42cwmjjnys","5","NaN","<div style=""width:500px;"">
                            <p style=""font-size:50px; font-weight:bold;""
                            >calm</p>
                            <div style=""width:240px; margin: auto;"">
                                <img src=""images/G_L_U_28.png"" style= ""width:200px""alt=""img"">
                            </div>
                        </div>","-178","","0","images/G_L_U_28.png","","","","calm","1","28","G","L","U","",""
"","","","","","html-slider-response","129","272380","0.0-123.0","42cwmjjnys","5","NaN","<div style=""width:500px;"">
                            <p style=""font-size:50px; font-weight:bold;""
                            >calm</p>
                            <div style=""width:240px; margin: auto;"">
                                <img src=""images/B_D_U_02.png"" style= ""width:200px""alt=""img"">
                            </div>
                        </div>","51","","0","images/B_D_U_02.png","","","","calm","1","02","B","D","U","",""
"","","","","","html-slider-response","130","273848","0.0-124.0","42cwmjjnys","5","NaN","<div style=""width:500px;"">
                            <p style=""font-size:50px; font-weight:bold;""
                            >calm</p>
                            <div style=""width:240px; margin: auto;"">
                                <img src=""images/R_D_U_26.png"" style= ""width:200px""alt=""img"">
                            </div>
                        </div>","175","","0","images/R_D_U_26.png","","","","calm","1","26","R","D","U","",""
"","","","","","html-slider-response","131","275233","0.0-125.0","42cwmjjnys","5","NaN","<div style=""width:500px;"">
                            <p style=""font-size:50px; font-weight:bold;""
                            >calm</p>
                            <div style=""width:240px; margin: auto;"">
                                <img src=""images/G_L_U_28.png"" style= ""width:200px""alt=""img"">
                            </div>
                        </div>","-148","","0","images/G_L_U_28.png","","","","calm","2","28","G","L","U","",""
"","","","","","html-slider-response","132","276520","0.0-126.0","42cwmjjnys","5","NaN","<div style=""width:500px;"">
                            <p style=""font-size:50px; font-weight:bold;""
                            >calm</p>
                            <div style=""width:240px; margin: auto;"">
                                <img src=""images/R_L_S_13.png"" style= ""width:200px""alt=""img"">
                            </div>
                        </div>","-158","","0","images/R_L_S_13.png","","","","calm","1","13","R","L","S","",""
"","","","","","html-slider-response","133","277955","0.0-127.0","42cwmjjnys","5","NaN","<div style=""width:500px;"">
                            <p style=""font-size:50px; font-weight:bold;""
                            >calm</p>
                            <div style=""width:240px; margin: auto;"">
                                <img src=""images/R_D_U_26.png"" style= ""width:200px""alt=""img"">
                            </div>
                        </div>","141","","0","images/R_D_U_26.png","","","","calm","2","26","R","D","U","",""
"","","","","","html-slider-response","134","279229","0.0-128.0","42cwmjjnys","5","NaN","<div style=""width:500px;"">
                            <p style=""font-size:50px; font-weight:bold;""
                            >calm</p>
                            <div style=""width:240px; margin: auto;"">
                                <img src=""images/Y_D_U_12.png"" style= ""width:200px""alt=""img"">
                            </div>
                        </div>","200","","0","images/Y_D_U_12.png","","","","calm","2","12","Y","D","U","",""
"","","","","","html-slider-response","135","280736","0.0-129.0","42cwmjjnys","5","NaN","<div style=""width:500px;"">
                            <p style=""font-size:50px; font-weight:bold;""
                            >calm</p>
                            <div style=""width:240px; margin: auto;"">
                                <img src=""images/B_D_S_44.png"" style= ""width:200px""alt=""img"">
                            </div>
                        </div>","93","","0","images/B_D_S_44.png","","","","calm","1","44","B","D","S","",""
"","","","","","html-slider-response","136","282218","0.0-130.0","42cwmjjnys","5","NaN","<div style=""width:500px;"">
                            <p style=""font-size:50px; font-weight:bold;""
                            >calm</p>
                            <div style=""width:240px; margin: auto;"">
                                <img src=""images/G_L_S_27.png"" style= ""width:200px""alt=""img"">
                            </div>
                        </div>","-200","","0","images/G_L_S_27.png","","","","calm","1","27","G","L","S","",""
"","","","","","html-slider-response","137","284063","0.0-131.0","42cwmjjnys","5","NaN","<div style=""width:500px;"">
                            <p style=""font-size:50px; font-weight:bold;""
                            >calm</p>
                            <div style=""width:240px; margin: auto;"">
                                <img src=""images/Y_L_S_05.png"" style= ""width:200px""alt=""img"">
                            </div>
                        </div>","-191","","0","images/Y_L_S_05.png","","","","calm","2","05","Y","L","S","",""
"","","","","","html-slider-response","138","286028","0.0-132.0","42cwmjjnys","5","NaN","<div style=""width:500px;"">
                            <p style=""font-size:50px; font-weight:bold;""
                            >calm</p>
                            <div style=""width:240px; margin: auto;"">
                                <img src=""images/G_D_U_33.png"" style= ""width:200px""alt=""img"">
                            </div>
                        </div>","119","","0","images/G_D_U_33.png","","","","calm","2","33","G","D","U","",""
"","","","","","html-slider-response","139","287768","0.0-133.0","42cwmjjnys","5","NaN","<div style=""width:500px;"">
                            <p style=""font-size:50px; font-weight:bold;""
                            >calm</p>
                            <div style=""width:240px; margin: auto;"">
                                <img src=""images/G_D_S_30.png"" style= ""width:200px""alt=""img"">
                            </div>
                        </div>","45","","0","images/G_D_S_30.png","","","","calm","1","30","G","D","S","",""
"","","","","","html-slider-response","140","289034","0.0-134.0","42cwmjjnys","5","NaN","<div style=""width:500px;"">
                            <p style=""font-size:50px; font-weight:bold;""
                            >calm</p>
                            <div style=""width:240px; margin: auto;"">
                                <img src=""images/Y_L_S_05.png"" style= ""width:200px""alt=""img"">
                            </div>
                        </div>","-200","","0","images/Y_L_S_05.png","","","","calm","1","05","Y","L","S","",""
"","","","","","html-slider-response","141","290895","0.0-135.0","42cwmjjnys","5","NaN","<div style=""width:500px;"">
                            <p style=""font-size:50px; font-weight:bold;""
                            >calm</p>
                            <div style=""width:240px; margin: auto;"">
                                <img src=""images/R_D_S_23.png"" style= ""width:200px""alt=""img"">
                            </div>
                        </div>","-113","","0","images/R_D_S_23.png","","","","calm","2","23","R","D","S","",""
"","","","","","html-slider-response","142","292762","0.0-136.0","42cwmjjnys","5","NaN","<div style=""width:500px;"">
                            <p style=""font-size:50px; font-weight:bold;""
                            >calm</p>
                            <div style=""width:240px; margin: auto;"">
                                <img src=""images/G_D_U_33.png"" style= ""width:200px""alt=""img"">
                            </div>
                        </div>","98","","0","images/G_D_U_33.png","","","","calm","1","33","G","D","U","",""
"","","","","","html-slider-response","143","294519","0.0-137.0","42cwmjjnys","5","NaN","<div style=""width:500px;"">
                            <p style=""font-size:50px; font-weight:bold;""
                            >calm</p>
                            <div style=""width:240px; margin: auto;"">
                                <img src=""images/B_D_U_02.png"" style= ""width:200px""alt=""img"">
                            </div>
                        </div>","158","","0","images/B_D_U_02.png","","","","calm","2","02","B","D","U","",""
"","","","","","html-slider-response","144","295800","0.0-138.0","42cwmjjnys","5","NaN","<div style=""width:500px;"">
                            <p style=""font-size:50px; font-weight:bold;""
                            >calm</p>
                            <div style=""width:240px; margin: auto;"">
                                <img src=""images/B_L_S_37.png"" style= ""width:200px""alt=""img"">
                            </div>
                        </div>","-110","","0","images/B_L_S_37.png","","","","calm","1","37","B","L","S","",""
"","","","","","html-slider-response","145","297274","0.0-139.0","42cwmjjnys","5","NaN","<div style=""width:500px;"">
                            <p style=""font-size:50px; font-weight:bold;""
                            >calm</p>
                            <div style=""width:240px; margin: auto;"">
                                <img src=""images/Y_D_S_10.png"" style= ""width:200px""alt=""img"">
                            </div>
                        </div>","167","","0","images/Y_D_S_10.png","","","","calm","2","10","Y","D","S","",""
"","","","","","html-slider-response","146","299281","0.0-140.0","42cwmjjnys","5","NaN","<div style=""width:500px;"">
                            <p style=""font-size:50px; font-weight:bold;""
                            >calm</p>
                            <div style=""width:240px; margin: auto;"">
                                <img src=""images/R_D_S_23.png"" style= ""width:200px""alt=""img"">
                            </div>
                        </div>","-200","","0","images/R_D_S_23.png","","","","calm","1","23","R","D","S","",""
"","","","","","html-slider-response","147","300843","0.0-141.0","42cwmjjnys","5","NaN","<div style=""width:500px;"">
                            <p style=""font-size:50px; font-weight:bold;""
                            >calm</p>
                            <div style=""width:240px; margin: auto;"">
                                <img src=""images/G_D_S_30.png"" style= ""width:200px""alt=""img"">
                            </div>
                        </div>","-129","","0","images/G_D_S_30.png","","","","calm","2","30","G","D","S","",""
"","","","","","html-slider-response","148","302169","0.0-142.0","42cwmjjnys","5","NaN","<div style=""width:500px;"">
                            <p style=""font-size:50px; font-weight:bold;""
                            >calm</p>
                            <div style=""width:240px; margin: auto;"">
                                <img src=""images/Y_L_U_07.png"" style= ""width:200px""alt=""img"">
                            </div>
                        </div>","-200","","0","images/Y_L_U_07.png","","","","calm","1","07","Y","L","U","",""
"","","","","","html-slider-response","149","303679","0.0-143.0","42cwmjjnys","5","NaN","<div style=""width:500px;"">
                            <p style=""font-size:50px; font-weight:bold;""
                            >calm</p>
                            <div style=""width:240px; margin: auto;"">
                                <img src=""images/B_L_U_41.png"" style= ""width:200px""alt=""img"">
                            </div>
                        </div>","-197","","0","images/B_L_U_41.png","","","","calm","2","41","B","L","U","",""
"","","","","","html-slider-response","150","305135","0.0-144.0","42cwmjjnys","5","NaN","<div style=""width:500px;"">
                            <p style=""font-size:50px; font-weight:bold;""
                            >calm</p>
                            <div style=""width:240px; margin: auto;"">
                                <img src=""images/R_L_S_13.png"" style= ""width:200px""alt=""img"">
                            </div>
                        </div>","-200","","0","images/R_L_S_13.png","","","","calm","2","13","R","L","S","",""
"","","","","","html-slider-response","151","306482","0.0-145.0","42cwmjjnys","5","NaN","<div style=""width:500px;"">
                            <p style=""font-size:50px; font-weight:bold;""
                            >calm</p>
                            <div style=""width:240px; margin: auto;"">
                                <img src=""images/G_L_S_27.png"" style= ""width:200px""alt=""img"">
                            </div>
                        </div>","-200","","0","images/G_L_S_27.png","","","","calm","2","27","G","L","S","",""
"","","","","","html-slider-response","152","307884","0.0-146.0","42cwmjjnys","5","NaN","<div style=""width:500px;"">
                            <p style=""font-size:50px; font-weight:bold;""
                            >calm</p>
                            <div style=""width:240px; margin: auto;"">
                                <img src=""images/Y_L_U_07.png"" style= ""width:200px""alt=""img"">
                            </div>
                        </div>","-200","","0","images/Y_L_U_07.png","","","","calm","2","07","Y","L","U","",""
"","","","","","html-slider-response","153","310398","0.0-147.0","42cwmjjnys","5","NaN","<div style=""width:500px;"">
                            <p style=""font-size:50px; font-weight:bold;""
                            >calm</p>
                            <div style=""width:240px; margin: auto;"">
                                <img src=""images/R_L_U_15.png"" style= ""width:200px""alt=""img"">
                            </div>
                        </div>","35","","0","images/R_L_U_15.png","","","","calm","2","15","R","L","U","",""
"","","","","","html-button-response","154","311586","0.0-148.0","42cwmjjnys","5","686","<p>Great Job! You've finished block 4.<br></br> You have 4 block(s) left to go.<br></br></p>","0","","","","","","","","","","","","","",""
"","","","","","html-button-response","155","312166","0.0-149.0","42cwmjjnys","5","578","<p>In this block of trials, you will be asked to rate how much you associate each map with:</p > <p style = 'font-size:150%; font-weight: bold'>negative</p><br></br>","0","","","","","","","","","","","","","",""
"","","","","","html-slider-response","156","313988","0.0-150.0","42cwmjjnys","5","NaN","<div style=""width:500px;"">
                            <p style=""font-size:50px; font-weight:bold;""
                            >negative</p>
                            <div style=""width:240px; margin: auto;"">
                                <img src=""images/Y_L_S_05.png"" style= ""width:200px""alt=""img"">
                            </div>
                        </div>","-200","","0","images/Y_L_S_05.png","","","","negative","2","05","Y","L","S","",""
"","","","","","html-slider-response","157","316101","0.0-151.0","42cwmjjnys","5","NaN","<div style=""width:500px;"">
                            <p style=""font-size:50px; font-weight:bold;""
                            >negative</p>
                            <div style=""width:240px; margin: auto;"">
                                <img src=""images/Y_L_U_07.png"" style= ""width:200px""alt=""img"">
                            </div>
                        </div>","-200","","0","images/Y_L_U_07.png","","","","negative","2","07","Y","L","U","",""
"","","","","","html-slider-response","158","318284","0.0-152.0","42cwmjjnys","5","NaN","<div style=""width:500px;"">
                            <p style=""font-size:50px; font-weight:bold;""
                            >negative</p>
                            <div style=""width:240px; margin: auto;"">
                                <img src=""images/R_D_U_26.png"" style= ""width:200px""alt=""img"">
                            </div>
                        </div>","171","","0","images/R_D_U_26.png","","","","negative","1","26","R","D","U","",""
"","","","","","html-slider-response","159","319603","0.0-153.0","42cwmjjnys","5","NaN","<div style=""width:500px;"">
                            <p style=""font-size:50px; font-weight:bold;""
                            >negative</p>
                            <div style=""width:240px; margin: auto;"">
                                <img src=""images/R_D_U_26.png"" style= ""width:200px""alt=""img"">
                            </div>
                        </div>","116","","0","images/R_D_U_26.png","","","","negative","2","26","R","D","U","",""
"","","","","","html-slider-response","160","322062","0.0-154.0","42cwmjjnys","5","NaN","<div style=""width:500px;"">
                            <p style=""font-size:50px; font-weight:bold;""
                            >negative</p>
                            <div style=""width:240px; margin: auto;"">
                                <img src=""images/G_D_S_30.png"" style= ""width:200px""alt=""img"">
                            </div>
                        </div>","-107","","0","images/G_D_S_30.png","","","","negative","1","30","G","D","S","",""
"","","","","","html-slider-response","161","323828","0.0-155.0","42cwmjjnys","5","NaN","<div style=""width:500px;"">
                            <p style=""font-size:50px; font-weight:bold;""
                            >negative</p>
                            <div style=""width:240px; margin: auto;"">
                                <img src=""images/B_D_U_02.png"" style= ""width:200px""alt=""img"">
                            </div>
                        </div>","60","","0","images/B_D_U_02.png","","","","negative","1","02","B","D","U","",""
"","","","","","html-slider-response","162","326380","0.0-156.0","42cwmjjnys","5","NaN","<div style=""width:500px;"">
                            <p style=""font-size:50px; font-weight:bold;""
                            >negative</p>
                            <div style=""width:240px; margin: auto;"">
                                <img src=""images/Y_L_S_05.png"" style= ""width:200px""alt=""img"">
                            </div>
                        </div>","-200","","0","images/Y_L_S_05.png","","","","negative","1","05","Y","L","S","",""
"","","","","","html-slider-response","163","327879","0.0-157.0","42cwmjjnys","5","NaN","<div style=""width:500px;"">
                            <p style=""font-size:50px; font-weight:bold;""
                            >negative</p>
                            <div style=""width:240px; margin: auto;"">
                                <img src=""images/G_D_S_30.png"" style= ""width:200px""alt=""img"">
                            </div>
                        </div>","-81","","0","images/G_D_S_30.png","","","","negative","2","30","G","D","S","",""
"","","","","","html-slider-response","164","329200","0.0-158.0","42cwmjjnys","5","NaN","<div style=""width:500px;"">
                            <p style=""font-size:50px; font-weight:bold;""
                            >negative</p>
                            <div style=""width:240px; margin: auto;"">
                                <img src=""images/Y_L_U_07.png"" style= ""width:200px""alt=""img"">
                            </div>
                        </div>","-193","","0","images/Y_L_U_07.png","","","","negative","1","07","Y","L","U","",""
"","","","","","html-slider-response","165","330922","0.0-159.0","42cwmjjnys","5","NaN","<div style=""width:500px;"">
                            <p style=""font-size:50px; font-weight:bold;""
                            >negative</p>
                            <div style=""width:240px; margin: auto;"">
                                <img src=""images/R_D_S_23.png"" style= ""width:200px""alt=""img"">
                            </div>
                        </div>","102","","0","images/R_D_S_23.png","","","","negative","1","23","R","D","S","",""
"","","","","","html-slider-response","166","332316","0.0-160.0","42cwmjjnys","5","NaN","<div style=""width:500px;"">
                            <p style=""font-size:50px; font-weight:bold;""
                            >negative</p>
                            <div style=""width:240px; margin: auto;"">
                                <img src=""images/G_D_U_33.png"" style= ""width:200px""alt=""img"">
                            </div>
                        </div>","-64","","0","images/G_D_U_33.png","","","","negative","1","33","G","D","U","",""
"","","","","","html-slider-response","167","333475","0.0-161.0","42cwmjjnys","5","NaN","<div style=""width:500px;"">
                            <p style=""font-size:50px; font-weight:bold;""
                            >negative</p>
                            <div style=""width:240px; margin: auto;"">
                                <img src=""images/R_L_S_13.png"" style= ""width:200px""alt=""img"">
                            </div>
                        </div>","90","","0","images/R_L_S_13.png","","","","negative","2","13","R","L","S","",""
"","","","","","html-slider-response","168","334700","0.0-162.0","42cwmjjnys","5","NaN","<div style=""width:500px;"">
                            <p style=""font-size:50px; font-weight:bold;""
                            >negative</p>
                            <div style=""width:240px; margin: auto;"">
                                <img src=""images/G_L_S_27.png"" style= ""width:200px""alt=""img"">
                            </div>
                        </div>","-85","","0","images/G_L_S_27.png","","","","negative","2","27","G","L","S","",""
"","","","","","html-slider-response","169","336210","0.0-163.0","42cwmjjnys","5","NaN","<div style=""width:500px;"">
                            <p style=""font-size:50px; font-weight:bold;""
                            >negative</p>
                            <div style=""width:240px; margin: auto;"">
                                <img src=""images/B_D_S_44.png"" style= ""width:200px""alt=""img"">
                            </div>
                        </div>","-90","","0","images/B_D_S_44.png","","","","negative","1","44","B","D","S","",""
"","","","","","html-slider-response","170","337416","0.0-164.0","42cwmjjnys","5","NaN","<div style=""width:500px;"">
                            <p style=""font-size:50px; font-weight:bold;""
                            >negative</p>
                            <div style=""width:240px; margin: auto;"">
                                <img src=""images/G_L_U_28.png"" style= ""width:200px""alt=""img"">
                            </div>
                        </div>","-73","","0","images/G_L_U_28.png","","","","negative","2","28","G","L","U","",""
"","","","","","html-slider-response","171","338843","0.0-165.0","42cwmjjnys","5","NaN","<div style=""width:500px;"">
                            <p style=""font-size:50px; font-weight:bold;""
                            >negative</p>
                            <div style=""width:240px; margin: auto;"">
                                <img src=""images/Y_D_U_12.png"" style= ""width:200px""alt=""img"">
                            </div>
                        </div>","-169","","0","images/Y_D_U_12.png","","","","negative","2","12","Y","D","U","",""
"","","","","","html-slider-response","172","340194","0.0-166.0","42cwmjjnys","5","NaN","<div style=""width:500px;"">
                            <p style=""font-size:50px; font-weight:bold;""
                            >negative</p>
                            <div style=""width:240px; margin: auto;"">
                                <img src=""images/G_L_S_27.png"" style= ""width:200px""alt=""img"">
                            </div>
                        </div>","123","","0","images/G_L_S_27.png","","","","negative","1","27","G","L","S","",""
"","","","","","html-slider-response","173","341386","0.0-167.0","42cwmjjnys","5","NaN","<div style=""width:500px;"">
                            <p style=""font-size:50px; font-weight:bold;""
                            >negative</p>
                            <div style=""width:240px; margin: auto;"">
                                <img src=""images/B_L_S_37.png"" style= ""width:200px""alt=""img"">
                            </div>
                        </div>","-136","","0","images/B_L_S_37.png","","","","negative","2","37","B","L","S","",""
"","","","","","html-slider-response","174","342565","0.0-168.0","42cwmjjnys","5","NaN","<div style=""width:500px;"">
                            <p style=""font-size:50px; font-weight:bold;""
                            >negative</p>
                            <div style=""width:240px; margin: auto;"">
                                <img src=""images/B_L_U_41.png"" style= ""width:200px""alt=""img"">
                            </div>
                        </div>","-102","","0","images/B_L_U_41.png","","","","negative","2","41","B","L","U","",""
"","","","","","html-slider-response","175","343627","0.0-169.0","42cwmjjnys","5","NaN","<div style=""width:500px;"">
                            <p style=""font-size:50px; font-weight:bold;""
                            >negative</p>
                            <div style=""width:240px; margin: auto;"">
                                <img src=""images/B_L_U_41.png"" style= ""width:200px""alt=""img"">
                            </div>
                        </div>","-154","","0","images/B_L_U_41.png","","","","negative","1","41","B","L","U","",""
"","","","","","html-slider-response","176","345953","0.0-170.0","42cwmjjnys","5","NaN","<div style=""width:500px;"">
                            <p style=""font-size:50px; font-weight:bold;""
                            >negative</p>
                            <div style=""width:240px; margin: auto;"">
                                <img src=""images/R_L_U_15.png"" style= ""width:200px""alt=""img"">
                            </div>
                        </div>","77","","0","images/R_L_U_15.png","","","","negative","1","15","R","L","U","",""
"","","","","","html-slider-response","177","348217","0.0-171.0","42cwmjjnys","5","NaN","<div style=""width:500px;"">
                            <p style=""font-size:50px; font-weight:bold;""
                            >negative</p>
                            <div style=""width:240px; margin: auto;"">
                                <img src=""images/G_D_U_33.png"" style= ""width:200px""alt=""img"">
                            </div>
                        </div>","41","","0","images/G_D_U_33.png","","","","negative","2","33","G","D","U","",""
"","","","","","html-slider-response","178","350304","0.0-172.0","42cwmjjnys","5","NaN","<div style=""width:500px;"">
                            <p style=""font-size:50px; font-weight:bold;""
                            >negative</p>
                            <div style=""width:240px; margin: auto;"">
                                <img src=""images/R_D_S_23.png"" style= ""width:200px""alt=""img"">
                            </div>
                        </div>","106","","0","images/R_D_S_23.png","","","","negative","2","23","R","D","S","",""
"","","","","","html-slider-response","179","351650","0.0-173.0","42cwmjjnys","5","NaN","<div style=""width:500px;"">
                            <p style=""font-size:50px; font-weight:bold;""
                            >negative</p>
                            <div style=""width:240px; margin: auto;"">
                                <img src=""images/B_D_S_44.png"" style= ""width:200px""alt=""img"">
                            </div>
                        </div>","-156","","0","images/B_D_S_44.png","","","","negative","2","44","B","D","S","",""
"","","","","","html-slider-response","180","352801","0.0-174.0","42cwmjjnys","5","NaN","<div style=""width:500px;"">
                            <p style=""font-size:50px; font-weight:bold;""
                            >negative</p>
                            <div style=""width:240px; margin: auto;"">
                                <img src=""images/R_L_S_13.png"" style= ""width:200px""alt=""img"">
                            </div>
                        </div>","102","","0","images/R_L_S_13.png","","","","negative","1","13","R","L","S","",""
"","","","","","html-slider-response","181","354243","0.0-175.0","42cwmjjnys","5","NaN","<div style=""width:500px;"">
                            <p style=""font-size:50px; font-weight:bold;""
                            >negative</p>
                            <div style=""width:240px; margin: auto;"">
                                <img src=""images/Y_D_U_12.png"" style= ""width:200px""alt=""img"">
                            </div>
                        </div>","198","","0","images/Y_D_U_12.png","","","","negative","1","12","Y","D","U","",""
"","","","","","html-slider-response","182","356538","0.0-176.0","42cwmjjnys","5","NaN","<div style=""width:500px;"">
                            <p style=""font-size:50px; font-weight:bold;""
                            >negative</p>
                            <div style=""width:240px; margin: auto;"">
                                <img src=""images/Y_D_S_10.png"" style= ""width:200px""alt=""img"">
                            </div>
                        </div>","109","","0","images/Y_D_S_10.png","","","","negative","2","10","Y","D","S","",""
"","","","","","html-slider-response","183","357901","0.0-177.0","42cwmjjnys","5","NaN","<div style=""width:500px;"">
                            <p style=""font-size:50px; font-weight:bold;""
                            >negative</p>
                            <div style=""width:240px; margin: auto;"">
                                <img src=""images/B_L_S_37.png"" style= ""width:200px""alt=""img"">
                            </div>
                        </div>","-77","","0","images/B_L_S_37.png","","","","negative","1","37","B","L","S","",""
"","","","","","html-slider-response","184","359252","0.0-178.0","42cwmjjnys","5","NaN","<div style=""width:500px;"">
                            <p style=""font-size:50px; font-weight:bold;""
                            >negative</p>
                            <div style=""width:240px; margin: auto;"">
                                <img src=""images/R_L_U_15.png"" style= ""width:200px""alt=""img"">
                            </div>
                        </div>","94","","0","images/R_L_U_15.png","","","","negative","2","15","R","L","U","",""
"","","","","","html-slider-response","185","360567","0.0-179.0","42cwmjjnys","5","NaN","<div style=""width:500px;"">
                            <p style=""font-size:50px; font-weight:bold;""
                            >negative</p>
