"success","timeout","failed_images","failed_audio","failed_video","trial_type","trial_index","time_elapsed","internal_node_id","subject_id","condition_num","rt","stimulus","response","question_order","slider_start","image_path","practiceTrial","practiceTrialNum","correct","concept","repetition","map_id","hue","lightness","saturation","ishihara_plate","correct_response"
"true","false","[]","[]","[]","preload","0","235","0.0-0.0","46l1abvo6a","12","","","","","","","","","","","","","","","","",""
"","","","","","html-button-response","1","1436","0.0-1.0","46l1abvo6a","12","1200","Welcome to our experiment!<p>At the bottom of this screen, you will see a button that says ""Begin Experiment"".<br>Please only click that button when you are ready to complete the 25 minute experiment in one sitting.</p><p> Once you click that button, it will not be possible to restart the experiment.","0","","","","","","","","","","","","","",""
"true","","","","","fullscreen","2","4914","0.0-2.0","46l1abvo6a","12","2474","","","","","","","","","","","","","","","",""
"","","","","","survey-multi-select","3","8301","0.0-3.0","46l1abvo6a","12","3384","","{""Consent"":[""<strong>I consent</strong>""]}","[0]","","","","","","","","","","","","",""
"","","","","","html-button-response","4","9718","0.0-4.0","46l1abvo6a","12","1411","Welcome! <p> This experiment involves two parts: demographic information, followed by the experimental task.<p> It will take about 25 minutes to complete both parts.","0","","","","","","","","","","","","","",""
"","","","","","survey-text","5","40852","0.0-5.0","46l1abvo6a","12","31132","","{""Age"":""19"",""Gender"":""Female"",""Race/ethnicity"":""White/Caucasian"",""Languages"":""Spanish, English, German, American Sign Language (ASL)""}","","","","","","","","","","","","","",""
"","","","","","html-slider-response","6","42563","0.0-6.0","46l1abvo6a","12","1711","
                            <div style='text-align:left; font-size:20px; line-height:25px; width: 1400px;'>
                                During this experiment you will be asked to rate how much you associate maps with                    different concepts.<br> Below, you can see some examples of the maps you will be asked to rate. Next to the maps
                    is the list of concepts.<br>You will be asked                    to rate how much you associate each map with each concept on a scale from 'not at all' to 'very much' like the
                    one below. <br><br>
                    Now, please look at the list of concepts and maps. For each concept, think about the map you associate 'very
                    much' with the concept.<br>                     When you see that map during the experiment, please rate it near the 'very much' endpoint of the
                    scale.<br>Now, please think about which map you associate 'not at all'                     with each concept. When you see that map during the experiment, please rate it near the 'not at all' endpoint
                    of the scale.<br>
                    Please use the full range of the scale. That is, if a map is somewhat associated with the concept, you would
                    click partway between the middle point and right side of the scale.                    You will be asked to rate each map for a given concept before moving on to the next concept.<br><br>Press the
                    'Continue' button for instructions on how to use the slider.                    <br><br>
                </div>

                <div style=""width: 500px; margin: 0 auto;"">
                    <!-- Centered text paragraphs -->
                    <div style=""text-align: center; width: 500px;"">
                        <p style=""font-size:25px; line-height:18px;"">calm</p>
                        <p style=""font-size:25px; line-height:18px;"">exciting</p>
                        <p style=""font-size:25px;line-height:18px;"">positive</p>
                        <p style=""font-size:25px;line-height:18px;"">negative</p>
                        <p style=""font-size:25px;line-height:18px;"">serious</p>
                        <p style=""font-size:25px;line-height:18px;"">playful</p>
                        <p style=""font-size:25px;line-height:18px;"">trustworthy</p>
                        <p style=""font-size:25px;line-height:18px;"">disturbing</p>
                    </div>

                    <!-- Grid section -->
                   <div style=""display: flex; justify-content: center; padding-top: 15px;"">
                    <div style=""display: grid; grid-template-columns: repeat(8, 80px); grid-gap: 5px; width: auto;"">
                        <img src=""images/Y_D_S_28.png"" alt=""map"" style=""width: 100%;""><img src=""images/B_D_U_23.png"" alt=""map"" style=""width: 100%;""><img src=""images/Y_L_S_26.png"" alt=""map"" style=""width: 100%;""><img src=""images/R_D_S_41.png"" alt=""map"" style=""width: 100%;""><img src=""images/B_L_S_12.png"" alt=""map"" style=""width: 100%;""><img src=""images/R_D_U_44.png"" alt=""map"" style=""width: 100%;""><img src=""images/B_L_U_13.png"" alt=""map"" style=""width: 100%;""><img src=""images/B_D_S_15.png"" alt=""map"" style=""width: 100%;""><img src=""images/Y_D_U_30.png"" alt=""map"" style=""width: 100%;""><img src=""images/G_L_S_02.png"" alt=""map"" style=""width: 100%;""><img src=""images/R_L_S_33.png"" alt=""map"" style=""width: 100%;""><img src=""images/G_D_U_10.png"" alt=""map"" style=""width: 100%;""><img src=""images/G_D_S_07.png"" alt=""map"" style=""width: 100%;""><img src=""images/G_L_U_05.png"" alt=""map"" style=""width: 100%;""><img src=""images/R_L_U_37.png"" alt=""map"" style=""width: 100%;""><img src=""images/Y_L_U_27.png"" alt=""map"" style=""width: 100%;"">
                    </div>
                </div>

                    <!-- Clear floats -->
                    <div style=""clear: both;""></div>
                </div>
                            ","null","","0","maps_anchoring.png","true","","","","","","","","","",""
"","","","","","html-button-response","7","44150","0.0-7.0","46l1abvo6a","12","1587","<div style=""width:800px;""><p style=""text-align:left"">To move the slider, click and drag your cursor to the location of the scale where you would like to make your rating and then let go. When you let go of the slider, your response will be recorded and the next trial will begin. <br>
                    We are interested in your initial impressions of each map for the given concept, so please go with your first intuition. <br>
                    Before you begin the experiment, there will be four training trials for you to practice using the scale. <br>
                     When you are ready to start the training trials, please click ""Continue"".</p><br></div>","0","","","","","","","","","","","","","",""
"","","","","","html-slider-response","8","45595","0.0-8.0-0.0","46l1abvo6a","12","NaN","<div style=""width:500px;"">
                                    <p style=""font-size:25px;"">Please move the slider all the way to the <br> right endpoint of the scale</p>

                                    </div>
                                </div>","200","","0","","true","0","true","","","","","","","",""
"","","","","","html-button-response","9","46886","0.0-8.0-1.0","46l1abvo6a","12","790","<p align='center'><b>Good job!</b> Click on 'Continue' to proceed.</p>","0","","","","","","","","","","","","","",""
"","","","","","html-slider-response","10","48085","0.0-9.0-0.0","46l1abvo6a","12","NaN","<div style=""width:500px;"">
                                    <p style=""font-size:25px;"">Please move the slider all the way to the <br> left endpoint of the scale</p>

                                    </div>
                                </div>","-200","","0","","true","1","true","","","","","","","",""
"","","","","","html-button-response","11","49201","0.0-9.0-1.0","46l1abvo6a","12","615","<p align='center'><b>Good job!</b> Click on 'Continue' to proceed.</p>","0","","","","","","","","","","","","","",""
"","","","","","html-slider-response","12","50983","0.0-10.0-0.0","46l1abvo6a","12","NaN","<div style=""width:500px;"">
                                    <p style=""font-size:25px;"">Please move the slider halfway between the center and right endpoint of the scale</p>

                                    </div>
                                </div>","93","","0","","true","2","true","","","","","","","",""
"","","","","","html-button-response","13","52105","0.0-10.0-1.0","46l1abvo6a","12","620","<p align='center'><b>Good job!</b> Click on 'Continue' to proceed.</p>","0","","","","","","","","","","","","","",""
"","","","","","html-slider-response","14","53387","0.0-11.0-0.0","46l1abvo6a","12","NaN","<div style=""width:500px;"">
                                    <p style=""font-size:25px;"">Please move the slider halfway between the center and left endpoint of the scale</p>

                                    </div>
                                </div>","-103","","0","","true","3","true","","","","","","","",""
"","","","","","html-button-response","15","54524","0.0-11.0-1.0","46l1abvo6a","12","636","<p align='center'><b>Good job!</b> Click on 'Continue' to proceed.</p>","0","","","","","","","","","","","","","",""
"","","","","","html-button-response","16","54986","0.0-12.0","46l1abvo6a","12","460","<p>Great job! You've completed the practice trials. Now you will begin the main task.</p>","0","","","","","","","","","","","","","",""
"","","","","","html-button-response","17","55994","0.0-13.0","46l1abvo6a","12","1007","<p>In this block of trials, you will be asked to rate how much you associate each map with:</p > <p style = 'font-size:150%; font-weight: bold'>trustworthy</p><br></br>","0","","","","","","","","","","","","","",""
"","","","","","html-slider-response","18","59596","0.0-14.0","46l1abvo6a","12","NaN","<div style=""width:500px;"">
                            <p style=""font-size:50px; font-weight:bold;""
                            >trustworthy</p>
                            <div style=""width:240px; margin: auto;"">
                                <img src=""images/Y_D_U_30.png"" style= ""width:200px""alt=""img"">
                            </div>
                        </div>","61","","0","images/Y_D_U_30.png","","","","trustworthy","1","30","Y","D","U","",""
"","","","","","html-slider-response","19","61687","0.0-15.0","46l1abvo6a","12","NaN","<div style=""width:500px;"">
                            <p style=""font-size:50px; font-weight:bold;""
                            >trustworthy</p>
                            <div style=""width:240px; margin: auto;"">
                                <img src=""images/R_D_U_44.png"" style= ""width:200px""alt=""img"">
                            </div>
                        </div>","-78","","0","images/R_D_U_44.png","","","","trustworthy","2","44","R","D","U","",""
"","","","","","html-slider-response","20","65371","0.0-16.0","46l1abvo6a","12","NaN","<div style=""width:500px;"">
                            <p style=""font-size:50px; font-weight:bold;""
                            >trustworthy</p>
                            <div style=""width:240px; margin: auto;"">
                                <img src=""images/G_D_U_10.png"" style= ""width:200px""alt=""img"">
                            </div>
                        </div>","-42","","0","images/G_D_U_10.png","","","","trustworthy","1","10","G","D","U","",""
"","","","","","html-slider-response","21","67230","0.0-17.0","46l1abvo6a","12","NaN","<div style=""width:500px;"">
                            <p style=""font-size:50px; font-weight:bold;""
                            >trustworthy</p>
                            <div style=""width:240px; margin: auto;"">
                                <img src=""images/G_D_S_07.png"" style= ""width:200px""alt=""img"">
                            </div>
                        </div>","-56","","0","images/G_D_S_07.png","","","","trustworthy","1","07","G","D","S","",""
"","","","","","html-slider-response","22","69385","0.0-18.0","46l1abvo6a","12","NaN","<div style=""width:500px;"">
                            <p style=""font-size:50px; font-weight:bold;""
                            >trustworthy</p>
                            <div style=""width:240px; margin: auto;"">
                                <img src=""images/G_L_U_05.png"" style= ""width:200px""alt=""img"">
                            </div>
                        </div>","35","","0","images/G_L_U_05.png","","","","trustworthy","1","05","G","L","U","",""
"","","","","","html-slider-response","23","71342","0.0-19.0","46l1abvo6a","12","NaN","<div style=""width:500px;"">
                            <p style=""font-size:50px; font-weight:bold;""
                            >trustworthy</p>
                            <div style=""width:240px; margin: auto;"">
                                <img src=""images/B_L_S_12.png"" style= ""width:200px""alt=""img"">
                            </div>
                        </div>","22","","0","images/B_L_S_12.png","","","","trustworthy","2","12","B","L","S","",""
"","","","","","html-slider-response","24","72795","0.0-20.0","46l1abvo6a","12","NaN","<div style=""width:500px;"">
                            <p style=""font-size:50px; font-weight:bold;""
                            >trustworthy</p>
                            <div style=""width:240px; margin: auto;"">
                                <img src=""images/G_L_U_05.png"" style= ""width:200px""alt=""img"">
                            </div>
                        </div>","30","","0","images/G_L_U_05.png","","","","trustworthy","2","05","G","L","U","",""
"","","","","","html-slider-response","25","74647","0.0-21.0","46l1abvo6a","12","NaN","<div style=""width:500px;"">
                            <p style=""font-size:50px; font-weight:bold;""
                            >trustworthy</p>
                            <div style=""width:240px; margin: auto;"">
                                <img src=""images/B_D_U_23.png"" style= ""width:200px""alt=""img"">
                            </div>
                        </div>","-38","","0","images/B_D_U_23.png","","","","trustworthy","1","23","B","D","U","",""
"","","","","","html-slider-response","26","76776","0.0-22.0","46l1abvo6a","12","NaN","<div style=""width:500px;"">
                            <p style=""font-size:50px; font-weight:bold;""
                            >trustworthy</p>
                            <div style=""width:240px; margin: auto;"">
                                <img src=""images/G_L_S_02.png"" style= ""width:200px""alt=""img"">
                            </div>
                        </div>","37","","0","images/G_L_S_02.png","","","","trustworthy","2","02","G","L","S","",""
"","","","","","html-slider-response","27","78553","0.0-23.0","46l1abvo6a","12","NaN","<div style=""width:500px;"">
                            <p style=""font-size:50px; font-weight:bold;""
                            >trustworthy</p>
                            <div style=""width:240px; margin: auto;"">
                                <img src=""images/B_D_U_23.png"" style= ""width:200px""alt=""img"">
                            </div>
                        </div>","54","","0","images/B_D_U_23.png","","","","trustworthy","2","23","B","D","U","",""
"","","","","","html-slider-response","28","80136","0.0-24.0","46l1abvo6a","12","NaN","<div style=""width:500px;"">
                            <p style=""font-size:50px; font-weight:bold;""
                            >trustworthy</p>
                            <div style=""width:240px; margin: auto;"">
                                <img src=""images/B_L_U_13.png"" style= ""width:200px""alt=""img"">
                            </div>
                        </div>","28","","0","images/B_L_U_13.png","","","","trustworthy","2","13","B","L","U","",""
"","","","","","html-slider-response","29","81852","0.0-25.0","46l1abvo6a","12","NaN","<div style=""width:500px;"">
                            <p style=""font-size:50px; font-weight:bold;""
                            >trustworthy</p>
                            <div style=""width:240px; margin: auto;"">
                                <img src=""images/G_L_S_02.png"" style= ""width:200px""alt=""img"">
                            </div>
                        </div>","34","","0","images/G_L_S_02.png","","","","trustworthy","1","02","G","L","S","",""
"","","","","","html-slider-response","30","83776","0.0-26.0","46l1abvo6a","12","NaN","<div style=""width:500px;"">
                            <p style=""font-size:50px; font-weight:bold;""
                            >trustworthy</p>
                            <div style=""width:240px; margin: auto;"">
                                <img src=""images/R_D_S_41.png"" style= ""width:200px""alt=""img"">
                            </div>
                        </div>","-17","","0","images/R_D_S_41.png","","","","trustworthy","2","41","R","D","S","",""
"","","","","","html-slider-response","31","85229","0.0-27.0","46l1abvo6a","12","NaN","<div style=""width:500px;"">
                            <p style=""font-size:50px; font-weight:bold;""
                            >trustworthy</p>
                            <div style=""width:240px; margin: auto;"">
                                <img src=""images/B_L_S_12.png"" style= ""width:200px""alt=""img"">
                            </div>
                        </div>","36","","0","images/B_L_S_12.png","","","","trustworthy","1","12","B","L","S","",""
"","","","","","html-slider-response","32","88057","0.0-28.0","46l1abvo6a","12","NaN","<div style=""width:500px;"">
                            <p style=""font-size:50px; font-weight:bold;""
                            >trustworthy</p>
                            <div style=""width:240px; margin: auto;"">
                                <img src=""images/Y_D_U_30.png"" style= ""width:200px""alt=""img"">
                            </div>
                        </div>","-58","","0","images/Y_D_U_30.png","","","","trustworthy","2","30","Y","D","U","",""
"","","","","","html-slider-response","33","89710","0.0-29.0","46l1abvo6a","12","NaN","<div style=""width:500px;"">
                            <p style=""font-size:50px; font-weight:bold;""
                            >trustworthy</p>
                            <div style=""width:240px; margin: auto;"">
                                <img src=""images/B_L_U_13.png"" style= ""width:200px""alt=""img"">
                            </div>
                        </div>","-26","","0","images/B_L_U_13.png","","","","trustworthy","1","13","B","L","U","",""
"","","","","","html-slider-response","34","91986","0.0-30.0","46l1abvo6a","12","NaN","<div style=""width:500px;"">
                            <p style=""font-size:50px; font-weight:bold;""
                            >trustworthy</p>
                            <div style=""width:240px; margin: auto;"">
                                <img src=""images/Y_L_U_27.png"" style= ""width:200px""alt=""img"">
                            </div>
                        </div>","40","","0","images/Y_L_U_27.png","","","","trustworthy","1","27","Y","L","U","",""
"","","","","","html-slider-response","35","94302","0.0-31.0","46l1abvo6a","12","NaN","<div style=""width:500px;"">
                            <p style=""font-size:50px; font-weight:bold;""
                            >trustworthy</p>
                            <div style=""width:240px; margin: auto;"">
                                <img src=""images/R_L_U_37.png"" style= ""width:200px""alt=""img"">
                            </div>
                        </div>","-53","","0","images/R_L_U_37.png","","","","trustworthy","1","37","R","L","U","",""
"","","","","","html-slider-response","36","96150","0.0-32.0","46l1abvo6a","12","NaN","<div style=""width:500px;"">
                            <p style=""font-size:50px; font-weight:bold;""
                            >trustworthy</p>
                            <div style=""width:240px; margin: auto;"">
                                <img src=""images/R_D_U_44.png"" style= ""width:200px""alt=""img"">
                            </div>
                        </div>","-22","","0","images/R_D_U_44.png","","","","trustworthy","1","44","R","D","U","",""
"","","","","","html-slider-response","37","97539","0.0-33.0","46l1abvo6a","12","NaN","<div style=""width:500px;"">
                            <p style=""font-size:50px; font-weight:bold;""
                            >trustworthy</p>
                            <div style=""width:240px; margin: auto;"">
                                <img src=""images/R_D_S_41.png"" style= ""width:200px""alt=""img"">
                            </div>
                        </div>","-42","","0","images/R_D_S_41.png","","","","trustworthy","1","41","R","D","S","",""
"","","","","","html-slider-response","38","98857","0.0-34.0","46l1abvo6a","12","NaN","<div style=""width:500px;"">
                            <p style=""font-size:50px; font-weight:bold;""
                            >trustworthy</p>
                            <div style=""width:240px; margin: auto;"">
                                <img src=""images/R_L_S_33.png"" style= ""width:200px""alt=""img"">
                            </div>
                        </div>","-45","","0","images/R_L_S_33.png","","","","trustworthy","1","33","R","L","S","",""
"","","","","","html-slider-response","39","101046","0.0-35.0","46l1abvo6a","12","NaN","<div style=""width:500px;"">
                            <p style=""font-size:50px; font-weight:bold;""
                            >trustworthy</p>
                            <div style=""width:240px; margin: auto;"">
                                <img src=""images/Y_D_S_28.png"" style= ""width:200px""alt=""img"">
                            </div>
                        </div>","25","","0","images/Y_D_S_28.png","","","","trustworthy","2","28","Y","D","S","",""
"","","","","","html-slider-response","40","102548","0.0-36.0","46l1abvo6a","12","NaN","<div style=""width:500px;"">
                            <p style=""font-size:50px; font-weight:bold;""
                            >trustworthy</p>
                            <div style=""width:240px; margin: auto;"">
                                <img src=""images/G_D_S_07.png"" style= ""width:200px""alt=""img"">
                            </div>
                        </div>","28","","0","images/G_D_S_07.png","","","","trustworthy","2","07","G","D","S","",""
"","","","","","html-slider-response","41","104528","0.0-37.0","46l1abvo6a","12","NaN","<div style=""width:500px;"">
                            <p style=""font-size:50px; font-weight:bold;""
                            >trustworthy</p>
                            <div style=""width:240px; margin: auto;"">
                                <img src=""images/Y_L_S_26.png"" style= ""width:200px""alt=""img"">
                            </div>
                        </div>","69","","0","images/Y_L_S_26.png","","","","trustworthy","2","26","Y","L","S","",""
"","","","","","html-slider-response","42","106280","0.0-38.0","46l1abvo6a","12","NaN","<div style=""width:500px;"">
                            <p style=""font-size:50px; font-weight:bold;""
                            >trustworthy</p>
                            <div style=""width:240px; margin: auto;"">
                                <img src=""images/R_L_S_33.png"" style= ""width:200px""alt=""img"">
                            </div>
                        </div>","-30","","0","images/R_L_S_33.png","","","","trustworthy","2","33","R","L","S","",""
"","","","","","html-slider-response","43","108115","0.0-39.0","46l1abvo6a","12","NaN","<div style=""width:500px;"">
                            <p style=""font-size:50px; font-weight:bold;""
                            >trustworthy</p>
                            <div style=""width:240px; margin: auto;"">
                                <img src=""images/Y_D_S_28.png"" style= ""width:200px""alt=""img"">
                            </div>
                        </div>","-84","","0","images/Y_D_S_28.png","","","","trustworthy","1","28","Y","D","S","",""
"","","","","","html-slider-response","44","111008","0.0-40.0","46l1abvo6a","12","NaN","<div style=""width:500px;"">
                            <p style=""font-size:50px; font-weight:bold;""
                            >trustworthy</p>
                            <div style=""width:240px; margin: auto;"">
                                <img src=""images/G_D_U_10.png"" style= ""width:200px""alt=""img"">
                            </div>
                        </div>","82","","0","images/G_D_U_10.png","","","","trustworthy","2","10","G","D","U","",""
"","","","","","html-slider-response","45","112736","0.0-41.0","46l1abvo6a","12","NaN","<div style=""width:500px;"">
                            <p style=""font-size:50px; font-weight:bold;""
                            >trustworthy</p>
                            <div style=""width:240px; margin: auto;"">
                                <img src=""images/Y_L_S_26.png"" style= ""width:200px""alt=""img"">
                            </div>
                        </div>","28","","0","images/Y_L_S_26.png","","","","trustworthy","1","26","Y","L","S","",""
"","","","","","html-slider-response","46","114338","0.0-42.0","46l1abvo6a","12","NaN","<div style=""width:500px;"">
                            <p style=""font-size:50px; font-weight:bold;""
                            >trustworthy</p>
                            <div style=""width:240px; margin: auto;"">
                                <img src=""images/R_L_U_37.png"" style= ""width:200px""alt=""img"">
                            </div>
                        </div>","-89","","0","images/R_L_U_37.png","","","","trustworthy","2","37","R","L","U","",""
"","","","","","html-slider-response","47","116518","0.0-43.0","46l1abvo6a","12","NaN","<div style=""width:500px;"">
                            <p style=""font-size:50px; font-weight:bold;""
                            >trustworthy</p>
                            <div style=""width:240px; margin: auto;"">
                                <img src=""images/B_D_S_15.png"" style= ""width:200px""alt=""img"">
                            </div>
                        </div>","61","","0","images/B_D_S_15.png","","","","trustworthy","1","15","B","D","S","",""
"","","","","","html-slider-response","48","117940","0.0-44.0","46l1abvo6a","12","NaN","<div style=""width:500px;"">
                            <p style=""font-size:50px; font-weight:bold;""
                            >trustworthy</p>
                            <div style=""width:240px; margin: auto;"">
                                <img src=""images/B_D_S_15.png"" style= ""width:200px""alt=""img"">
                            </div>
                        </div>","38","","0","images/B_D_S_15.png","","","","trustworthy","2","15","B","D","S","",""
"","","","","","html-slider-response","49","119745","0.0-45.0","46l1abvo6a","12","NaN","<div style=""width:500px;"">
                            <p style=""font-size:50px; font-weight:bold;""
                            >trustworthy</p>
                            <div style=""width:240px; margin: auto;"">
                                <img src=""images/Y_L_U_27.png"" style= ""width:200px""alt=""img"">
                            </div>
                        </div>","88","","0","images/Y_L_U_27.png","","","","trustworthy","2","27","Y","L","U","",""
"","","","","","html-button-response","50","121159","0.0-46.0","46l1abvo6a","12","912","<p>Great Job! You've finished block 1.<br></br> You have 7 block(s) left to go.<br></br></p>","0","","","","","","","","","","","","","",""
"","","","","","html-button-response","51","122676","0.0-47.0","46l1abvo6a","12","1516","<p>In this block of trials, you will be asked to rate how much you associate each map with:</p > <p style = 'font-size:150%; font-weight: bold'>serious</p><br></br>","0","","","","","","","","","","","","","",""
"","","","","","html-slider-response","52","127514","0.0-48.0","46l1abvo6a","12","NaN","<div style=""width:500px;"">
                            <p style=""font-size:50px; font-weight:bold;""
                            >serious</p>
                            <div style=""width:240px; margin: auto;"">
                                <img src=""images/G_L_S_02.png"" style= ""width:200px""alt=""img"">
                            </div>
                        </div>","71","","0","images/G_L_S_02.png","","","","serious","2","02","G","L","S","",""
"","","","","","html-slider-response","53","129633","0.0-49.0","46l1abvo6a","12","NaN","<div style=""width:500px;"">
                            <p style=""font-size:50px; font-weight:bold;""
                            >serious</p>
                            <div style=""width:240px; margin: auto;"">
                                <img src=""images/R_L_U_37.png"" style= ""width:200px""alt=""img"">
                            </div>
                        </div>","-78","","0","images/R_L_U_37.png","","","","serious","2","37","R","L","U","",""
"","","","","","html-slider-response","54","132061","0.0-50.0","46l1abvo6a","12","NaN","<div style=""width:500px;"">
                            <p style=""font-size:50px; font-weight:bold;""
                            >serious</p>
                            <div style=""width:240px; margin: auto;"">
                                <img src=""images/G_D_S_07.png"" style= ""width:200px""alt=""img"">
                            </div>
                        </div>","-50","","0","images/G_D_S_07.png","","","","serious","1","07","G","D","S","",""
"","","","","","html-slider-response","55","134073","0.0-51.0","46l1abvo6a","12","NaN","<div style=""width:500px;"">
                            <p style=""font-size:50px; font-weight:bold;""
                            >serious</p>
                            <div style=""width:240px; margin: auto;"">
                                <img src=""images/Y_D_U_30.png"" style= ""width:200px""alt=""img"">
                            </div>
                        </div>","89","","0","images/Y_D_U_30.png","","","","serious","1","30","Y","D","U","",""
"","","","","","html-slider-response","56","136830","0.0-52.0","46l1abvo6a","12","NaN","<div style=""width:500px;"">
                            <p style=""font-size:50px; font-weight:bold;""
                            >serious</p>
                            <div style=""width:240px; margin: auto;"">
                                <img src=""images/R_L_S_33.png"" style= ""width:200px""alt=""img"">
                            </div>
                        </div>","-73","","0","images/R_L_S_33.png","","","","serious","1","33","R","L","S","",""
"","","","","","html-slider-response","57","138763","0.0-53.0","46l1abvo6a","12","NaN","<div style=""width:500px;"">
                            <p style=""font-size:50px; font-weight:bold;""
                            >serious</p>
                            <div style=""width:240px; margin: auto;"">
                                <img src=""images/B_L_S_12.png"" style= ""width:200px""alt=""img"">
                            </div>
                        </div>","110","","0","images/B_L_S_12.png","","","","serious","1","12","B","L","S","",""
"","","","","","html-slider-response","58","140504","0.0-54.0","46l1abvo6a","12","NaN","<div style=""width:500px;"">
                            <p style=""font-size:50px; font-weight:bold;""
                            >serious</p>
                            <div style=""width:240px; margin: auto;"">
                                <img src=""images/Y_L_S_26.png"" style= ""width:200px""alt=""img"">
                            </div>
                        </div>","89","","0","images/Y_L_S_26.png","","","","serious","1","26","Y","L","S","",""
"","","","","","html-slider-response","59","142004","0.0-55.0","46l1abvo6a","12","NaN","<div style=""width:500px;"">
                            <p style=""font-size:50px; font-weight:bold;""
                            >serious</p>
                            <div style=""width:240px; margin: auto;"">
                                <img src=""images/R_L_U_37.png"" style= ""width:200px""alt=""img"">
                            </div>
                        </div>","-73","","0","images/R_L_U_37.png","","","","serious","1","37","R","L","U","",""
"","","","","","html-slider-response","60","143522","0.0-56.0","46l1abvo6a","12","NaN","<div style=""width:500px;"">
                            <p style=""font-size:50px; font-weight:bold;""
                            >serious</p>
                            <div style=""width:240px; margin: auto;"">
                                <img src=""images/B_L_U_13.png"" style= ""width:200px""alt=""img"">
                            </div>
                        </div>","78","","0","images/B_L_U_13.png","","","","serious","1","13","B","L","U","",""
"","","","","","html-slider-response","61","145047","0.0-57.0","46l1abvo6a","12","NaN","<div style=""width:500px;"">
                            <p style=""font-size:50px; font-weight:bold;""
                            >serious</p>
                            <div style=""width:240px; margin: auto;"">
                                <img src=""images/R_D_S_41.png"" style= ""width:200px""alt=""img"">
                            </div>
                        </div>","-61","","0","images/R_D_S_41.png","","","","serious","2","41","R","D","S","",""
"","","","","","html-slider-response","62","147021","0.0-58.0","46l1abvo6a","12","NaN","<div style=""width:500px;"">
                            <p style=""font-size:50px; font-weight:bold;""
                            >serious</p>
                            <div style=""width:240px; margin: auto;"">
                                <img src=""images/Y_L_U_27.png"" style= ""width:200px""alt=""img"">
                            </div>
                        </div>","41","","0","images/Y_L_U_27.png","","","","serious","2","27","Y","L","U","",""
"","","","","","html-slider-response","63","148914","0.0-59.0","46l1abvo6a","12","NaN","<div style=""width:500px;"">
                            <p style=""font-size:50px; font-weight:bold;""
                            >serious</p>
                            <div style=""width:240px; margin: auto;"">
                                <img src=""images/Y_D_U_30.png"" style= ""width:200px""alt=""img"">
                            </div>
                        </div>","174","","0","images/Y_D_U_30.png","","","","serious","2","30","Y","D","U","",""
"","","","","","html-slider-response","64","152216","0.0-60.0","46l1abvo6a","12","NaN","<div style=""width:500px;"">
                            <p style=""font-size:50px; font-weight:bold;""
                            >serious</p>
                            <div style=""width:240px; margin: auto;"">
                                <img src=""images/G_D_S_07.png"" style= ""width:200px""alt=""img"">
                            </div>
                        </div>","98","","0","images/G_D_S_07.png","","","","serious","2","07","G","D","S","",""
"","","","","","html-slider-response","65","153723","0.0-61.0","46l1abvo6a","12","NaN","<div style=""width:500px;"">
                            <p style=""font-size:50px; font-weight:bold;""
                            >serious</p>
                            <div style=""width:240px; margin: auto;"">
                                <img src=""images/R_D_U_44.png"" style= ""width:200px""alt=""img"">
                            </div>
                        </div>","151","","0","images/R_D_U_44.png","","","","serious","1","44","R","D","U","",""
"","","","","","html-slider-response","66","155520","0.0-62.0","46l1abvo6a","12","NaN","<div style=""width:500px;"">
                            <p style=""font-size:50px; font-weight:bold;""
                            >serious</p>
                            <div style=""width:240px; margin: auto;"">
                                <img src=""images/R_L_S_33.png"" style= ""width:200px""alt=""img"">
                            </div>
                        </div>","-134","","0","images/R_L_S_33.png","","","","serious","2","33","R","L","S","",""
"","","","","","html-slider-response","67","157317","0.0-63.0","46l1abvo6a","12","NaN","<div style=""width:500px;"">
                            <p style=""font-size:50px; font-weight:bold;""
                            >serious</p>
                            <div style=""width:240px; margin: auto;"">
                                <img src=""images/G_D_U_10.png"" style= ""width:200px""alt=""img"">
                            </div>
                        </div>","200","","0","images/G_D_U_10.png","","","","serious","2","10","G","D","U","",""
"","","","","","html-slider-response","68","158898","0.0-64.0","46l1abvo6a","12","NaN","<div style=""width:500px;"">
                            <p style=""font-size:50px; font-weight:bold;""
                            >serious</p>
                            <div style=""width:240px; margin: auto;"">
                                <img src=""images/Y_D_S_28.png"" style= ""width:200px""alt=""img"">
                            </div>
                        </div>","139","","0","images/Y_D_S_28.png","","","","serious","1","28","Y","D","S","",""
"","","","","","html-slider-response","69","160640","0.0-65.0","46l1abvo6a","12","NaN","<div style=""width:500px;"">
                            <p style=""font-size:50px; font-weight:bold;""
                            >serious</p>
                            <div style=""width:240px; margin: auto;"">
                                <img src=""images/G_L_S_02.png"" style= ""width:200px""alt=""img"">
                            </div>
                        </div>","193","","0","images/G_L_S_02.png","","","","serious","1","02","G","L","S","",""
"","","","","","html-slider-response","70","162372","0.0-66.0","46l1abvo6a","12","NaN","<div style=""width:500px;"">
                            <p style=""font-size:50px; font-weight:bold;""
                            >serious</p>
                            <div style=""width:240px; margin: auto;"">
                                <img src=""images/G_L_U_05.png"" style= ""width:200px""alt=""img"">
                            </div>
                        </div>","96","","0","images/G_L_U_05.png","","","","serious","2","05","G","L","U","",""
"","","","","","html-slider-response","71","163955","0.0-67.0","46l1abvo6a","12","NaN","<div style=""width:500px;"">
                            <p style=""font-size:50px; font-weight:bold;""
                            >serious</p>
                            <div style=""width:240px; margin: auto;"">
                                <img src=""images/B_D_U_23.png"" style= ""width:200px""alt=""img"">
                            </div>
                        </div>","182","","0","images/B_D_U_23.png","","","","serious","2","23","B","D","U","",""
"","","","","","html-slider-response","72","165721","0.0-68.0","46l1abvo6a","12","NaN","<div style=""width:500px;"">
                            <p style=""font-size:50px; font-weight:bold;""
                            >serious</p>
                            <div style=""width:240px; margin: auto;"">
                                <img src=""images/B_D_S_15.png"" style= ""width:200px""alt=""img"">
                            </div>
                        </div>","200","","0","images/B_D_S_15.png","","","","serious","1","15","B","D","S","",""
"","","","","","html-slider-response","73","167756","0.0-69.0","46l1abvo6a","12","NaN","<div style=""width:500px;"">
                            <p style=""font-size:50px; font-weight:bold;""
                            >serious</p>
                            <div style=""width:240px; margin: auto;"">
                                <img src=""images/G_L_U_05.png"" style= ""width:200px""alt=""img"">
                            </div>
                        </div>","36","","0","images/G_L_U_05.png","","","","serious","1","05","G","L","U","",""
"","","","","","html-slider-response","74","169554","0.0-70.0","46l1abvo6a","12","NaN","<div style=""width:500px;"">
                            <p style=""font-size:50px; font-weight:bold;""
                            >serious</p>
                            <div style=""width:240px; margin: auto;"">
                                <img src=""images/Y_L_S_26.png"" style= ""width:200px""alt=""img"">
                            </div>
                        </div>","42","","0","images/Y_L_S_26.png","","","","serious","2","26","Y","L","S","",""
"","","","","","html-slider-response","75","170985","0.0-71.0","46l1abvo6a","12","NaN","<div style=""width:500px;"">
                            <p style=""font-size:50px; font-weight:bold;""
                            >serious</p>
                            <div style=""width:240px; margin: auto;"">
                                <img src=""images/Y_L_U_27.png"" style= ""width:200px""alt=""img"">
                            </div>
                        </div>","62","","0","images/Y_L_U_27.png","","","","serious","1","27","Y","L","U","",""
"","","","","","html-slider-response","76","172845","0.0-72.0","46l1abvo6a","12","NaN","<div style=""width:500px;"">
                            <p style=""font-size:50px; font-weight:bold;""
                            >serious</p>
                            <div style=""width:240px; margin: auto;"">
                                <img src=""images/Y_D_S_28.png"" style= ""width:200px""alt=""img"">
                            </div>
                        </div>","200","","0","images/Y_D_S_28.png","","","","serious","2","28","Y","D","S","",""
"","","","","","html-slider-response","77","174594","0.0-73.0","46l1abvo6a","12","NaN","<div style=""width:500px;"">
                            <p style=""font-size:50px; font-weight:bold;""
                            >serious</p>
                            <div style=""width:240px; margin: auto;"">
                                <img src=""images/B_L_S_12.png"" style= ""width:200px""alt=""img"">
                            </div>
                        </div>","26","","0","images/B_L_S_12.png","","","","serious","2","12","B","L","S","",""
"","","","","","html-slider-response","78","178061","0.0-74.0","46l1abvo6a","12","NaN","<div style=""width:500px;"">
                            <p style=""font-size:50px; font-weight:bold;""
                            >serious</p>
                            <div style=""width:240px; margin: auto;"">
                                <img src=""images/B_L_U_13.png"" style= ""width:200px""alt=""img"">
                            </div>
                        </div>","36","","0","images/B_L_U_13.png","","","","serious","2","13","B","L","U","",""
"","","","","","html-slider-response","79","179436","0.0-75.0","46l1abvo6a","12","NaN","<div style=""width:500px;"">
                            <p style=""font-size:50px; font-weight:bold;""
                            >serious</p>
                            <div style=""width:240px; margin: auto;"">
                                <img src=""images/B_D_S_15.png"" style= ""width:200px""alt=""img"">
                            </div>
                        </div>","30","","0","images/B_D_S_15.png","","","","serious","2","15","B","D","S","",""
"","","","","","html-slider-response","80","182831","0.0-76.0","46l1abvo6a","12","NaN","<div style=""width:500px;"">
                            <p style=""font-size:50px; font-weight:bold;""
                            >serious</p>
                            <div style=""width:240px; margin: auto;"">
                                <img src=""images/G_D_U_10.png"" style= ""width:200px""alt=""img"">
                            </div>
                        </div>","40","","0","images/G_D_U_10.png","","","","serious","1","10","G","D","U","",""
"","","","","","html-slider-response","81","185818","0.0-77.0","46l1abvo6a","12","NaN","<div style=""width:500px;"">
                            <p style=""font-size:50px; font-weight:bold;""
                            >serious</p>
                            <div style=""width:240px; margin: auto;"">
                                <img src=""images/R_D_S_41.png"" style= ""width:200px""alt=""img"">
                            </div>
                        </div>","-59","","0","images/R_D_S_41.png","","","","serious","1","41","R","D","S","",""
"","","","","","html-slider-response","82","187439","0.0-78.0","46l1abvo6a","12","NaN","<div style=""width:500px;"">
                            <p style=""font-size:50px; font-weight:bold;""
                            >serious</p>
                            <div style=""width:240px; margin: auto;"">
                                <img src=""images/R_D_U_44.png"" style= ""width:200px""alt=""img"">
                            </div>
                        </div>","83","","0","images/R_D_U_44.png","","","","serious","2","44","R","D","U","",""
"","","","","","html-slider-response","83","188990","0.0-79.0","46l1abvo6a","12","NaN","<div style=""width:500px;"">
                            <p style=""font-size:50px; font-weight:bold;""
                            >serious</p>
                            <div style=""width:240px; margin: auto;"">
                                <img src=""images/B_D_U_23.png"" style= ""width:200px""alt=""img"">
                            </div>
                        </div>","46","","0","images/B_D_U_23.png","","","","serious","1","23","B","D","U","",""
"","","","","","html-button-response","84","190953","0.0-80.0","46l1abvo6a","12","1460","<p>Great Job! You've finished block 2.<br></br> You have 6 block(s) left to go.<br></br></p>","0","","","","","","","","","","","","","",""
"","","","","","html-button-response","85","191863","0.0-81.0","46l1abvo6a","12","907","<p>In this block of trials, you will be asked to rate how much you associate each map with:</p > <p style = 'font-size:150%; font-weight: bold'>positive</p><br></br>","0","","","","","","","","","","","","","",""
"","","","","","html-slider-response","86","193822","0.0-82.0","46l1abvo6a","12","NaN","<div style=""width:500px;"">
                            <p style=""font-size:50px; font-weight:bold;""
                            >positive</p>
                            <div style=""width:240px; margin: auto;"">
                                <img src=""images/G_L_S_02.png"" style= ""width:200px""alt=""img"">
                            </div>
                        </div>","85","","0","images/G_L_S_02.png","","","","positive","2","02","G","L","S","",""
"","","","","","html-slider-response","87","195292","0.0-83.0","46l1abvo6a","12","NaN","<div style=""width:500px;"">
                            <p style=""font-size:50px; font-weight:bold;""
                            >positive</p>
                            <div style=""width:240px; margin: auto;"">
                                <img src=""images/B_L_S_12.png"" style= ""width:200px""alt=""img"">
                            </div>
                        </div>","88","","0","images/B_L_S_12.png","","","","positive","2","12","B","L","S","",""
"","","","","","html-slider-response","88","196721","0.0-84.0","46l1abvo6a","12","NaN","<div style=""width:500px;"">
                            <p style=""font-size:50px; font-weight:bold;""
                            >positive</p>
                            <div style=""width:240px; margin: auto;"">
                                <img src=""images/B_D_U_23.png"" style= ""width:200px""alt=""img"">
                            </div>
                        </div>","-111","","0","images/B_D_U_23.png","","","","positive","2","23","B","D","U","",""
"","","","","","html-slider-response","89","198264","0.0-85.0","46l1abvo6a","12","NaN","<div style=""width:500px;"">
                            <p style=""font-size:50px; font-weight:bold;""
                            >positive</p>
                            <div style=""width:240px; margin: auto;"">
                                <img src=""images/R_L_U_37.png"" style= ""width:200px""alt=""img"">
                            </div>
                        </div>","15","","0","images/R_L_U_37.png","","","","positive","1","37","R","L","U","",""
"","","","","","html-slider-response","90","199477","0.0-86.0","46l1abvo6a","12","NaN","<div style=""width:500px;"">
                            <p style=""font-size:50px; font-weight:bold;""
                            >positive</p>
                            <div style=""width:240px; margin: auto;"">
                                <img src=""images/R_L_S_33.png"" style= ""width:200px""alt=""img"">
                            </div>
                        </div>","63","","0","images/R_L_S_33.png","","","","positive","2","33","R","L","S","",""
"","","","","","html-slider-response","91","200970","0.0-87.0","46l1abvo6a","12","NaN","<div style=""width:500px;"">
                            <p style=""font-size:50px; font-weight:bold;""
                            >positive</p>
                            <div style=""width:240px; margin: auto;"">
                                <img src=""images/G_L_S_02.png"" style= ""width:200px""alt=""img"">
                            </div>
                        </div>","64","","0","images/G_L_S_02.png","","","","positive","1","02","G","L","S","",""
"","","","","","html-slider-response","92","202304","0.0-88.0","46l1abvo6a","12","NaN","<div style=""width:500px;"">
                            <p style=""font-size:50px; font-weight:bold;""
                            >positive</p>
                            <div style=""width:240px; margin: auto;"">
                                <img src=""images/Y_D_S_28.png"" style= ""width:200px""alt=""img"">
                            </div>
                        </div>","-50","","0","images/Y_D_S_28.png","","","","positive","2","28","Y","D","S","",""
"","","","","","html-slider-response","93","203694","0.0-89.0","46l1abvo6a","12","NaN","<div style=""width:500px;"">
                            <p style=""font-size:50px; font-weight:bold;""
                            >positive</p>
                            <div style=""width:240px; margin: auto;"">
                                <img src=""images/G_L_U_05.png"" style= ""width:200px""alt=""img"">
                            </div>
                        </div>","103","","0","images/G_L_U_05.png","","","","positive","1","05","G","L","U","",""
"","","","","","html-slider-response","94","205156","0.0-90.0","46l1abvo6a","12","NaN","<div style=""width:500px;"">
                            <p style=""font-size:50px; font-weight:bold;""
                            >positive</p>
                            <div style=""width:240px; margin: auto;"">
                                <img src=""images/R_D_S_41.png"" style= ""width:200px""alt=""img"">
                            </div>
                        </div>","178","","0","images/R_D_S_41.png","","","","positive","2","41","R","D","S","",""
"","","","","","html-slider-response","95","206842","0.0-91.0","46l1abvo6a","12","NaN","<div style=""width:500px;"">
                            <p style=""font-size:50px; font-weight:bold;""
                            >positive</p>
                            <div style=""width:240px; margin: auto;"">
                                <img src=""images/G_D_S_07.png"" style= ""width:200px""alt=""img"">
                            </div>
                        </div>","57","","0","images/G_D_S_07.png","","","","positive","1","07","G","D","S","",""
"","","","","","html-slider-response","96","208238","0.0-92.0","46l1abvo6a","12","NaN","<div style=""width:500px;"">
                            <p style=""font-size:50px; font-weight:bold;""
                            >positive</p>
                            <div style=""width:240px; margin: auto;"">
                                <img src=""images/Y_D_U_30.png"" style= ""width:200px""alt=""img"">
                            </div>
                        </div>","-92","","0","images/Y_D_U_30.png","","","","positive","1","30","Y","D","U","",""
"","","","","","html-slider-response","97","209821","0.0-93.0","46l1abvo6a","12","NaN","<div style=""width:500px;"">
                            <p style=""font-size:50px; font-weight:bold;""
                            >positive</p>
                            <div style=""width:240px; margin: auto;"">
                                <img src=""images/B_D_S_15.png"" style= ""width:200px""alt=""img"">
                            </div>
                        </div>","99","","0","images/B_D_S_15.png","","","","positive","2","15","B","D","S","",""
"","","","","","html-slider-response","98","211322","0.0-94.0","46l1abvo6a","12","NaN","<div style=""width:500px;"">
                            <p style=""font-size:50px; font-weight:bold;""
                            >positive</p>
                            <div style=""width:240px; margin: auto;"">
                                <img src=""images/B_L_U_13.png"" style= ""width:200px""alt=""img"">
                            </div>
                        </div>","71","","0","images/B_L_U_13.png","","","","positive","2","13","B","L","U","",""
"","","","","","html-slider-response","99","212666","0.0-95.0","46l1abvo6a","12","NaN","<div style=""width:500px;"">
                            <p style=""font-size:50px; font-weight:bold;""
                            >positive</p>
                            <div style=""width:240px; margin: auto;"">
                                <img src=""images/Y_D_S_28.png"" style= ""width:200px""alt=""img"">
                            </div>
                        </div>","-200","","0","images/Y_D_S_28.png","","","","positive","1","28","Y","D","S","",""
"","","","","","html-slider-response","100","214510","0.0-96.0","46l1abvo6a","12","NaN","<div style=""width:500px;"">
                            <p style=""font-size:50px; font-weight:bold;""
                            >positive</p>
                            <div style=""width:240px; margin: auto;"">
                                <img src=""images/B_L_S_12.png"" style= ""width:200px""alt=""img"">
                            </div>
                        </div>","43","","0","images/B_L_S_12.png","","","","positive","1","12","B","L","S","",""
"","","","","","html-slider-response","101","216245","0.0-97.0","46l1abvo6a","12","NaN","<div style=""width:500px;"">
                            <p style=""font-size:50px; font-weight:bold;""
                            >positive</p>
                            <div style=""width:240px; margin: auto;"">
                                <img src=""images/R_D_S_41.png"" style= ""width:200px""alt=""img"">
                            </div>
                        </div>","106","","0","images/R_D_S_41.png","","","","positive","1","41","R","D","S","",""
"","","","","","html-slider-response","102","217808","0.0-98.0","46l1abvo6a","12","NaN","<div style=""width:500px;"">
                            <p style=""font-size:50px; font-weight:bold;""
                            >positive</p>
                            <div style=""width:240px; margin: auto;"">
                                <img src=""images/R_D_U_44.png"" style= ""width:200px""alt=""img"">
                            </div>
                        </div>","-126","","0","images/R_D_U_44.png","","","","positive","1","44","R","D","U","",""
"","","","","","html-slider-response","103","219333","0.0-99.0","46l1abvo6a","12","NaN","<div style=""width:500px;"">
                            <p style=""font-size:50px; font-weight:bold;""
                            >positive</p>
                            <div style=""width:240px; margin: auto;"">
                                <img src=""images/G_D_U_10.png"" style= ""width:200px""alt=""img"">
                            </div>
                        </div>","-86","","0","images/G_D_U_10.png","","","","positive","1","10","G","D","U","",""
"","","","","","html-slider-response","104","220860","0.0-100.0","46l1abvo6a","12","NaN","<div style=""width:500px;"">
                            <p style=""font-size:50px; font-weight:bold;""
                            >positive</p>
                            <div style=""width:240px; margin: auto;"">
                                <img src=""images/B_D_S_15.png"" style= ""width:200px""alt=""img"">
                            </div>
                        </div>","33","","0","images/B_D_S_15.png","","","","positive","1","15","B","D","S","",""
"","","","","","html-slider-response","105","223560","0.0-101.0","46l1abvo6a","12","NaN","<div style=""width:500px;"">
                            <p style=""font-size:50px; font-weight:bold;""
                            >positive</p>
                            <div style=""width:240px; margin: auto;"">
                                <img src=""images/Y_L_S_26.png"" style= ""width:200px""alt=""img"">
                            </div>
                        </div>","159","","0","images/Y_L_S_26.png","","","","positive","2","26","Y","L","S","",""
"","","","","","html-slider-response","106","225404","0.0-102.0","46l1abvo6a","12","NaN","<div style=""width:500px;"">
                            <p style=""font-size:50px; font-weight:bold;""
                            >positive</p>
                            <div style=""width:240px; margin: auto;"">
                                <img src=""images/G_D_S_07.png"" style= ""width:200px""alt=""img"">
                            </div>
                        </div>","30","","0","images/G_D_S_07.png","","","","positive","2","07","G","D","S","",""
"","","","","","html-slider-response","107","226899","0.0-103.0","46l1abvo6a","12","NaN","<div style=""width:500px;"">
                            <p style=""font-size:50px; font-weight:bold;""
                            >positive</p>
                            <div style=""width:240px; margin: auto;"">
                                <img src=""images/B_D_U_23.png"" style= ""width:200px""alt=""img"">
                            </div>
                        </div>","-39","","0","images/B_D_U_23.png","","","","positive","1","23","B","D","U","",""
"","","","","","html-slider-response","108","228713","0.0-104.0","46l1abvo6a","12","NaN","<div style=""width:500px;"">
                            <p style=""font-size:50px; font-weight:bold;""
                            >positive</p>
                            <div style=""width:240px; margin: auto;"">
                                <img src=""images/G_D_U_10.png"" style= ""width:200px""alt=""img"">
                            </div>
                        </div>","-130","","0","images/G_D_U_10.png","","","","positive","2","10","G","D","U","",""
"","","","","","html-slider-response","109","230853","0.0-105.0","46l1abvo6a","12","NaN","<div style=""width:500px;"">
                            <p style=""font-size:50px; font-weight:bold;""
                            >positive</p>
                            <div style=""width:240px; margin: auto;"">
                                <img src=""images/R_D_U_44.png"" style= ""width:200px""alt=""img"">
                            </div>
                        </div>","-78","","0","images/R_D_U_44.png","","","","positive","2","44","R","D","U","",""
"","","","","","html-slider-response","110","233200","0.0-106.0","46l1abvo6a","12","NaN","<div style=""width:500px;"">
                            <p style=""font-size:50px; font-weight:bold;""
                            >positive</p>
                            <div style=""width:240px; margin: auto;"">
                                <img src=""images/Y_L_U_27.png"" style= ""width:200px""alt=""img"">
                            </div>
                        </div>","61","","0","images/Y_L_U_27.png","","","","positive","2","27","Y","L","U","",""
"","","","","","html-slider-response","111","234511","0.0-107.0","46l1abvo6a","12","NaN","<div style=""width:500px;"">
                            <p style=""font-size:50px; font-weight:bold;""
                            >positive</p>
                            <div style=""width:240px; margin: auto;"">
                                <img src=""images/Y_D_U_30.png"" style= ""width:200px""alt=""img"">
                            </div>
                        </div>","-168","","0","images/Y_D_U_30.png","","","","positive","2","30","Y","D","U","",""
"","","","","","html-slider-response","112","236716","0.0-108.0","46l1abvo6a","12","NaN","<div style=""width:500px;"">
                            <p style=""font-size:50px; font-weight:bold;""
                            >positive</p>
                            <div style=""width:240px; margin: auto;"">
                                <img src=""images/R_L_S_33.png"" style= ""width:200px""alt=""img"">
                            </div>
                        </div>","77","","0","images/R_L_S_33.png","","","","positive","1","33","R","L","S","",""
"","","","","","html-slider-response","113","238065","0.0-109.0","46l1abvo6a","12","NaN","<div style=""width:500px;"">
                            <p style=""font-size:50px; font-weight:bold;""
                            >positive</p>
                            <div style=""width:240px; margin: auto;"">
                                <img src=""images/Y_L_U_27.png"" style= ""width:200px""alt=""img"">
                            </div>
                        </div>","41","","0","images/Y_L_U_27.png","","","","positive","1","27","Y","L","U","",""
"","","","","","html-slider-response","114","239422","0.0-110.0","46l1abvo6a","12","NaN","<div style=""width:500px;"">
                            <p style=""font-size:50px; font-weight:bold;""
                            >positive</p>
                            <div style=""width:240px; margin: auto;"">
                                <img src=""images/Y_L_S_26.png"" style= ""width:200px""alt=""img"">
                            </div>
                        </div>","61","","0","images/Y_L_S_26.png","","","","positive","1","26","Y","L","S","",""
"","","","","","html-slider-response","115","240700","0.0-111.0","46l1abvo6a","12","NaN","<div style=""width:500px;"">
                            <p style=""font-size:50px; font-weight:bold;""
                            >positive</p>
                            <div style=""width:240px; margin: auto;"">
                                <img src=""images/G_L_U_05.png"" style= ""width:200px""alt=""img"">
                            </div>
                        </div>","87","","0","images/G_L_U_05.png","","","","positive","2","05","G","L","U","",""
"","","","","","html-slider-response","116","241966","0.0-112.0","46l1abvo6a","12","NaN","<div style=""width:500px;"">
                            <p style=""font-size:50px; font-weight:bold;""
                            >positive</p>
                            <div style=""width:240px; margin: auto;"">
                                <img src=""images/R_L_U_37.png"" style= ""width:200px""alt=""img"">
                            </div>
                        </div>","66","","0","images/R_L_U_37.png","","","","positive","2","37","R","L","U","",""
"","","","","","html-slider-response","117","243266","0.0-113.0","46l1abvo6a","12","NaN","<div style=""width:500px;"">
                            <p style=""font-size:50px; font-weight:bold;""
                            >positive</p>
                            <div style=""width:240px; margin: auto;"">
                                <img src=""images/B_L_U_13.png"" style= ""width:200px""alt=""img"">
                            </div>
                        </div>","66","","0","images/B_L_U_13.png","","","","positive","1","13","B","L","U","",""
"","","","","","html-button-response","118","244805","0.0-114.0","46l1abvo6a","12","1038","<p>Great Job! You've finished block 3.<br></br> You have 5 block(s) left to go.<br></br></p>","0","","","","","","","","","","","","","",""
"","","","","","html-button-response","119","245534","0.0-115.0","46l1abvo6a","12","727","<p>In this block of trials, you will be asked to rate how much you associate each map with:</p > <p style = 'font-size:150%; font-weight: bold'>calm</p><br></br>","0","","","","","","","","","","","","","",""
"","","","","","html-slider-response","120","246876","0.0-116.0","46l1abvo6a","12","NaN","<div style=""width:500px;"">
                            <p style=""font-size:50px; font-weight:bold;""
                            >calm</p>
                            <div style=""width:240px; margin: auto;"">
                                <img src=""images/R_L_U_37.png"" style= ""width:200px""alt=""img"">
                            </div>
                        </div>","70","","0","images/R_L_U_37.png","","","","calm","1","37","R","L","U","",""
"","","","","","html-slider-response","121","248602","0.0-117.0","46l1abvo6a","12","NaN","<div style=""width:500px;"">
                            <p style=""font-size:50px; font-weight:bold;""
                            >calm</p>
                            <div style=""width:240px; margin: auto;"">
                                <img src=""images/G_L_S_02.png"" style= ""width:200px""alt=""img"">
                            </div>
                        </div>","78","","0","images/G_L_S_02.png","","","","calm","1","02","G","L","S","",""
"","","","","","html-slider-response","122","250057","0.0-118.0","46l1abvo6a","12","NaN","<div style=""width:500px;"">
                            <p style=""font-size:50px; font-weight:bold;""
                            >calm</p>
                            <div style=""width:240px; margin: auto;"">
                                <img src=""images/Y_D_S_28.png"" style= ""width:200px""alt=""img"">
                            </div>
                        </div>","-129","","0","images/Y_D_S_28.png","","","","calm","1","28","Y","D","S","",""
"","","","","","html-slider-response","123","252300","0.0-119.0","46l1abvo6a","12","NaN","<div style=""width:500px;"">
                            <p style=""font-size:50px; font-weight:bold;""
                            >calm</p>
                            <div style=""width:240px; margin: auto;"">
                                <img src=""images/G_L_U_05.png"" style= ""width:200px""alt=""img"">
                            </div>
                        </div>","32","","0","images/G_L_U_05.png","","","","calm","1","05","G","L","U","",""
"","","","","","html-slider-response","124","253689","0.0-120.0","46l1abvo6a","12","NaN","<div style=""width:500px;"">
                            <p style=""font-size:50px; font-weight:bold;""
                            >calm</p>
                            <div style=""width:240px; margin: auto;"">
                                <img src=""images/Y_D_U_30.png"" style= ""width:200px""alt=""img"">
                            </div>
                        </div>","140","","0","images/Y_D_U_30.png","","","","calm","2","30","Y","D","U","",""
"","","","","","html-slider-response","125","255480","0.0-121.0","46l1abvo6a","12","NaN","<div style=""width:500px;"">
                            <p style=""font-size:50px; font-weight:bold;""
                            >calm</p>
                            <div style=""width:240px; margin: auto;"">
                                <img src=""images/G_L_U_05.png"" style= ""width:200px""alt=""img"">
                            </div>
                        </div>","117","","0","images/G_L_U_05.png","","","","calm","2","05","G","L","U","",""
"","","","","","html-slider-response","126","257316","0.0-122.0","46l1abvo6a","12","NaN","<div style=""width:500px;"">
                            <p style=""font-size:50px; font-weight:bold;""
                            >calm</p>
                            <div style=""width:240px; margin: auto;"">
                                <img src=""images/R_D_S_41.png"" style= ""width:200px""alt=""img"">
                            </div>
                        </div>","-51","","0","images/R_D_S_41.png","","","","calm","1","41","R","D","S","",""
"","","","","","html-slider-response","127","258626","0.0-123.0","46l1abvo6a","12","NaN","<div style=""width:500px;"">
                            <p style=""font-size:50px; font-weight:bold;""
                            >calm</p>
                            <div style=""width:240px; margin: auto;"">
                                <img src=""images/Y_D_S_28.png"" style= ""width:200px""alt=""img"">
                            </div>
                        </div>","190","","0","images/Y_D_S_28.png","","","","calm","2","28","Y","D","S","",""
"","","","","","html-slider-response","128","260416","0.0-124.0","46l1abvo6a","12","NaN","<div style=""width:500px;"">
                            <p style=""font-size:50px; font-weight:bold;""
                            >calm</p>
                            <div style=""width:240px; margin: auto;"">
                                <img src=""images/G_L_S_02.png"" style= ""width:200px""alt=""img"">
                            </div>
                        </div>","49","","0","images/G_L_S_02.png","","","","calm","2","02","G","L","S","",""
"","","","","","html-slider-response","129","261670","0.0-125.0","46l1abvo6a","12","NaN","<div style=""width:500px;"">
                            <p style=""font-size:50px; font-weight:bold;""
                            >calm</p>
                            <div style=""width:240px; margin: auto;"">
                                <img src=""images/G_D_S_07.png"" style= ""width:200px""alt=""img"">
                            </div>
                        </div>","134","","0","images/G_D_S_07.png","","","","calm","2","07","G","D","S","",""
"","","","","","html-slider-response","130","263332","0.0-126.0","46l1abvo6a","12","NaN","<div style=""width:500px;"">
                            <p style=""font-size:50px; font-weight:bold;""
                            >calm</p>
                            <div style=""width:240px; margin: auto;"">
                                <img src=""images/B_L_S_12.png"" style= ""width:200px""alt=""img"">
                            </div>
                        </div>","58","","0","images/B_L_S_12.png","","","","calm","2","12","B","L","S","",""
"","","","","","html-slider-response","131","264905","0.0-127.0","46l1abvo6a","12","NaN","<div style=""width:500px;"">
                            <p style=""font-size:50px; font-weight:bold;""
                            >calm</p>
                            <div style=""width:240px; margin: auto;"">
                                <img src=""images/R_L_S_33.png"" style= ""width:200px""alt=""img"">
                            </div>
                        </div>","-189","","0","images/R_L_S_33.png","","","","calm","2","33","R","L","S","",""
"","","","","","html-slider-response","132","266663","0.0-128.0","46l1abvo6a","12","NaN","<div style=""width:500px;"">
                            <p style=""font-size:50px; font-weight:bold;""
                            >calm</p>
                            <div style=""width:240px; margin: auto;"">
                                <img src=""images/Y_L_U_27.png"" style= ""width:200px""alt=""img"">
                            </div>
                        </div>","22","","0","images/Y_L_U_27.png","","","","calm","2","27","Y","L","U","",""
"","","","","","html-slider-response","133","268620","0.0-129.0","46l1abvo6a","12","NaN","<div style=""width:500px;"">
                            <p style=""font-size:50px; font-weight:bold;""
                            >calm</p>
                            <div style=""width:240px; margin: auto;"">
                                <img src=""images/R_D_U_44.png"" style= ""width:200px""alt=""img"">
                            </div>
                        </div>","146","","0","images/R_D_U_44.png","","","","calm","2","44","R","D","U","",""
"","","","","","html-slider-response","134","270698","0.0-130.0","46l1abvo6a","12","NaN","<div style=""width:500px;"">
                            <p style=""font-size:50px; font-weight:bold;""
                            >calm</p>
                            <div style=""width:240px; margin: auto;"">
                                <img src=""images/B_L_U_13.png"" style= ""width:200px""alt=""img"">
                            </div>
                        </div>","109","","0","images/B_L_U_13.png","","","","calm","2","13","B","L","U","",""
"","","","","","html-slider-response","135","272713","0.0-131.0","46l1abvo6a","12","NaN","<div style=""width:500px;"">
                            <p style=""font-size:50px; font-weight:bold;""
                            >calm</p>
                            <div style=""width:240px; margin: auto;"">
                                <img src=""images/G_D_U_10.png"" style= ""width:200px""alt=""img"">
                            </div>
                        </div>","48","","0","images/G_D_U_10.png","","","","calm","1","10","G","D","U","",""
"","","","","","html-slider-response","136","274635","0.0-132.0","46l1abvo6a","12","NaN","<div style=""width:500px;"">
                            <p style=""font-size:50px; font-weight:bold;""
                            >calm</p>
                            <div style=""width:240px; margin: auto;"">
                                <img src=""images/Y_D_U_30.png"" style= ""width:200px""alt=""img"">
                            </div>
                        </div>","70","","0","images/Y_D_U_30.png","","","","calm","1","30","Y","D","U","",""
"","","","","","html-slider-response","137","276289","0.0-133.0","46l1abvo6a","12","NaN","<div style=""width:500px;"">
                            <p style=""font-size:50px; font-weight:bold;""
                            >calm</p>
                            <div style=""width:240px; margin: auto;"">
                                <img src=""images/B_D_U_23.png"" style= ""width:200px""alt=""img"">
                            </div>
                        </div>","98","","0","images/B_D_U_23.png","","","","calm","2","23","B","D","U","",""
"","","","","","html-slider-response","138","278469","0.0-134.0","46l1abvo6a","12","NaN","<div style=""width:500px;"">
                            <p style=""font-size:50px; font-weight:bold;""
                            >calm</p>
                            <div style=""width:240px; margin: auto;"">
                                <img src=""images/G_D_U_10.png"" style= ""width:200px""alt=""img"">
                            </div>
                        </div>","91","","0","images/G_D_U_10.png","","","","calm","2","10","G","D","U","",""
"","","","","","html-slider-response","139","279980","0.0-135.0","46l1abvo6a","12","NaN","<div style=""width:500px;"">
                            <p style=""font-size:50px; font-weight:bold;""
                            >calm</p>
                            <div style=""width:240px; margin: auto;"">
                                <img src=""images/R_L_U_37.png"" style= ""width:200px""alt=""img"">
                            </div>
                        </div>","86","","0","images/R_L_U_37.png","","","","calm","2","37","R","L","U","",""
"","","","","","html-slider-response","140","281200","0.0-136.0","46l1abvo6a","12","NaN","<div style=""width:500px;"">
                            <p style=""font-size:50px; font-weight:bold;""
                            >calm</p>
                            <div style=""width:240px; margin: auto;"">
                                <img src=""images/Y_L_S_26.png"" style= ""width:200px""alt=""img"">
                            </div>
                        </div>","130","","0","images/Y_L_S_26.png","","","","calm","1","26","Y","L","S","",""
"","","","","","html-slider-response","141","282343","0.0-137.0","46l1abvo6a","12","NaN","<div style=""width:500px;"">
                            <p style=""font-size:50px; font-weight:bold;""
                            >calm</p>
                            <div style=""width:240px; margin: auto;"">
                                <img src=""images/Y_L_S_26.png"" style= ""width:200px""alt=""img"">
                            </div>
                        </div>","99","","0","images/Y_L_S_26.png","","","","calm","2","26","Y","L","S","",""
"","","","","","html-slider-response","142","283476","0.0-138.0","46l1abvo6a","12","NaN","<div style=""width:500px;"">
                            <p style=""font-size:50px; font-weight:bold;""
                            >calm</p>
                            <div style=""width:240px; margin: auto;"">
                                <img src=""images/Y_L_U_27.png"" style= ""width:200px""alt=""img"">
                            </div>
                        </div>","77","","0","images/Y_L_U_27.png","","","","calm","1","27","Y","L","U","",""
"","","","","","html-slider-response","143","284947","0.0-139.0","46l1abvo6a","12","NaN","<div style=""width:500px;"">
                            <p style=""font-size:50px; font-weight:bold;""
                            >calm</p>
                            <div style=""width:240px; margin: auto;"">
                                <img src=""images/B_L_S_12.png"" style= ""width:200px""alt=""img"">
                            </div>
                        </div>","78","","0","images/B_L_S_12.png","","","","calm","1","12","B","L","S","",""
"","","","","","html-slider-response","144","286298","0.0-140.0","46l1abvo6a","12","NaN","<div style=""width:500px;"">
                            <p style=""font-size:50px; font-weight:bold;""
                            >calm</p>
                            <div style=""width:240px; margin: auto;"">
                                <img src=""images/B_L_U_13.png"" style= ""width:200px""alt=""img"">
                            </div>
                        </div>","149","","0","images/B_L_U_13.png","","","","calm","1","13","B","L","U","",""
"","","","","","html-slider-response","145","287808","0.0-141.0","46l1abvo6a","12","NaN","<div style=""width:500px;"">
                            <p style=""font-size:50px; font-weight:bold;""
                            >calm</p>
                            <div style=""width:240px; margin: auto;"">
                                <img src=""images/B_D_U_23.png"" style= ""width:200px""alt=""img"">
                            </div>
                        </div>","88","","0","images/B_D_U_23.png","","","","calm","1","23","B","D","U","",""
"","","","","","html-slider-response","146","289597","0.0-142.0","46l1abvo6a","12","NaN","<div style=""width:500px;"">
                            <p style=""font-size:50px; font-weight:bold;""
                            >calm</p>
                            <div style=""width:240px; margin: auto;"">
                                <img src=""images/R_D_S_41.png"" style= ""width:200px""alt=""img"">
                            </div>
                        </div>","-127","","0","images/R_D_S_41.png","","","","calm","2","41","R","D","S","",""
"","","","","","html-slider-response","147","291290","0.0-143.0","46l1abvo6a","12","NaN","<div style=""width:500px;"">
                            <p style=""font-size:50px; font-weight:bold;""
                            >calm</p>
                            <div style=""width:240px; margin: auto;"">
                                <img src=""images/B_D_S_15.png"" style= ""width:200px""alt=""img"">
                            </div>
                        </div>","40","","0","images/B_D_S_15.png","","","","calm","1","15","B","D","S","",""
"","","","","","html-slider-response","148","292766","0.0-144.0","46l1abvo6a","12","NaN","<div style=""width:500px;"">
                            <p style=""font-size:50px; font-weight:bold;""
                            >calm</p>
                            <div style=""width:240px; margin: auto;"">
                                <img src=""images/B_D_S_15.png"" style= ""width:200px""alt=""img"">
                            </div>
                        </div>","23","","0","images/B_D_S_15.png","","","","calm","2","15","B","D","S","",""
"","","","","","html-slider-response","149","294204","0.0-145.0","46l1abvo6a","12","NaN","<div style=""width:500px;"">
                            <p style=""font-size:50px; font-weight:bold;""
                            >calm</p>
                            <div style=""width:240px; margin: auto;"">
                                <img src=""images/R_L_S_33.png"" style= ""width:200px""alt=""img"">
                            </div>
                        </div>","-52","","0","images/R_L_S_33.png","","","","calm","1","33","R","L","S","",""
"","","","","","html-slider-response","150","296520","0.0-146.0","46l1abvo6a","12","NaN","<div style=""width:500px;"">
                            <p style=""font-size:50px; font-weight:bold;""
                            >calm</p>
                            <div style=""width:240px; margin: auto;"">
                                <img src=""images/G_D_S_07.png"" style= ""width:200px""alt=""img"">
                            </div>
                        </div>","53","","0","images/G_D_S_07.png","","","","calm","1","07","G","D","S","",""
"","","","","","html-slider-response","151","297998","0.0-147.0","46l1abvo6a","12","NaN","<div style=""width:500px;"">
                            <p style=""font-size:50px; font-weight:bold;""
                            >calm</p>
                            <div style=""width:240px; margin: auto;"">
                                <img src=""images/R_D_U_44.png"" style= ""width:200px""alt=""img"">
                            </div>
                        </div>","85","","0","images/R_D_U_44.png","","","","calm","1","44","R","D","U","",""
"","","","","","html-button-response","152","299460","0.0-148.0","46l1abvo6a","12","960","<p>Great Job! You've finished block 4.<br></br> You have 4 block(s) left to go.<br></br></p>","0","","","","","","","","","","","","","",""
"","","","","","html-button-response","153","300372","0.0-149.0","46l1abvo6a","12","910","<p>In this block of trials, you will be asked to rate how much you associate each map with:</p > <p style = 'font-size:150%; font-weight: bold'>exciting</p><br></br>","0","","","","","","","","","","","","","",""
"","","","","","html-slider-response","154","301953","0.0-150.0","46l1abvo6a","12","NaN","<div style=""width:500px;"">
                            <p style=""font-size:50px; font-weight:bold;""
                            >exciting</p>
                            <div style=""width:240px; margin: auto;"">
                                <img src=""images/Y_L_S_26.png"" style= ""width:200px""alt=""img"">
                            </div>
                        </div>","87","","0","images/Y_L_S_26.png","","","","exciting","1","26","Y","L","S","",""
"","","","","","html-slider-response","155","303583","0.0-151.0","46l1abvo6a","12","NaN","<div style=""width:500px;"">
                            <p style=""font-size:50px; font-weight:bold;""
                            >exciting</p>
                            <div style=""width:240px; margin: auto;"">
                                <img src=""images/B_L_S_12.png"" style= ""width:200px""alt=""img"">
                            </div>
                        </div>","127","","0","images/B_L_S_12.png","","","","exciting","1","12","B","L","S","",""
"","","","","","html-slider-response","156","305389","0.0-152.0","46l1abvo6a","12","NaN","<div style=""width:500px;"">
                            <p style=""font-size:50px; font-weight:bold;""
                            >exciting</p>
                            <div style=""width:240px; margin: auto;"">
                                <img src=""images/B_D_U_23.png"" style= ""width:200px""alt=""img"">
                            </div>
                        </div>","-77","","0","images/B_D_U_23.png","","","","exciting","1","23","B","D","U","",""
"","","","","","html-slider-response","157","307064","0.0-153.0","46l1abvo6a","12","NaN","<div style=""width:500px;"">
                            <p style=""font-size:50px; font-weight:bold;""
                            >exciting</p>
                            <div style=""width:240px; margin: auto;"">
                                <img src=""images/B_D_U_23.png"" style= ""width:200px""alt=""img"">
                            </div>
                        </div>","-118","","0","images/B_D_U_23.png","","","","exciting","2","23","B","D","U","",""
"","","","","","html-slider-response","158","308510","0.0-154.0","46l1abvo6a","12","NaN","<div style=""width:500px;"">
                            <p style=""font-size:50px; font-weight:bold;""
                            >exciting</p>
                            <div style=""width:240px; margin: auto;"">
                                <img src=""images/R_L_U_37.png"" style= ""width:200px""alt=""img"">
                            </div>
                        </div>","-74","","0","images/R_L_U_37.png","","","","exciting","2","37","R","L","U","",""
"","","","","","html-slider-response","159","309939","0.0-155.0","46l1abvo6a","12","NaN","<div style=""width:500px;"">
                            <p style=""font-size:50px; font-weight:bold;""
                            >exciting</p>
                            <div style=""width:240px; margin: auto;"">
                                <img src=""images/B_D_S_15.png"" style= ""width:200px""alt=""img"">
                            </div>
                        </div>","88","","0","images/B_D_S_15.png","","","","exciting","2","15","B","D","S","",""
"","","","","","html-slider-response","160","311282","0.0-156.0","46l1abvo6a","12","NaN","<div style=""width:500px;"">
                            <p style=""font-size:50px; font-weight:bold;""
                            >exciting</p>
                            <div style=""width:240px; margin: auto;"">
                                <img src=""images/B_L_U_13.png"" style= ""width:200px""alt=""img"">
                            </div>
                        </div>","79","","0","images/B_L_U_13.png","","","","exciting","2","13","B","L","U","",""
"","","","","","html-slider-response","161","312529","0.0-157.0","46l1abvo6a","12","NaN","<div style=""width:500px;"">
                            <p style=""font-size:50px; font-weight:bold;""
                            >exciting</p>
                            <div style=""width:240px; margin: auto;"">
                                <img src=""images/G_L_U_05.png"" style= ""width:200px""alt=""img"">
                            </div>
                        </div>","78","","0","images/G_L_U_05.png","","","","exciting","2","05","G","L","U","",""
"","","","","","html-slider-response","162","313757","0.0-158.0","46l1abvo6a","12","NaN","<div style=""width:500px;"">
                            <p style=""font-size:50px; font-weight:bold;""
                            >exciting</p>
                            <div style=""width:240px; margin: auto;"">
                                <img src=""images/G_L_S_02.png"" style= ""width:200px""alt=""img"">
                            </div>
                        </div>","90","","0","images/G_L_S_02.png","","","","exciting","2","02","G","L","S","",""
"","","","","","html-slider-response","163","315123","0.0-159.0","46l1abvo6a","12","NaN","<div style=""width:500px;"">
                            <p style=""font-size:50px; font-weight:bold;""
                            >exciting</p>
                            <div style=""width:240px; margin: auto;"">
                                <img src=""images/R_D_U_44.png"" style= ""width:200px""alt=""img"">
                            </div>
                        </div>","-65","","0","images/R_D_U_44.png","","","","exciting","2","44","R","D","U","",""
"","","","","","html-slider-response","164","316418","0.0-160.0","46l1abvo6a","12","NaN","<div style=""width:500px;"">
                            <p style=""font-size:50px; font-weight:bold;""
                            >exciting</p>
                            <div style=""width:240px; margin: auto;"">
                                <img src=""images/R_D_U_44.png"" style= ""width:200px""alt=""img"">
                            </div>
                        </div>","-100","","0","images/R_D_U_44.png","","","","exciting","1","44","R","D","U","",""
"","","","","","html-slider-response","165","317841","0.0-161.0","46l1abvo6a","12","NaN","<div style=""width:500px;"">
                            <p style=""font-size:50px; font-weight:bold;""
                            >exciting</p>
                            <div style=""width:240px; margin: auto;"">
                                <img src=""images/G_D_S_07.png"" style= ""width:200px""alt=""img"">
                            </div>
                        </div>","-82","","0","images/G_D_S_07.png","","","","exciting","1","07","G","D","S","",""
"","","","","","html-slider-response","166","321013","0.0-162.0","46l1abvo6a","12","NaN","<div style=""width:500px;"">
                            <p style=""font-size:50px; font-weight:bold;""
                            >exciting</p>
                            <div style=""width:240px; margin: auto;"">
                                <img src=""images/B_L_S_12.png"" style= ""width:200px""alt=""img"">
                            </div>
                        </div>","93","","0","images/B_L_S_12.png","","","","exciting","2","12","B","L","S","",""
"","","","","","html-slider-response","167","323097","0.0-163.0","46l1abvo6a","12","NaN","<div style=""width:500px;"">
                            <p style=""font-size:50px; font-weight:bold;""
                            >exciting</p>
                            <div style=""width:240px; margin: auto;"">
                                <img src=""images/B_D_S_15.png"" style= ""width:200px""alt=""img"">
                            </div>
                        </div>","-111","","0","images/B_D_S_15.png","","","","exciting","1","15","B","D","S","",""
"","","","","","html-slider-response","168","324878","0.0-164.0","46l1abvo6a","12","NaN","<div style=""width:500px;"">
                            <p style=""font-size:50px; font-weight:bold;""
                            >exciting</p>
                            <div style=""width:240px; margin: auto;"">
                                <img src=""images/G_D_U_10.png"" style= ""width:200px""alt=""img"">
                            </div>
                        </div>","-114","","0","images/G_D_U_10.png","","","","exciting","2","10","G","D","U","",""
"","","","","","html-slider-response","169","326260","0.0-165.0","46l1abvo6a","12","NaN","<div style=""width:500px;"">
                            <p style=""font-size:50px; font-weight:bold;""
                            >exciting</p>
                            <div style=""width:240px; margin: auto;"">
                                <img src=""images/Y_D_S_28.png"" style= ""width:200px""alt=""img"">
                            </div>
                        </div>","-178","","0","images/Y_D_S_28.png","","","","exciting","1","28","Y","D","S","",""
"","","","","","html-slider-response","170","328224","0.0-166.0","46l1abvo6a","12","NaN","<div style=""width:500px;"">
                            <p style=""font-size:50px; font-weight:bold;""
                            >exciting</p>
                            <div style=""width:240px; margin: auto;"">
                                <img src=""images/G_L_S_02.png"" style= ""width:200px""alt=""img"">
                            </div>
                        </div>","96","","0","images/G_L_S_02.png","","","","exciting","1","02","G","L","S","",""
"","","","","","html-slider-response","171","329449","0.0-167.0","46l1abvo6a","12","NaN","<div style=""width:500px;"">
                            <p style=""font-size:50px; font-weight:bold;""
                            >exciting</p>
                            <div style=""width:240px; margin: auto;"">
                                <img src=""images/Y_L_U_27.png"" style= ""width:200px""alt=""img"">
                            </div>
                        </div>","94","","0","images/Y_L_U_27.png","","","","exciting","2","27","Y","L","U","",""
"","","","","","html-slider-response","172","330663","0.0-168.0","46l1abvo6a","12","NaN","<div style=""width:500px;"">
                            <p style=""font-size:50px; font-weight:bold;""
                            >exciting</p>
                            <div style=""width:240px; margin: auto;"">
                                <img src=""images/B_L_U_13.png"" style= ""width:200px""alt=""img"">
                            </div>
                        </div>","93","","0","images/B_L_U_13.png","","","","exciting","1","13","B","L","U","",""
"","","","","","html-slider-response","173","332346","0.0-169.0","46l1abvo6a","12","NaN","<div style=""width:500px;"">
                            <p style=""font-size:50px; font-weight:bold;""
                            >exciting</p>
                            <div style=""width:240px; margin: auto;"">
                                <img src=""images/G_D_S_07.png"" style= ""width:200px""alt=""img"">
                            </div>
                        </div>","-99","","0","images/G_D_S_07.png","","","","exciting","2","07","G","D","S","",""
"","","","","","html-slider-response","174","334090","0.0-170.0","46l1abvo6a","12","NaN","<div style=""width:500px;"">
                            <p style=""font-size:50px; font-weight:bold;""
                            >exciting</p>
                            <div style=""width:240px; margin: auto;"">
                                <img src=""images/Y_L_U_27.png"" style= ""width:200px""alt=""img"">
                            </div>
                        </div>","70","","0","images/Y_L_U_27.png","","","","exciting","1","27","Y","L","U","",""
"","","","","","html-slider-response","175","335902","0.0-171.0","46l1abvo6a","12","NaN","<div style=""width:500px;"">
                            <p style=""font-size:50px; font-weight:bold;""
                            >exciting</p>
                            <div style=""width:240px; margin: auto;"">
                                <img src=""images/R_L_S_33.png"" style= ""width:200px""alt=""img"">
                            </div>
                        </div>","146","","0","images/R_L_S_33.png","","","","exciting","1","33","R","L","S","",""
"","","","","","html-slider-response","176","337484","0.0-172.0","46l1abvo6a","12","NaN","<div style=""width:500px;"">
                            <p style=""font-size:50px; font-weight:bold;""
                            >exciting</p>
                            <div style=""width:240px; margin: auto;"">
                                <img src=""images/R_D_S_41.png"" style= ""width:200px""alt=""img"">
                            </div>
                        </div>","-94","","0","images/R_D_S_41.png","","","","exciting","2","41","R","D","S","",""
"","","","","","html-slider-response","177","339234","0.0-173.0","46l1abvo6a","12","NaN","<div style=""width:500px;"">
                            <p style=""font-size:50px; font-weight:bold;""
                            >exciting</p>
                            <div style=""width:240px; margin: auto;"">
                                <img src=""images/G_D_U_10.png"" style= ""width:200px""alt=""img"">
                            </div>
                        </div>","-98","","0","images/G_D_U_10.png","","","","exciting","1","10","G","D","U","",""
"","","","","","html-slider-response","178","340375","0.0-174.0","46l1abvo6a","12","NaN","<div style=""width:500px;"">
                            <p style=""font-size:50px; font-weight:bold;""
                            >exciting</p>
                            <div style=""width:240px; margin: auto;"">
                                <img src=""images/R_D_S_41.png"" style= ""width:200px""alt=""img"">
                            </div>
                        </div>","-94","","0","images/R_D_S_41.png","","","","exciting","1","41","R","D","S","",""
"","","","","","html-slider-response","179","341558","0.0-175.0","46l1abvo6a","12","NaN","<div style=""width:500px;"">
                            <p style=""font-size:50px; font-weight:bold;""
                            >exciting</p>
                            <div style=""width:240px; margin: auto;"">
                                <img src=""images/Y_D_U_30.png"" style= ""width:200px""alt=""img"">
                            </div>
                        </div>","-72","","0","images/Y_D_U_30.png","","","","exciting","2","30","Y","D","U","",""
"","","","","","html-slider-response","180","342957","0.0-176.0","46l1abvo6a","12","NaN","<div style=""width:500px;"">
                            <p style=""font-size:50px; font-weight:bold;""
                            >exciting</p>
                            <div style=""width:240px; margin: auto;"">
                                <img src=""images/R_L_S_33.png"" style= ""width:200px""alt=""img"">
                            </div>
                        </div>","146","","0","images/R_L_S_33.png","","","","exciting","2","33","R","L","S","",""
"","","","","","html-slider-response","181","344593","0.0-177.0","46l1abvo6a","12","NaN","<div style=""width:500px;"">
                            <p style=""font-size:50px; font-weight:bold;""
                            >exciting</p>
                            <div style=""width:240px; margin: auto;"">
                                <img src=""images/Y_D_S_28.png"" style= ""width:200px""alt=""img"">
                            </div>
                        </div>","-102","","0","images/Y_D_S_28.png","","","","exciting","2","28","Y","D","S","",""
"","","","","","html-slider-response","182","346302","0.0-178.0","46l1abvo6a","12","NaN","<div style=""width:500px;"">
                            <p style=""font-size:50px; font-weight:bold;""
                            >exciting</p>
                            <div style=""width:240px; margin: auto;"">
                                <img src=""images/G_L_U_05.png"" style= ""width:200px""alt=""img"">
                            </div>
                        </div>","114","","0","images/G_L_U_05.png","","","","exciting","1","05","G","L","U","",""
"","","","","","html-slider-response","183","348050","0.0-179.0","46l1abvo6a","12","NaN","<div style=""width:500px;"">
                            <p style=""font-size:50px; font-weight:bold;""
                            >exciting</p>
                            <div style=""width:240px; margin: auto;"">
                                <img src=""images/Y_D_U_30.png"" style= ""width:200px""alt=""img"">
                            </div>
                        </div>","-131","","0","images/Y_D_U_30.png","","","","exciting","1","30","Y","D","U","",""
"","","","","","html-slider-response","184","349873","0.0-180.0","46l1abvo6a","12","NaN","<div style=""width:500px;"">
                            <p style=""font-size:50px; font-weight:bold;""
                            >exciting</p>
                            <div style=""width:240px; margin: auto;"">
