"success","timeout","failed_images","failed_audio","failed_video","trial_type","trial_index","time_elapsed","internal_node_id","subject_id","condition_num","rt","stimulus","response","question_order","slider_start","image_path","practiceTrial","practiceTrialNum","correct","concept","repetition","map_id","hue","lightness","saturation","ishihara_plate","correct_response"
"true","false","[]","[]","[]","preload","0","453","0.0-0.0","4sowksutot","7","","","","","","","","","","","","","","","","",""
"","","","","","html-button-response","1","4796","0.0-1.0","4sowksutot","7","4340","Welcome to our experiment!<p>At the bottom of this screen, you will see a button that says ""Begin Experiment"".<br>Please only click that button when you are ready to complete the 25 minute experiment in one sitting.</p><p> Once you click that button, it will not be possible to restart the experiment.","0","","","","","","","","","","","","","",""
"true","","","","","fullscreen","2","7232","0.0-2.0","4sowksutot","7","1419","","","","","","","","","","","","","","","",""
"","","","","","survey-multi-select","3","31455","0.0-3.0","4sowksutot","7","24218","","{""Consent"":[""<strong>I consent</strong>""]}","[0]","","","","","","","","","","","","",""
"","","","","","html-button-response","4","34134","0.0-4.0","4sowksutot","7","2678","Welcome! <p> This experiment involves two parts: demographic information, followed by the experimental task.<p> It will take about 25 minutes to complete both parts.","0","","","","","","","","","","","","","",""
"","","","","","survey-text","5","67753","0.0-5.0","4sowksutot","7","33613","","{""Age"":""19"",""Gender"":""Female"",""Race/ethnicity"":""White, Hispanic"",""Languages"":""English, Spanish""}","","","","","","","","","","","","","",""
"","","","","","html-slider-response","6","109099","0.0-6.0","4sowksutot","7","41342","
                            <div style='text-align:left; font-size:20px; line-height:25px; width: 1400px;'>
                                During this experiment you will be asked to rate how much you associate maps with                    different concepts.<br> Below, you can see some examples of the maps you will be asked to rate. Next to the maps
                    is the list of concepts.<br>You will be asked                    to rate how much you associate each map with each concept on a scale from 'not at all' to 'very much' like the
                    one below. <br><br>
                    Now, please look at the list of concepts and maps. For each concept, think about the map you associate 'very
                    much' with the concept.<br>                     When you see that map during the experiment, please rate it near the 'very much' endpoint of the
                    scale.<br>Now, please think about which map you associate 'not at all'                     with each concept. When you see that map during the experiment, please rate it near the 'not at all' endpoint
                    of the scale.<br>
                    Please use the full range of the scale. That is, if a map is somewhat associated with the concept, you would
                    click partway between the middle point and right side of the scale.                    You will be asked to rate each map for a given concept before moving on to the next concept.<br><br>Press the
                    'Continue' button for instructions on how to use the slider.                    <br><br>
                </div>

                <div style=""width: 500px; margin: 0 auto;"">
                    <!-- Centered text paragraphs -->
                    <div style=""text-align: center; width: 500px;"">
                        <p style=""font-size:25px; line-height:18px;"">calm</p>
                        <p style=""font-size:25px; line-height:18px;"">exciting</p>
                        <p style=""font-size:25px;line-height:18px;"">positive</p>
                        <p style=""font-size:25px;line-height:18px;"">negative</p>
                        <p style=""font-size:25px;line-height:18px;"">serious</p>
                        <p style=""font-size:25px;line-height:18px;"">playful</p>
                        <p style=""font-size:25px;line-height:18px;"">trustworthy</p>
                        <p style=""font-size:25px;line-height:18px;"">disturbing</p>
                    </div>

                    <!-- Grid section -->
                   <div style=""display: flex; justify-content: center; padding-top: 15px;"">
                    <div style=""display: grid; grid-template-columns: repeat(8, 80px); grid-gap: 5px; width: auto;"">
                        <img src=""images/B_L_S_44.png"" alt=""map"" style=""width: 100%;""><img src=""images/B_D_S_05.png"" alt=""map"" style=""width: 100%;""><img src=""images/Y_D_U_15.png"" alt=""map"" style=""width: 100%;""><img src=""images/B_D_U_07.png"" alt=""map"" style=""width: 100%;""><img src=""images/G_D_U_41.png"" alt=""map"" style=""width: 100%;""><img src=""images/Y_L_U_12.png"" alt=""map"" style=""width: 100%;""><img src=""images/R_L_U_26.png"" alt=""map"" style=""width: 100%;""><img src=""images/Y_L_S_10.png"" alt=""map"" style=""width: 100%;""><img src=""images/Y_D_S_13.png"" alt=""map"" style=""width: 100%;""><img src=""images/R_D_U_28.png"" alt=""map"" style=""width: 100%;""><img src=""images/G_L_U_33.png"" alt=""map"" style=""width: 100%;""><img src=""images/R_D_S_27.png"" alt=""map"" style=""width: 100%;""><img src=""images/G_L_S_30.png"" alt=""map"" style=""width: 100%;""><img src=""images/R_L_S_23.png"" alt=""map"" style=""width: 100%;""><img src=""images/B_L_U_02.png"" alt=""map"" style=""width: 100%;""><img src=""images/G_D_S_37.png"" alt=""map"" style=""width: 100%;"">
                    </div>
                </div>

                    <!-- Clear floats -->
                    <div style=""clear: both;""></div>
                </div>
                            ","116","","0","maps_anchoring.png","true","","","","","","","","","",""
"","","","","","html-button-response","7","116998","0.0-7.0","4sowksutot","7","7897","<div style=""width:800px;""><p style=""text-align:left"">To move the slider, click and drag your cursor to the location of the scale where you would like to make your rating and then let go. When you let go of the slider, your response will be recorded and the next trial will begin. <br>
                    We are interested in your initial impressions of each map for the given concept, so please go with your first intuition. <br>
                    Before you begin the experiment, there will be four training trials for you to practice using the scale. <br>
                     When you are ready to start the training trials, please click ""Continue"".</p><br></div>","0","","","","","","","","","","","","","",""
"","","","","","html-slider-response","8","119438","0.0-8.0-0.0","4sowksutot","7","NaN","<div style=""width:500px;"">
                                    <p style=""font-size:25px;"">Please move the slider all the way to the <br> right endpoint of the scale</p>

                                    </div>
                                </div>","200","","0","","true","0","true","","","","","","","",""
"","","","","","html-button-response","9","120757","0.0-8.0-1.0","4sowksutot","7","813","<p align='center'><b>Good job!</b> Click on 'Continue' to proceed.</p>","0","","","","","","","","","","","","","",""
"","","","","","html-slider-response","10","122331","0.0-9.0-0.0","4sowksutot","7","NaN","<div style=""width:500px;"">
                                    <p style=""font-size:25px;"">Please move the slider all the way to the <br> left endpoint of the scale</p>

                                    </div>
                                </div>","-200","","0","","true","1","true","","","","","","","",""
"","","","","","html-button-response","11","124374","0.0-9.0-1.0","4sowksutot","7","1539","<p align='center'><b>Good job!</b> Click on 'Continue' to proceed.</p>","0","","","","","","","","","","","","","",""
"","","","","","html-slider-response","12","128704","0.0-10.0-0.0","4sowksutot","7","NaN","<div style=""width:500px;"">
                                    <p style=""font-size:25px;"">Please move the slider halfway between the center and right endpoint of the scale</p>

                                    </div>
                                </div>","101","","0","","true","2","true","","","","","","","",""
"","","","","","html-button-response","13","130068","0.0-10.0-1.0","4sowksutot","7","861","<p align='center'><b>Good job!</b> Click on 'Continue' to proceed.</p>","0","","","","","","","","","","","","","",""
"","","","","","html-slider-response","14","132332","0.0-11.0-0.0","4sowksutot","7","NaN","<div style=""width:500px;"">
                                    <p style=""font-size:25px;"">Please move the slider halfway between the center and left endpoint of the scale</p>

                                    </div>
                                </div>","-110","","0","","true","3","true","","","","","","","",""
"","","","","","html-button-response","15","134155","0.0-11.0-1.0","4sowksutot","7","1312","<p align='center'><b>Good job!</b> Click on 'Continue' to proceed.</p>","0","","","","","","","","","","","","","",""
"","","","","","html-button-response","16","135147","0.0-12.0","4sowksutot","7","989","<p>Great job! You've completed the practice trials. Now you will begin the main task.</p>","0","","","","","","","","","","","","","",""
"","","","","","html-button-response","17","137176","0.0-13.0","4sowksutot","7","2028","<p>In this block of trials, you will be asked to rate how much you associate each map with:</p > <p style = 'font-size:150%; font-weight: bold'>trustworthy</p><br></br>","0","","","","","","","","","","","","","",""
"","","","","","html-slider-response","18","139177","0.0-14.0","4sowksutot","7","NaN","<div style=""width:500px;"">
                            <p style=""font-size:50px; font-weight:bold;""
                            >trustworthy</p>
                            <div style=""width:240px; margin: auto;"">
                                <img src=""images/Y_D_S_13.png"" style= ""width:200px""alt=""img"">
                            </div>
                        </div>","-200","","0","images/Y_D_S_13.png","","","","trustworthy","1","13","Y","D","S","",""
"","","","","","html-slider-response","19","141631","0.0-15.0","4sowksutot","7","NaN","<div style=""width:500px;"">
                            <p style=""font-size:50px; font-weight:bold;""
                            >trustworthy</p>
                            <div style=""width:240px; margin: auto;"">
                                <img src=""images/Y_L_U_12.png"" style= ""width:200px""alt=""img"">
                            </div>
                        </div>","-200","","0","images/Y_L_U_12.png","","","","trustworthy","1","12","Y","L","U","",""
"","","","","","html-slider-response","20","2130587","0.0-16.0","4sowksutot","7","NaN","<div style=""width:500px;"">
                            <p style=""font-size:50px; font-weight:bold;""
                            >trustworthy</p>
                            <div style=""width:240px; margin: auto;"">
                                <img src=""images/G_L_S_30.png"" style= ""width:200px""alt=""img"">
                            </div>
                        </div>","78","","0","images/G_L_S_30.png","","","","trustworthy","1","30","G","L","S","",""
"","","","","","html-slider-response","21","2132810","0.0-17.0","4sowksutot","7","NaN","<div style=""width:500px;"">
                            <p style=""font-size:50px; font-weight:bold;""
                            >trustworthy</p>
                            <div style=""width:240px; margin: auto;"">
                                <img src=""images/Y_D_S_13.png"" style= ""width:200px""alt=""img"">
                            </div>
                        </div>","-118","","0","images/Y_D_S_13.png","","","","trustworthy","2","13","Y","D","S","",""
"","","","","","html-slider-response","22","2134677","0.0-18.0","4sowksutot","7","NaN","<div style=""width:500px;"">
                            <p style=""font-size:50px; font-weight:bold;""
                            >trustworthy</p>
                            <div style=""width:240px; margin: auto;"">
                                <img src=""images/B_D_U_07.png"" style= ""width:200px""alt=""img"">
                            </div>
                        </div>","-125","","0","images/B_D_U_07.png","","","","trustworthy","2","07","B","D","U","",""
"","","","","","html-slider-response","23","2136805","0.0-19.0","4sowksutot","7","NaN","<div style=""width:500px;"">
                            <p style=""font-size:50px; font-weight:bold;""
                            >trustworthy</p>
                            <div style=""width:240px; margin: auto;"">
                                <img src=""images/G_D_U_41.png"" style= ""width:200px""alt=""img"">
                            </div>
                        </div>","162","","0","images/G_D_U_41.png","","","","trustworthy","2","41","G","D","U","",""
"","","","","","html-slider-response","24","2141517","0.0-20.0","4sowksutot","7","NaN","<div style=""width:500px;"">
                            <p style=""font-size:50px; font-weight:bold;""
                            >trustworthy</p>
                            <div style=""width:240px; margin: auto;"">
                                <img src=""images/B_D_U_07.png"" style= ""width:200px""alt=""img"">
                            </div>
                        </div>","-82","","0","images/B_D_U_07.png","","","","trustworthy","1","07","B","D","U","",""
"","","","","","html-slider-response","25","2144124","0.0-21.0","4sowksutot","7","NaN","<div style=""width:500px;"">
                            <p style=""font-size:50px; font-weight:bold;""
                            >trustworthy</p>
                            <div style=""width:240px; margin: auto;"">
                                <img src=""images/Y_L_U_12.png"" style= ""width:200px""alt=""img"">
                            </div>
                        </div>","48","","0","images/Y_L_U_12.png","","","","trustworthy","2","12","Y","L","U","",""
"","","","","","html-slider-response","26","2146673","0.0-22.0","4sowksutot","7","NaN","<div style=""width:500px;"">
                            <p style=""font-size:50px; font-weight:bold;""
                            >trustworthy</p>
                            <div style=""width:240px; margin: auto;"">
                                <img src=""images/Y_L_S_10.png"" style= ""width:200px""alt=""img"">
                            </div>
                        </div>","-67","","0","images/Y_L_S_10.png","","","","trustworthy","1","10","Y","L","S","",""
"","","","","","html-slider-response","27","2149075","0.0-23.0","4sowksutot","7","NaN","<div style=""width:500px;"">
                            <p style=""font-size:50px; font-weight:bold;""
                            >trustworthy</p>
                            <div style=""width:240px; margin: auto;"">
                                <img src=""images/B_L_U_02.png"" style= ""width:200px""alt=""img"">
                            </div>
                        </div>","-198","","0","images/B_L_U_02.png","","","","trustworthy","1","02","B","L","U","",""
"","","","","","html-slider-response","28","2150856","0.0-24.0","4sowksutot","7","NaN","<div style=""width:500px;"">
                            <p style=""font-size:50px; font-weight:bold;""
                            >trustworthy</p>
                            <div style=""width:240px; margin: auto;"">
                                <img src=""images/G_L_U_33.png"" style= ""width:200px""alt=""img"">
                            </div>
                        </div>","-140","","0","images/G_L_U_33.png","","","","trustworthy","2","33","G","L","U","",""
"","","","","","html-slider-response","29","2152525","0.0-25.0","4sowksutot","7","NaN","<div style=""width:500px;"">
                            <p style=""font-size:50px; font-weight:bold;""
                            >trustworthy</p>
                            <div style=""width:240px; margin: auto;"">
                                <img src=""images/Y_D_U_15.png"" style= ""width:200px""alt=""img"">
                            </div>
                        </div>","-200","","0","images/Y_D_U_15.png","","","","trustworthy","1","15","Y","D","U","",""
"","","","","","html-slider-response","30","2153980","0.0-26.0","4sowksutot","7","NaN","<div style=""width:500px;"">
                            <p style=""font-size:50px; font-weight:bold;""
                            >trustworthy</p>
                            <div style=""width:240px; margin: auto;"">
                                <img src=""images/B_L_U_02.png"" style= ""width:200px""alt=""img"">
                            </div>
                        </div>","-200","","0","images/B_L_U_02.png","","","","trustworthy","2","02","B","L","U","",""
"","","","","","html-slider-response","31","2156921","0.0-27.0","4sowksutot","7","NaN","<div style=""width:500px;"">
                            <p style=""font-size:50px; font-weight:bold;""
                            >trustworthy</p>
                            <div style=""width:240px; margin: auto;"">
                                <img src=""images/R_L_S_23.png"" style= ""width:200px""alt=""img"">
                            </div>
                        </div>","-200","","0","images/R_L_S_23.png","","","","trustworthy","2","23","R","L","S","",""
"","","","","","html-slider-response","32","2158358","0.0-28.0","4sowksutot","7","NaN","<div style=""width:500px;"">
                            <p style=""font-size:50px; font-weight:bold;""
                            >trustworthy</p>
                            <div style=""width:240px; margin: auto;"">
                                <img src=""images/R_L_S_23.png"" style= ""width:200px""alt=""img"">
                            </div>
                        </div>","-200","","0","images/R_L_S_23.png","","","","trustworthy","1","23","R","L","S","",""
"","","","","","html-slider-response","33","2160129","0.0-29.0","4sowksutot","7","NaN","<div style=""width:500px;"">
                            <p style=""font-size:50px; font-weight:bold;""
                            >trustworthy</p>
                            <div style=""width:240px; margin: auto;"">
                                <img src=""images/R_D_U_28.png"" style= ""width:200px""alt=""img"">
                            </div>
                        </div>","-200","","0","images/R_D_U_28.png","","","","trustworthy","1","28","R","D","U","",""
"","","","","","html-slider-response","34","2162149","0.0-30.0","4sowksutot","7","NaN","<div style=""width:500px;"">
                            <p style=""font-size:50px; font-weight:bold;""
                            >trustworthy</p>
                            <div style=""width:240px; margin: auto;"">
                                <img src=""images/G_L_U_33.png"" style= ""width:200px""alt=""img"">
                            </div>
                        </div>","-130","","0","images/G_L_U_33.png","","","","trustworthy","1","33","G","L","U","",""
"","","","","","html-slider-response","35","2164147","0.0-31.0","4sowksutot","7","NaN","<div style=""width:500px;"">
                            <p style=""font-size:50px; font-weight:bold;""
                            >trustworthy</p>
                            <div style=""width:240px; margin: auto;"">
                                <img src=""images/B_D_S_05.png"" style= ""width:200px""alt=""img"">
                            </div>
                        </div>","-30","","0","images/B_D_S_05.png","","","","trustworthy","2","05","B","D","S","",""
"","","","","","html-slider-response","36","2166049","0.0-32.0","4sowksutot","7","NaN","<div style=""width:500px;"">
                            <p style=""font-size:50px; font-weight:bold;""
                            >trustworthy</p>
                            <div style=""width:240px; margin: auto;"">
                                <img src=""images/R_D_S_27.png"" style= ""width:200px""alt=""img"">
                            </div>
                        </div>","-90","","0","images/R_D_S_27.png","","","","trustworthy","2","27","R","D","S","",""
"","","","","","html-slider-response","37","2167792","0.0-33.0","4sowksutot","7","NaN","<div style=""width:500px;"">
                            <p style=""font-size:50px; font-weight:bold;""
                            >trustworthy</p>
                            <div style=""width:240px; margin: auto;"">
                                <img src=""images/R_D_U_28.png"" style= ""width:200px""alt=""img"">
                            </div>
                        </div>","-122","","0","images/R_D_U_28.png","","","","trustworthy","2","28","R","D","U","",""
"","","","","","html-slider-response","38","2169237","0.0-34.0","4sowksutot","7","NaN","<div style=""width:500px;"">
                            <p style=""font-size:50px; font-weight:bold;""
                            >trustworthy</p>
                            <div style=""width:240px; margin: auto;"">
                                <img src=""images/R_D_S_27.png"" style= ""width:200px""alt=""img"">
                            </div>
                        </div>","-128","","0","images/R_D_S_27.png","","","","trustworthy","1","27","R","D","S","",""
"","","","","","html-slider-response","39","2171441","0.0-35.0","4sowksutot","7","NaN","<div style=""width:500px;"">
                            <p style=""font-size:50px; font-weight:bold;""
                            >trustworthy</p>
                            <div style=""width:240px; margin: auto;"">
                                <img src=""images/R_L_U_26.png"" style= ""width:200px""alt=""img"">
                            </div>
                        </div>","109","","0","images/R_L_U_26.png","","","","trustworthy","1","26","R","L","U","",""
"","","","","","html-slider-response","40","2173082","0.0-36.0","4sowksutot","7","NaN","<div style=""width:500px;"">
                            <p style=""font-size:50px; font-weight:bold;""
                            >trustworthy</p>
                            <div style=""width:240px; margin: auto;"">
                                <img src=""images/R_L_U_26.png"" style= ""width:200px""alt=""img"">
                            </div>
                        </div>","117","","0","images/R_L_U_26.png","","","","trustworthy","2","26","R","L","U","",""
"","","","","","html-slider-response","41","2175278","0.0-37.0","4sowksutot","7","NaN","<div style=""width:500px;"">
                            <p style=""font-size:50px; font-weight:bold;""
                            >trustworthy</p>
                            <div style=""width:240px; margin: auto;"">
                                <img src=""images/Y_L_S_10.png"" style= ""width:200px""alt=""img"">
                            </div>
                        </div>","69","","0","images/Y_L_S_10.png","","","","trustworthy","2","10","Y","L","S","",""
"","","","","","html-slider-response","42","2177087","0.0-38.0","4sowksutot","7","NaN","<div style=""width:500px;"">
                            <p style=""font-size:50px; font-weight:bold;""
                            >trustworthy</p>
                            <div style=""width:240px; margin: auto;"">
                                <img src=""images/B_D_S_05.png"" style= ""width:200px""alt=""img"">
                            </div>
                        </div>","-138","","0","images/B_D_S_05.png","","","","trustworthy","1","05","B","D","S","",""
"","","","","","html-slider-response","43","2178841","0.0-39.0","4sowksutot","7","NaN","<div style=""width:500px;"">
                            <p style=""font-size:50px; font-weight:bold;""
                            >trustworthy</p>
                            <div style=""width:240px; margin: auto;"">
                                <img src=""images/G_L_S_30.png"" style= ""width:200px""alt=""img"">
                            </div>
                        </div>","-110","","0","images/G_L_S_30.png","","","","trustworthy","2","30","G","L","S","",""
"","","","","","html-slider-response","44","2180484","0.0-40.0","4sowksutot","7","NaN","<div style=""width:500px;"">
                            <p style=""font-size:50px; font-weight:bold;""
                            >trustworthy</p>
                            <div style=""width:240px; margin: auto;"">
                                <img src=""images/G_D_S_37.png"" style= ""width:200px""alt=""img"">
                            </div>
                        </div>","-130","","0","images/G_D_S_37.png","","","","trustworthy","2","37","G","D","S","",""
"","","","","","html-slider-response","45","2181978","0.0-41.0","4sowksutot","7","NaN","<div style=""width:500px;"">
                            <p style=""font-size:50px; font-weight:bold;""
                            >trustworthy</p>
                            <div style=""width:240px; margin: auto;"">
                                <img src=""images/G_D_S_37.png"" style= ""width:200px""alt=""img"">
                            </div>
                        </div>","-141","","0","images/G_D_S_37.png","","","","trustworthy","1","37","G","D","S","",""
"","","","","","html-slider-response","46","2185062","0.0-42.0","4sowksutot","7","NaN","<div style=""width:500px;"">
                            <p style=""font-size:50px; font-weight:bold;""
                            >trustworthy</p>
                            <div style=""width:240px; margin: auto;"">
                                <img src=""images/Y_D_U_15.png"" style= ""width:200px""alt=""img"">
                            </div>
                        </div>","-162","","0","images/Y_D_U_15.png","","","","trustworthy","2","15","Y","D","U","",""
"","","","","","html-slider-response","47","2190009","0.0-43.0","4sowksutot","7","NaN","<div style=""width:500px;"">
                            <p style=""font-size:50px; font-weight:bold;""
                            >trustworthy</p>
                            <div style=""width:240px; margin: auto;"">
                                <img src=""images/G_D_U_41.png"" style= ""width:200px""alt=""img"">
                            </div>
                        </div>","-200","","0","images/G_D_U_41.png","","","","trustworthy","1","41","G","D","U","",""
"","","","","","html-slider-response","48","2191737","0.0-44.0","4sowksutot","7","NaN","<div style=""width:500px;"">
                            <p style=""font-size:50px; font-weight:bold;""
                            >trustworthy</p>
                            <div style=""width:240px; margin: auto;"">
                                <img src=""images/B_L_S_44.png"" style= ""width:200px""alt=""img"">
                            </div>
                        </div>","59","","0","images/B_L_S_44.png","","","","trustworthy","2","44","B","L","S","",""
"","","","","","html-slider-response","49","2192913","0.0-45.0","4sowksutot","7","NaN","<div style=""width:500px;"">
                            <p style=""font-size:50px; font-weight:bold;""
                            >trustworthy</p>
                            <div style=""width:240px; margin: auto;"">
                                <img src=""images/B_L_S_44.png"" style= ""width:200px""alt=""img"">
                            </div>
                        </div>","34","","0","images/B_L_S_44.png","","","","trustworthy","1","44","B","L","S","",""
"","","","","","html-button-response","50","2194548","0.0-46.0","4sowksutot","7","1125","<p>Great Job! You've finished block 1.<br></br> You have 7 block(s) left to go.<br></br></p>","0","","","","","","","","","","","","","",""
"","","","","","html-button-response","51","2197539","0.0-47.0","4sowksutot","7","2990","<p>In this block of trials, you will be asked to rate how much you associate each map with:</p > <p style = 'font-size:150%; font-weight: bold'>positive</p><br></br>","0","","","","","","","","","","","","","",""
"","","","","","html-slider-response","52","2198681","0.0-48.0","4sowksutot","7","NaN","<div style=""width:500px;"">
                            <p style=""font-size:50px; font-weight:bold;""
                            >positive</p>
                            <div style=""width:240px; margin: auto;"">
                                <img src=""images/B_D_S_05.png"" style= ""width:200px""alt=""img"">
                            </div>
                        </div>","35","","0","images/B_D_S_05.png","","","","positive","2","05","B","D","S","",""
"","","","","","html-slider-response","53","2200727","0.0-49.0","4sowksutot","7","NaN","<div style=""width:500px;"">
                            <p style=""font-size:50px; font-weight:bold;""
                            >positive</p>
                            <div style=""width:240px; margin: auto;"">
                                <img src=""images/R_L_U_26.png"" style= ""width:200px""alt=""img"">
                            </div>
                        </div>","-198","","0","images/R_L_U_26.png","","","","positive","2","26","R","L","U","",""
"","","","","","html-slider-response","54","2202183","0.0-50.0","4sowksutot","7","NaN","<div style=""width:500px;"">
                            <p style=""font-size:50px; font-weight:bold;""
                            >positive</p>
                            <div style=""width:240px; margin: auto;"">
                                <img src=""images/B_L_U_02.png"" style= ""width:200px""alt=""img"">
                            </div>
                        </div>","-143","","0","images/B_L_U_02.png","","","","positive","1","02","B","L","U","",""
"","","","","","html-slider-response","55","2204536","0.0-51.0","4sowksutot","7","NaN","<div style=""width:500px;"">
                            <p style=""font-size:50px; font-weight:bold;""
                            >positive</p>
                            <div style=""width:240px; margin: auto;"">
                                <img src=""images/G_L_S_30.png"" style= ""width:200px""alt=""img"">
                            </div>
                        </div>","182","","0","images/G_L_S_30.png","","","","positive","1","30","G","L","S","",""
"","","","","","html-slider-response","56","2206322","0.0-52.0","4sowksutot","7","NaN","<div style=""width:500px;"">
                            <p style=""font-size:50px; font-weight:bold;""
                            >positive</p>
                            <div style=""width:240px; margin: auto;"">
                                <img src=""images/Y_L_U_12.png"" style= ""width:200px""alt=""img"">
                            </div>
                        </div>","-39","","0","images/Y_L_U_12.png","","","","positive","2","12","Y","L","U","",""
"","","","","","html-slider-response","57","2207737","0.0-53.0","4sowksutot","7","NaN","<div style=""width:500px;"">
                            <p style=""font-size:50px; font-weight:bold;""
                            >positive</p>
                            <div style=""width:240px; margin: auto;"">
                                <img src=""images/R_D_U_28.png"" style= ""width:200px""alt=""img"">
                            </div>
                        </div>","-126","","0","images/R_D_U_28.png","","","","positive","1","28","R","D","U","",""
"","","","","","html-slider-response","58","2210587","0.0-54.0","4sowksutot","7","NaN","<div style=""width:500px;"">
                            <p style=""font-size:50px; font-weight:bold;""
                            >positive</p>
                            <div style=""width:240px; margin: auto;"">
                                <img src=""images/G_L_U_33.png"" style= ""width:200px""alt=""img"">
                            </div>
                        </div>","50","","0","images/G_L_U_33.png","","","","positive","1","33","G","L","U","",""
"","","","","","html-slider-response","59","2212460","0.0-55.0","4sowksutot","7","NaN","<div style=""width:500px;"">
                            <p style=""font-size:50px; font-weight:bold;""
                            >positive</p>
                            <div style=""width:240px; margin: auto;"">
                                <img src=""images/G_D_S_37.png"" style= ""width:200px""alt=""img"">
                            </div>
                        </div>","161","","0","images/G_D_S_37.png","","","","positive","2","37","G","D","S","",""
"","","","","","html-slider-response","60","2214131","0.0-56.0","4sowksutot","7","NaN","<div style=""width:500px;"">
                            <p style=""font-size:50px; font-weight:bold;""
                            >positive</p>
                            <div style=""width:240px; margin: auto;"">
                                <img src=""images/Y_L_S_10.png"" style= ""width:200px""alt=""img"">
                            </div>
                        </div>","46","","0","images/Y_L_S_10.png","","","","positive","2","10","Y","L","S","",""
"","","","","","html-slider-response","61","2215856","0.0-57.0","4sowksutot","7","NaN","<div style=""width:500px;"">
                            <p style=""font-size:50px; font-weight:bold;""
                            >positive</p>
                            <div style=""width:240px; margin: auto;"">
                                <img src=""images/G_L_S_30.png"" style= ""width:200px""alt=""img"">
                            </div>
                        </div>","162","","0","images/G_L_S_30.png","","","","positive","2","30","G","L","S","",""
"","","","","","html-slider-response","62","2217324","0.0-58.0","4sowksutot","7","NaN","<div style=""width:500px;"">
                            <p style=""font-size:50px; font-weight:bold;""
                            >positive</p>
                            <div style=""width:240px; margin: auto;"">
                                <img src=""images/R_D_S_27.png"" style= ""width:200px""alt=""img"">
                            </div>
                        </div>","-74","","0","images/R_D_S_27.png","","","","positive","1","27","R","D","S","",""
"","","","","","html-slider-response","63","2219418","0.0-59.0","4sowksutot","7","NaN","<div style=""width:500px;"">
                            <p style=""font-size:50px; font-weight:bold;""
                            >positive</p>
                            <div style=""width:240px; margin: auto;"">
                                <img src=""images/R_L_U_26.png"" style= ""width:200px""alt=""img"">
                            </div>
                        </div>","-21","","0","images/R_L_U_26.png","","","","positive","1","26","R","L","U","",""
"","","","","","html-slider-response","64","2222874","0.0-60.0","4sowksutot","7","NaN","<div style=""width:500px;"">
                            <p style=""font-size:50px; font-weight:bold;""
                            >positive</p>
                            <div style=""width:240px; margin: auto;"">
                                <img src=""images/R_D_S_27.png"" style= ""width:200px""alt=""img"">
                            </div>
                        </div>","-122","","0","images/R_D_S_27.png","","","","positive","2","27","R","D","S","",""
"","","","","","html-slider-response","65","2224805","0.0-61.0","4sowksutot","7","NaN","<div style=""width:500px;"">
                            <p style=""font-size:50px; font-weight:bold;""
                            >positive</p>
                            <div style=""width:240px; margin: auto;"">
                                <img src=""images/G_D_U_41.png"" style= ""width:200px""alt=""img"">
                            </div>
                        </div>","200","","0","images/G_D_U_41.png","","","","positive","1","41","G","D","U","",""
"","","","","","html-slider-response","66","2226418","0.0-62.0","4sowksutot","7","NaN","<div style=""width:500px;"">
                            <p style=""font-size:50px; font-weight:bold;""
                            >positive</p>
                            <div style=""width:240px; margin: auto;"">
                                <img src=""images/G_D_U_41.png"" style= ""width:200px""alt=""img"">
                            </div>
                        </div>","200","","0","images/G_D_U_41.png","","","","positive","2","41","G","D","U","",""
"","","","","","html-slider-response","67","2231235","0.0-63.0","4sowksutot","7","NaN","<div style=""width:500px;"">
                            <p style=""font-size:50px; font-weight:bold;""
                            >positive</p>
                            <div style=""width:240px; margin: auto;"">
                                <img src=""images/B_L_U_02.png"" style= ""width:200px""alt=""img"">
                            </div>
                        </div>","-12","","0","images/B_L_U_02.png","","","","positive","2","02","B","L","U","",""
"","","","","","html-slider-response","68","2233095","0.0-64.0","4sowksutot","7","NaN","<div style=""width:500px;"">
                            <p style=""font-size:50px; font-weight:bold;""
                            >positive</p>
                            <div style=""width:240px; margin: auto;"">
                                <img src=""images/G_D_S_37.png"" style= ""width:200px""alt=""img"">
                            </div>
                        </div>","200","","0","images/G_D_S_37.png","","","","positive","1","37","G","D","S","",""
"","","","","","html-slider-response","69","2236124","0.0-65.0","4sowksutot","7","NaN","<div style=""width:500px;"">
                            <p style=""font-size:50px; font-weight:bold;""
                            >positive</p>
                            <div style=""width:240px; margin: auto;"">
                                <img src=""images/R_L_S_23.png"" style= ""width:200px""alt=""img"">
                            </div>
                        </div>","-60","","0","images/R_L_S_23.png","","","","positive","2","23","R","L","S","",""
"","","","","","html-slider-response","70","2238095","0.0-66.0","4sowksutot","7","NaN","<div style=""width:500px;"">
                            <p style=""font-size:50px; font-weight:bold;""
                            >positive</p>
                            <div style=""width:240px; margin: auto;"">
                                <img src=""images/Y_D_S_13.png"" style= ""width:200px""alt=""img"">
                            </div>
                        </div>","102","","0","images/Y_D_S_13.png","","","","positive","2","13","Y","D","S","",""
"","","","","","html-slider-response","71","2239580","0.0-67.0","4sowksutot","7","NaN","<div style=""width:500px;"">
                            <p style=""font-size:50px; font-weight:bold;""
                            >positive</p>
                            <div style=""width:240px; margin: auto;"">
                                <img src=""images/R_D_U_28.png"" style= ""width:200px""alt=""img"">
                            </div>
                        </div>","-103","","0","images/R_D_U_28.png","","","","positive","2","28","R","D","U","",""
"","","","","","html-slider-response","72","2241466","0.0-68.0","4sowksutot","7","NaN","<div style=""width:500px;"">
                            <p style=""font-size:50px; font-weight:bold;""
                            >positive</p>
                            <div style=""width:240px; margin: auto;"">
                                <img src=""images/B_L_S_44.png"" style= ""width:200px""alt=""img"">
                            </div>
                        </div>","-117","","0","images/B_L_S_44.png","","","","positive","2","44","B","L","S","",""
"","","","","","html-slider-response","73","2244832","0.0-69.0","4sowksutot","7","NaN","<div style=""width:500px;"">
                            <p style=""font-size:50px; font-weight:bold;""
                            >positive</p>
                            <div style=""width:240px; margin: auto;"">
                                <img src=""images/R_L_S_23.png"" style= ""width:200px""alt=""img"">
                            </div>
                        </div>","-31","","0","images/R_L_S_23.png","","","","positive","1","23","R","L","S","",""
"","","","","","html-slider-response","74","2247708","0.0-70.0","4sowksutot","7","NaN","<div style=""width:500px;"">
                            <p style=""font-size:50px; font-weight:bold;""
                            >positive</p>
                            <div style=""width:240px; margin: auto;"">
                                <img src=""images/Y_D_U_15.png"" style= ""width:200px""alt=""img"">
                            </div>
                        </div>","2","","0","images/Y_D_U_15.png","","","","positive","2","15","Y","D","U","",""
"","","","","","html-slider-response","75","2249465","0.0-71.0","4sowksutot","7","NaN","<div style=""width:500px;"">
                            <p style=""font-size:50px; font-weight:bold;""
                            >positive</p>
                            <div style=""width:240px; margin: auto;"">
                                <img src=""images/Y_D_U_15.png"" style= ""width:200px""alt=""img"">
                            </div>
                        </div>","-62","","0","images/Y_D_U_15.png","","","","positive","1","15","Y","D","U","",""
"","","","","","html-slider-response","76","2255143","0.0-72.0","4sowksutot","7","NaN","<div style=""width:500px;"">
                            <p style=""font-size:50px; font-weight:bold;""
                            >positive</p>
                            <div style=""width:240px; margin: auto;"">
                                <img src=""images/B_D_U_07.png"" style= ""width:200px""alt=""img"">
                            </div>
                        </div>","-62","","0","images/B_D_U_07.png","","","","positive","1","07","B","D","U","",""
"","","","","","html-slider-response","77","2256792","0.0-73.0","4sowksutot","7","NaN","<div style=""width:500px;"">
                            <p style=""font-size:50px; font-weight:bold;""
                            >positive</p>
                            <div style=""width:240px; margin: auto;"">
                                <img src=""images/B_D_S_05.png"" style= ""width:200px""alt=""img"">
                            </div>
                        </div>","-35","","0","images/B_D_S_05.png","","","","positive","1","05","B","D","S","",""
"","","","","","html-slider-response","78","2258364","0.0-74.0","4sowksutot","7","NaN","<div style=""width:500px;"">
                            <p style=""font-size:50px; font-weight:bold;""
                            >positive</p>
                            <div style=""width:240px; margin: auto;"">
                                <img src=""images/B_D_U_07.png"" style= ""width:200px""alt=""img"">
                            </div>
                        </div>","-13","","0","images/B_D_U_07.png","","","","positive","2","07","B","D","U","",""
"","","","","","html-slider-response","79","2260220","0.0-75.0","4sowksutot","7","NaN","<div style=""width:500px;"">
                            <p style=""font-size:50px; font-weight:bold;""
                            >positive</p>
                            <div style=""width:240px; margin: auto;"">
                                <img src=""images/Y_L_U_12.png"" style= ""width:200px""alt=""img"">
                            </div>
                        </div>","50","","0","images/Y_L_U_12.png","","","","positive","1","12","Y","L","U","",""
"","","","","","html-slider-response","80","2262692","0.0-76.0","4sowksutot","7","NaN","<div style=""width:500px;"">
                            <p style=""font-size:50px; font-weight:bold;""
                            >positive</p>
                            <div style=""width:240px; margin: auto;"">
                                <img src=""images/B_L_S_44.png"" style= ""width:200px""alt=""img"">
                            </div>
                        </div>","-23","","0","images/B_L_S_44.png","","","","positive","1","44","B","L","S","",""
"","","","","","html-slider-response","81","2264511","0.0-77.0","4sowksutot","7","NaN","<div style=""width:500px;"">
                            <p style=""font-size:50px; font-weight:bold;""
                            >positive</p>
                            <div style=""width:240px; margin: auto;"">
                                <img src=""images/Y_L_S_10.png"" style= ""width:200px""alt=""img"">
                            </div>
                        </div>","55","","0","images/Y_L_S_10.png","","","","positive","1","10","Y","L","S","",""
"","","","","","html-slider-response","82","2266415","0.0-78.0","4sowksutot","7","NaN","<div style=""width:500px;"">
                            <p style=""font-size:50px; font-weight:bold;""
                            >positive</p>
                            <div style=""width:240px; margin: auto;"">
                                <img src=""images/Y_D_S_13.png"" style= ""width:200px""alt=""img"">
                            </div>
                        </div>","174","","0","images/Y_D_S_13.png","","","","positive","1","13","Y","D","S","",""
"","","","","","html-slider-response","83","2269513","0.0-79.0","4sowksutot","7","NaN","<div style=""width:500px;"">
                            <p style=""font-size:50px; font-weight:bold;""
                            >positive</p>
                            <div style=""width:240px; margin: auto;"">
                                <img src=""images/G_L_U_33.png"" style= ""width:200px""alt=""img"">
                            </div>
                        </div>","200","","0","images/G_L_U_33.png","","","","positive","2","33","G","L","U","",""
"","","","","","html-button-response","84","2270827","0.0-80.0","4sowksutot","7","813","<p>Great Job! You've finished block 2.<br></br> You have 6 block(s) left to go.<br></br></p>","0","","","","","","","","","","","","","",""
"","","","","","html-button-response","85","2271683","0.0-81.0","4sowksutot","7","855","<p>In this block of trials, you will be asked to rate how much you associate each map with:</p > <p style = 'font-size:150%; font-weight: bold'>serious</p><br></br>","0","","","","","","","","","","","","","",""
"","","","","","html-slider-response","86","2272999","0.0-82.0","4sowksutot","7","NaN","<div style=""width:500px;"">
                            <p style=""font-size:50px; font-weight:bold;""
                            >serious</p>
                            <div style=""width:240px; margin: auto;"">
                                <img src=""images/B_D_U_07.png"" style= ""width:200px""alt=""img"">
                            </div>
                        </div>","-4","","0","images/B_D_U_07.png","","","","serious","2","07","B","D","U","",""
"","","","","","html-slider-response","87","2274679","0.0-83.0","4sowksutot","7","NaN","<div style=""width:500px;"">
                            <p style=""font-size:50px; font-weight:bold;""
                            >serious</p>
                            <div style=""width:240px; margin: auto;"">
                                <img src=""images/Y_D_S_13.png"" style= ""width:200px""alt=""img"">
                            </div>
                        </div>","4","","0","images/Y_D_S_13.png","","","","serious","2","13","Y","D","S","",""
"","","","","","html-slider-response","88","2277449","0.0-84.0","4sowksutot","7","NaN","<div style=""width:500px;"">
                            <p style=""font-size:50px; font-weight:bold;""
                            >serious</p>
                            <div style=""width:240px; margin: auto;"">
                                <img src=""images/B_L_S_44.png"" style= ""width:200px""alt=""img"">
                            </div>
                        </div>","-133","","0","images/B_L_S_44.png","","","","serious","1","44","B","L","S","",""
"","","","","","html-slider-response","89","2279218","0.0-85.0","4sowksutot","7","NaN","<div style=""width:500px;"">
                            <p style=""font-size:50px; font-weight:bold;""
                            >serious</p>
                            <div style=""width:240px; margin: auto;"">
                                <img src=""images/B_L_U_02.png"" style= ""width:200px""alt=""img"">
                            </div>
                        </div>","-166","","0","images/B_L_U_02.png","","","","serious","1","02","B","L","U","",""
"","","","","","html-slider-response","90","2281097","0.0-86.0","4sowksutot","7","NaN","<div style=""width:500px;"">
                            <p style=""font-size:50px; font-weight:bold;""
                            >serious</p>
                            <div style=""width:240px; margin: auto;"">
                                <img src=""images/R_L_U_26.png"" style= ""width:200px""alt=""img"">
                            </div>
                        </div>","-171","","0","images/R_L_U_26.png","","","","serious","2","26","R","L","U","",""
"","","","","","html-slider-response","91","2282984","0.0-87.0","4sowksutot","7","NaN","<div style=""width:500px;"">
                            <p style=""font-size:50px; font-weight:bold;""
                            >serious</p>
                            <div style=""width:240px; margin: auto;"">
                                <img src=""images/G_L_S_30.png"" style= ""width:200px""alt=""img"">
                            </div>
                        </div>","134","","0","images/G_L_S_30.png","","","","serious","1","30","G","L","S","",""
"","","","","","html-slider-response","92","2285776","0.0-88.0","4sowksutot","7","NaN","<div style=""width:500px;"">
                            <p style=""font-size:50px; font-weight:bold;""
                            >serious</p>
                            <div style=""width:240px; margin: auto;"">
                                <img src=""images/B_L_S_44.png"" style= ""width:200px""alt=""img"">
                            </div>
                        </div>","10","","0","images/B_L_S_44.png","","","","serious","2","44","B","L","S","",""
"","","","","","html-slider-response","93","2287079","0.0-89.0","4sowksutot","7","NaN","<div style=""width:500px;"">
                            <p style=""font-size:50px; font-weight:bold;""
                            >serious</p>
                            <div style=""width:240px; margin: auto;"">
                                <img src=""images/G_L_U_33.png"" style= ""width:200px""alt=""img"">
                            </div>
                        </div>","35","","0","images/G_L_U_33.png","","","","serious","1","33","G","L","U","",""
"","","","","","html-slider-response","94","2288962","0.0-90.0","4sowksutot","7","NaN","<div style=""width:500px;"">
                            <p style=""font-size:50px; font-weight:bold;""
                            >serious</p>
                            <div style=""width:240px; margin: auto;"">
                                <img src=""images/R_D_U_28.png"" style= ""width:200px""alt=""img"">
                            </div>
                        </div>","200","","0","images/R_D_U_28.png","","","","serious","2","28","R","D","U","",""
"","","","","","html-slider-response","95","2290917","0.0-91.0","4sowksutot","7","NaN","<div style=""width:500px;"">
                            <p style=""font-size:50px; font-weight:bold;""
                            >serious</p>
                            <div style=""width:240px; margin: auto;"">
                                <img src=""images/Y_L_S_10.png"" style= ""width:200px""alt=""img"">
                            </div>
                        </div>","200","","0","images/Y_L_S_10.png","","","","serious","1","10","Y","L","S","",""
"","","","","","html-slider-response","96","2292309","0.0-92.0","4sowksutot","7","NaN","<div style=""width:500px;"">
                            <p style=""font-size:50px; font-weight:bold;""
                            >serious</p>
                            <div style=""width:240px; margin: auto;"">
                                <img src=""images/Y_L_U_12.png"" style= ""width:200px""alt=""img"">
                            </div>
                        </div>","200","","0","images/Y_L_U_12.png","","","","serious","1","12","Y","L","U","",""
"","","","","","html-slider-response","97","2293613","0.0-93.0","4sowksutot","7","NaN","<div style=""width:500px;"">
                            <p style=""font-size:50px; font-weight:bold;""
                            >serious</p>
                            <div style=""width:240px; margin: auto;"">
                                <img src=""images/Y_L_S_10.png"" style= ""width:200px""alt=""img"">
                            </div>
                        </div>","200","","0","images/Y_L_S_10.png","","","","serious","2","10","Y","L","S","",""
"","","","","","html-slider-response","98","2295352","0.0-94.0","4sowksutot","7","NaN","<div style=""width:500px;"">
                            <p style=""font-size:50px; font-weight:bold;""
                            >serious</p>
                            <div style=""width:240px; margin: auto;"">
                                <img src=""images/G_L_U_33.png"" style= ""width:200px""alt=""img"">
                            </div>
                        </div>","34","","0","images/G_L_U_33.png","","","","serious","2","33","G","L","U","",""
"","","","","","html-slider-response","99","2298164","0.0-95.0","4sowksutot","7","NaN","<div style=""width:500px;"">
                            <p style=""font-size:50px; font-weight:bold;""
                            >serious</p>
                            <div style=""width:240px; margin: auto;"">
                                <img src=""images/B_D_U_07.png"" style= ""width:200px""alt=""img"">
                            </div>
                        </div>","152","","0","images/B_D_U_07.png","","","","serious","1","07","B","D","U","",""
"","","","","","html-slider-response","100","2299820","0.0-96.0","4sowksutot","7","NaN","<div style=""width:500px;"">
                            <p style=""font-size:50px; font-weight:bold;""
                            >serious</p>
                            <div style=""width:240px; margin: auto;"">
                                <img src=""images/R_D_S_27.png"" style= ""width:200px""alt=""img"">
                            </div>
                        </div>","-200","","0","images/R_D_S_27.png","","","","serious","2","27","R","D","S","",""
"","","","","","html-slider-response","101","2302683","0.0-97.0","4sowksutot","7","NaN","<div style=""width:500px;"">
                            <p style=""font-size:50px; font-weight:bold;""
                            >serious</p>
                            <div style=""width:240px; margin: auto;"">
                                <img src=""images/B_L_U_02.png"" style= ""width:200px""alt=""img"">
                            </div>
                        </div>","-4","","0","images/B_L_U_02.png","","","","serious","2","02","B","L","U","",""
"","","","","","html-slider-response","102","2304448","0.0-98.0","4sowksutot","7","NaN","<div style=""width:500px;"">
                            <p style=""font-size:50px; font-weight:bold;""
                            >serious</p>
                            <div style=""width:240px; margin: auto;"">
                                <img src=""images/G_D_S_37.png"" style= ""width:200px""alt=""img"">
                            </div>
                        </div>","59","","0","images/G_D_S_37.png","","","","serious","2","37","G","D","S","",""
"","","","","","html-slider-response","103","2306491","0.0-99.0","4sowksutot","7","NaN","<div style=""width:500px;"">
                            <p style=""font-size:50px; font-weight:bold;""
                            >serious</p>
                            <div style=""width:240px; margin: auto;"">
                                <img src=""images/Y_D_S_13.png"" style= ""width:200px""alt=""img"">
                            </div>
                        </div>","200","","0","images/Y_D_S_13.png","","","","serious","1","13","Y","D","S","",""
"","","","","","html-slider-response","104","2308857","0.0-100.0","4sowksutot","7","NaN","<div style=""width:500px;"">
                            <p style=""font-size:50px; font-weight:bold;""
                            >serious</p>
                            <div style=""width:240px; margin: auto;"">
                                <img src=""images/R_L_S_23.png"" style= ""width:200px""alt=""img"">
                            </div>
                        </div>","-90","","0","images/R_L_S_23.png","","","","serious","2","23","R","L","S","",""
"","","","","","html-slider-response","105","2310325","0.0-101.0","4sowksutot","7","NaN","<div style=""width:500px;"">
                            <p style=""font-size:50px; font-weight:bold;""
                            >serious</p>
                            <div style=""width:240px; margin: auto;"">
                                <img src=""images/G_D_S_37.png"" style= ""width:200px""alt=""img"">
                            </div>
                        </div>","-112","","0","images/G_D_S_37.png","","","","serious","1","37","G","D","S","",""
"","","","","","html-slider-response","106","2312487","0.0-102.0","4sowksutot","7","NaN","<div style=""width:500px;"">
                            <p style=""font-size:50px; font-weight:bold;""
                            >serious</p>
                            <div style=""width:240px; margin: auto;"">
                                <img src=""images/R_D_S_27.png"" style= ""width:200px""alt=""img"">
                            </div>
                        </div>","-110","","0","images/R_D_S_27.png","","","","serious","1","27","R","D","S","",""
"","","","","","html-slider-response","107","2313817","0.0-103.0","4sowksutot","7","NaN","<div style=""width:500px;"">
                            <p style=""font-size:50px; font-weight:bold;""
                            >serious</p>
                            <div style=""width:240px; margin: auto;"">
                                <img src=""images/B_D_S_05.png"" style= ""width:200px""alt=""img"">
                            </div>
                        </div>","-110","","0","images/B_D_S_05.png","","","","serious","1","05","B","D","S","",""
"","","","","","html-slider-response","108","2317442","0.0-104.0","4sowksutot","7","NaN","<div style=""width:500px;"">
                            <p style=""font-size:50px; font-weight:bold;""
                            >serious</p>
                            <div style=""width:240px; margin: auto;"">
                                <img src=""images/R_L_U_26.png"" style= ""width:200px""alt=""img"">
                            </div>
                        </div>","-2","","0","images/R_L_U_26.png","","","","serious","1","26","R","L","U","",""
"","","","","","html-slider-response","109","2319098","0.0-105.0","4sowksutot","7","NaN","<div style=""width:500px;"">
                            <p style=""font-size:50px; font-weight:bold;""
                            >serious</p>
                            <div style=""width:240px; margin: auto;"">
                                <img src=""images/R_L_S_23.png"" style= ""width:200px""alt=""img"">
                            </div>
                        </div>","-1","","0","images/R_L_S_23.png","","","","serious","1","23","R","L","S","",""
"","","","","","html-slider-response","110","2320802","0.0-106.0","4sowksutot","7","NaN","<div style=""width:500px;"">
                            <p style=""font-size:50px; font-weight:bold;""
                            >serious</p>
                            <div style=""width:240px; margin: auto;"">
                                <img src=""images/B_D_S_05.png"" style= ""width:200px""alt=""img"">
                            </div>
                        </div>","98","","0","images/B_D_S_05.png","","","","serious","2","05","B","D","S","",""
"","","","","","html-slider-response","111","2322614","0.0-107.0","4sowksutot","7","NaN","<div style=""width:500px;"">
                            <p style=""font-size:50px; font-weight:bold;""
                            >serious</p>
                            <div style=""width:240px; margin: auto;"">
                                <img src=""images/Y_D_U_15.png"" style= ""width:200px""alt=""img"">
                            </div>
                        </div>","200","","0","images/Y_D_U_15.png","","","","serious","2","15","Y","D","U","",""
"","","","","","html-slider-response","112","2324993","0.0-108.0","4sowksutot","7","NaN","<div style=""width:500px;"">
                            <p style=""font-size:50px; font-weight:bold;""
                            >serious</p>
                            <div style=""width:240px; margin: auto;"">
                                <img src=""images/R_D_U_28.png"" style= ""width:200px""alt=""img"">
                            </div>
                        </div>","195","","0","images/R_D_U_28.png","","","","serious","1","28","R","D","U","",""
"","","","","","html-slider-response","113","2326500","0.0-109.0","4sowksutot","7","NaN","<div style=""width:500px;"">
                            <p style=""font-size:50px; font-weight:bold;""
                            >serious</p>
                            <div style=""width:240px; margin: auto;"">
                                <img src=""images/G_L_S_30.png"" style= ""width:200px""alt=""img"">
                            </div>
                        </div>","-8","","0","images/G_L_S_30.png","","","","serious","2","30","G","L","S","",""
"","","","","","html-slider-response","114","2327816","0.0-110.0","4sowksutot","7","NaN","<div style=""width:500px;"">
                            <p style=""font-size:50px; font-weight:bold;""
                            >serious</p>
                            <div style=""width:240px; margin: auto;"">
                                <img src=""images/Y_D_U_15.png"" style= ""width:200px""alt=""img"">
                            </div>
                        </div>","-18","","0","images/Y_D_U_15.png","","","","serious","1","15","Y","D","U","",""
"","","","","","html-slider-response","115","2329344","0.0-111.0","4sowksutot","7","NaN","<div style=""width:500px;"">
                            <p style=""font-size:50px; font-weight:bold;""
                            >serious</p>
                            <div style=""width:240px; margin: auto;"">
                                <img src=""images/Y_L_U_12.png"" style= ""width:200px""alt=""img"">
                            </div>
                        </div>","200","","0","images/Y_L_U_12.png","","","","serious","2","12","Y","L","U","",""
"","","","","","html-slider-response","116","2330587","0.0-112.0","4sowksutot","7","NaN","<div style=""width:500px;"">
                            <p style=""font-size:50px; font-weight:bold;""
                            >serious</p>
                            <div style=""width:240px; margin: auto;"">
                                <img src=""images/G_D_U_41.png"" style= ""width:200px""alt=""img"">
                            </div>
                        </div>","200","","0","images/G_D_U_41.png","","","","serious","2","41","G","D","U","",""
"","","","","","html-slider-response","117","2331743","0.0-113.0","4sowksutot","7","NaN","<div style=""width:500px;"">
                            <p style=""font-size:50px; font-weight:bold;""
                            >serious</p>
                            <div style=""width:240px; margin: auto;"">
                                <img src=""images/G_D_U_41.png"" style= ""width:200px""alt=""img"">
                            </div>
                        </div>","200","","0","images/G_D_U_41.png","","","","serious","1","41","G","D","U","",""
"","","","","","html-button-response","118","2332909","0.0-114.0","4sowksutot","7","664","<p>Great Job! You've finished block 3.<br></br> You have 5 block(s) left to go.<br></br></p>","0","","","","","","","","","","","","","",""
"","","","","","html-button-response","119","2333524","0.0-115.0","4sowksutot","7","614","<p>In this block of trials, you will be asked to rate how much you associate each map with:</p > <p style = 'font-size:150%; font-weight: bold'>disturbing</p><br></br>","0","","","","","","","","","","","","","",""
"","","","","","html-slider-response","120","2335460","0.0-116.0","4sowksutot","7","NaN","<div style=""width:500px;"">
                            <p style=""font-size:50px; font-weight:bold;""
                            >disturbing</p>
                            <div style=""width:240px; margin: auto;"">
                                <img src=""images/G_L_S_30.png"" style= ""width:200px""alt=""img"">
                            </div>
                        </div>","200","","0","images/G_L_S_30.png","","","","disturbing","2","30","G","L","S","",""
"","","","","","html-slider-response","121","2336839","0.0-117.0","4sowksutot","7","NaN","<div style=""width:500px;"">
                            <p style=""font-size:50px; font-weight:bold;""
                            >disturbing</p>
                            <div style=""width:240px; margin: auto;"">
                                <img src=""images/R_L_U_26.png"" style= ""width:200px""alt=""img"">
                            </div>
                        </div>","200","","0","images/R_L_U_26.png","","","","disturbing","2","26","R","L","U","",""
"","","","","","html-slider-response","122","2340651","0.0-118.0","4sowksutot","7","NaN","<div style=""width:500px;"">
                            <p style=""font-size:50px; font-weight:bold;""
                            >disturbing</p>
                            <div style=""width:240px; margin: auto;"">
                                <img src=""images/B_D_S_05.png"" style= ""width:200px""alt=""img"">
                            </div>
                        </div>","200","","0","images/B_D_S_05.png","","","","disturbing","1","05","B","D","S","",""
"","","","","","html-slider-response","123","2342166","0.0-119.0","4sowksutot","7","NaN","<div style=""width:500px;"">
                            <p style=""font-size:50px; font-weight:bold;""
                            >disturbing</p>
                            <div style=""width:240px; margin: auto;"">
                                <img src=""images/R_D_U_28.png"" style= ""width:200px""alt=""img"">
                            </div>
                        </div>","200","","0","images/R_D_U_28.png","","","","disturbing","1","28","R","D","U","",""
"","","","","","html-slider-response","124","2343871","0.0-120.0","4sowksutot","7","NaN","<div style=""width:500px;"">
                            <p style=""font-size:50px; font-weight:bold;""
                            >disturbing</p>
                            <div style=""width:240px; margin: auto;"">
                                <img src=""images/B_L_U_02.png"" style= ""width:200px""alt=""img"">
                            </div>
                        </div>","-86","","0","images/B_L_U_02.png","","","","disturbing","1","02","B","L","U","",""
"","","","","","html-slider-response","125","2345447","0.0-121.0","4sowksutot","7","NaN","<div style=""width:500px;"">
                            <p style=""font-size:50px; font-weight:bold;""
                            >disturbing</p>
                            <div style=""width:240px; margin: auto;"">
                                <img src=""images/R_L_S_23.png"" style= ""width:200px""alt=""img"">
                            </div>
                        </div>","200","","0","images/R_L_S_23.png","","","","disturbing","2","23","R","L","S","",""
"","","","","","html-slider-response","126","2347180","0.0-122.0","4sowksutot","7","NaN","<div style=""width:500px;"">
                            <p style=""font-size:50px; font-weight:bold;""
                            >disturbing</p>
                            <div style=""width:240px; margin: auto;"">
                                <img src=""images/R_D_S_27.png"" style= ""width:200px""alt=""img"">
                            </div>
                        </div>","200","","0","images/R_D_S_27.png","","","","disturbing","2","27","R","D","S","",""
"","","","","","html-slider-response","127","2350499","0.0-123.0","4sowksutot","7","NaN","<div style=""width:500px;"">
                            <p style=""font-size:50px; font-weight:bold;""
                            >disturbing</p>
                            <div style=""width:240px; margin: auto;"">
                                <img src=""images/R_L_U_26.png"" style= ""width:200px""alt=""img"">
                            </div>
                        </div>","69","","0","images/R_L_U_26.png","","","","disturbing","1","26","R","L","U","",""
"","","","","","html-slider-response","128","2352303","0.0-124.0","4sowksutot","7","NaN","<div style=""width:500px;"">
                            <p style=""font-size:50px; font-weight:bold;""
                            >disturbing</p>
                            <div style=""width:240px; margin: auto;"">
                                <img src=""images/B_L_U_02.png"" style= ""width:200px""alt=""img"">
                            </div>
                        </div>","66","","0","images/B_L_U_02.png","","","","disturbing","2","02","B","L","U","",""
"","","","","","html-slider-response","129","2354158","0.0-125.0","4sowksutot","7","NaN","<div style=""width:500px;"">
                            <p style=""font-size:50px; font-weight:bold;""
                            >disturbing</p>
                            <div style=""width:240px; margin: auto;"">
                                <img src=""images/B_D_U_07.png"" style= ""width:200px""alt=""img"">
                            </div>
                        </div>","-58","","0","images/B_D_U_07.png","","","","disturbing","1","07","B","D","U","",""
"","","","","","html-slider-response","130","2355589","0.0-126.0","4sowksutot","7","NaN","<div style=""width:500px;"">
                            <p style=""font-size:50px; font-weight:bold;""
                            >disturbing</p>
                            <div style=""width:240px; margin: auto;"">
                                <img src=""images/R_D_U_28.png"" style= ""width:200px""alt=""img"">
                            </div>
                        </div>","-54","","0","images/R_D_U_28.png","","","","disturbing","2","28","R","D","U","",""
"","","","","","html-slider-response","131","2358864","0.0-127.0","4sowksutot","7","NaN","<div style=""width:500px;"">
                            <p style=""font-size:50px; font-weight:bold;""
                            >disturbing</p>
                            <div style=""width:240px; margin: auto;"">
                                <img src=""images/B_D_U_07.png"" style= ""width:200px""alt=""img"">
                            </div>
                        </div>","106","","0","images/B_D_U_07.png","","","","disturbing","2","07","B","D","U","",""
"","","","","","html-slider-response","132","2360143","0.0-128.0","4sowksutot","7","NaN","<div style=""width:500px;"">
                            <p style=""font-size:50px; font-weight:bold;""
                            >disturbing</p>
                            <div style=""width:240px; margin: auto;"">
                                <img src=""images/G_D_S_37.png"" style= ""width:200px""alt=""img"">
                            </div>
                        </div>","113","","0","images/G_D_S_37.png","","","","disturbing","2","37","G","D","S","",""
"","","","","","html-slider-response","133","2361433","0.0-129.0","4sowksutot","7","NaN","<div style=""width:500px;"">
                            <p style=""font-size:50px; font-weight:bold;""
                            >disturbing</p>
                            <div style=""width:240px; margin: auto;"">
                                <img src=""images/G_D_S_37.png"" style= ""width:200px""alt=""img"">
                            </div>
                        </div>","134","","0","images/G_D_S_37.png","","","","disturbing","1","37","G","D","S","",""
"","","","","","html-slider-response","134","2362956","0.0-130.0","4sowksutot","7","NaN","<div style=""width:500px;"">
                            <p style=""font-size:50px; font-weight:bold;""
                            >disturbing</p>
                            <div style=""width:240px; margin: auto;"">
                                <img src=""images/B_L_S_44.png"" style= ""width:200px""alt=""img"">
                            </div>
                        </div>","-200","","0","images/B_L_S_44.png","","","","disturbing","2","44","B","L","S","",""
"","","","","","html-slider-response","135","2364514","0.0-131.0","4sowksutot","7","NaN","<div style=""width:500px;"">
                            <p style=""font-size:50px; font-weight:bold;""
                            >disturbing</p>
                            <div style=""width:240px; margin: auto;"">
                                <img src=""images/Y_D_U_15.png"" style= ""width:200px""alt=""img"">
                            </div>
                        </div>","200","","0","images/Y_D_U_15.png","","","","disturbing","1","15","Y","D","U","",""
"","","","","","html-slider-response","136","2367619","0.0-132.0","4sowksutot","7","NaN","<div style=""width:500px;"">
                            <p style=""font-size:50px; font-weight:bold;""
                            >disturbing</p>
                            <div style=""width:240px; margin: auto;"">
                                <img src=""images/G_L_S_30.png"" style= ""width:200px""alt=""img"">
                            </div>
                        </div>","-195","","0","images/G_L_S_30.png","","","","disturbing","1","30","G","L","S","",""
"","","","","","html-slider-response","137","2369236","0.0-133.0","4sowksutot","7","NaN","<div style=""width:500px;"">
                            <p style=""font-size:50px; font-weight:bold;""
                            >disturbing</p>
                            <div style=""width:240px; margin: auto;"">
                                <img src=""images/Y_L_U_12.png"" style= ""width:200px""alt=""img"">
                            </div>
                        </div>","128","","0","images/Y_L_U_12.png","","","","disturbing","1","12","Y","L","U","",""
"","","","","","html-slider-response","138","2371459","0.0-134.0","4sowksutot","7","NaN","<div style=""width:500px;"">
                            <p style=""font-size:50px; font-weight:bold;""
                            >disturbing</p>
                            <div style=""width:240px; margin: auto;"">
                                <img src=""images/Y_L_U_12.png"" style= ""width:200px""alt=""img"">
                            </div>
                        </div>","91","","0","images/Y_L_U_12.png","","","","disturbing","2","12","Y","L","U","",""
"","","","","","html-slider-response","139","2372795","0.0-135.0","4sowksutot","7","NaN","<div style=""width:500px;"">
                            <p style=""font-size:50px; font-weight:bold;""
                            >disturbing</p>
                            <div style=""width:240px; margin: auto;"">
                                <img src=""images/R_L_S_23.png"" style= ""width:200px""alt=""img"">
                            </div>
                        </div>","-200","","0","images/R_L_S_23.png","","","","disturbing","1","23","R","L","S","",""
"","","","","","html-slider-response","140","2374646","0.0-136.0","4sowksutot","7","NaN","<div style=""width:500px;"">
                            <p style=""font-size:50px; font-weight:bold;""
                            >disturbing</p>
                            <div style=""width:240px; margin: auto;"">
                                <img src=""images/G_L_U_33.png"" style= ""width:200px""alt=""img"">
                            </div>
                        </div>","-200","","0","images/G_L_U_33.png","","","","disturbing","2","33","G","L","U","",""
"","","","","","html-slider-response","141","2376186","0.0-137.0","4sowksutot","7","NaN","<div style=""width:500px;"">
                            <p style=""font-size:50px; font-weight:bold;""
                            >disturbing</p>
                            <div style=""width:240px; margin: auto;"">
                                <img src=""images/G_D_U_41.png"" style= ""width:200px""alt=""img"">
                            </div>
                        </div>","101","","0","images/G_D_U_41.png","","","","disturbing","1","41","G","D","U","",""
"","","","","","html-slider-response","142","2377571","0.0-138.0","4sowksutot","7","NaN","<div style=""width:500px;"">
                            <p style=""font-size:50px; font-weight:bold;""
                            >disturbing</p>
                            <div style=""width:240px; margin: auto;"">
                                <img src=""images/B_L_S_44.png"" style= ""width:200px""alt=""img"">
                            </div>
                        </div>","-200","","0","images/B_L_S_44.png","","","","disturbing","1","44","B","L","S","",""
"","","","","","html-slider-response","143","2379082","0.0-139.0","4sowksutot","7","NaN","<div style=""width:500px;"">
                            <p style=""font-size:50px; font-weight:bold;""
                            >disturbing</p>
                            <div style=""width:240px; margin: auto;"">
                                <img src=""images/G_L_U_33.png"" style= ""width:200px""alt=""img"">
                            </div>
                        </div>","101","","0","images/G_L_U_33.png","","","","disturbing","1","33","G","L","U","",""
"","","","","","html-slider-response","144","2380950","0.0-140.0","4sowksutot","7","NaN","<div style=""width:500px;"">
                            <p style=""font-size:50px; font-weight:bold;""
                            >disturbing</p>
                            <div style=""width:240px; margin: auto;"">
                                <img src=""images/Y_D_S_13.png"" style= ""width:200px""alt=""img"">
                            </div>
                        </div>","200","","0","images/Y_D_S_13.png","","","","disturbing","1","13","Y","D","S","",""
"","","","","","html-slider-response","145","2382321","0.0-141.0","4sowksutot","7","NaN","<div style=""width:500px;"">
                            <p style=""font-size:50px; font-weight:bold;""
                            >disturbing</p>
                            <div style=""width:240px; margin: auto;"">
                                <img src=""images/Y_L_S_10.png"" style= ""width:200px""alt=""img"">
                            </div>
                        </div>","200","","0","images/Y_L_S_10.png","","","","disturbing","2","10","Y","L","S","",""
"","","","","","html-slider-response","146","2383838","0.0-142.0","4sowksutot","7","NaN","<div style=""width:500px;"">
                            <p style=""font-size:50px; font-weight:bold;""
                            >disturbing</p>
                            <div style=""width:240px; margin: auto;"">
                                <img src=""images/B_D_S_05.png"" style= ""width:200px""alt=""img"">
                            </div>
                        </div>","-98","","0","images/B_D_S_05.png","","","","disturbing","2","05","B","D","S","",""
"","","","","","html-slider-response","147","2385029","0.0-143.0","4sowksutot","7","NaN","<div style=""width:500px;"">
                            <p style=""font-size:50px; font-weight:bold;""
                            >disturbing</p>
                            <div style=""width:240px; margin: auto;"">
                                <img src=""images/Y_L_S_10.png"" style= ""width:200px""alt=""img"">
                            </div>
                        </div>","200","","0","images/Y_L_S_10.png","","","","disturbing","1","10","Y","L","S","",""
"","","","","","html-slider-response","148","2386376","0.0-144.0","4sowksutot","7","NaN","<div style=""width:500px;"">
                            <p style=""font-size:50px; font-weight:bold;""
                            >disturbing</p>
                            <div style=""width:240px; margin: auto;"">
                                <img src=""images/R_D_S_27.png"" style= ""width:200px""alt=""img"">
                            </div>
                        </div>","-200","","0","images/R_D_S_27.png","","","","disturbing","1","27","R","D","S","",""
"","","","","","html-slider-response","149","2387738","0.0-145.0","4sowksutot","7","NaN","<div style=""width:500px;"">
                            <p style=""font-size:50px; font-weight:bold;""
                            >disturbing</p>
                            <div style=""width:240px; margin: auto;"">
                                <img src=""images/Y_D_S_13.png"" style= ""width:200px""alt=""img"">
                            </div>
                        </div>","150","","0","images/Y_D_S_13.png","","","","disturbing","2","13","Y","D","S","",""
"","","","","","html-slider-response","150","2389195","0.0-146.0","4sowksutot","7","NaN","<div style=""width:500px;"">
                            <p style=""font-size:50px; font-weight:bold;""
                            >disturbing</p>
                            <div style=""width:240px; margin: auto;"">
                                <img src=""images/Y_D_U_15.png"" style= ""width:200px""alt=""img"">
                            </div>
                        </div>","200","","0","images/Y_D_U_15.png","","","","disturbing","2","15","Y","D","U","",""
"","","","","","html-slider-response","151","2390538","0.0-147.0","4sowksutot","7","NaN","<div style=""width:500px;"">
                            <p style=""font-size:50px; font-weight:bold;""
                            >disturbing</p>
                            <div style=""width:240px; margin: auto;"">
                                <img src=""images/G_D_U_41.png"" style= ""width:200px""alt=""img"">
                            </div>
                        </div>","200","","0","images/G_D_U_41.png","","","","disturbing","2","41","G","D","U","",""
"","","","","","html-button-response","152","2392335","0.0-148.0","4sowksutot","7","1293","<p>Great Job! You've finished block 4.<br></br> You have 4 block(s) left to go.<br></br></p>","0","","","","","","","","","","","","","",""
"","","","","","html-button-response","153","2393021","0.0-149.0","4sowksutot","7","685","<p>In this block of trials, you will be asked to rate how much you associate each map with:</p > <p style = 'font-size:150%; font-weight: bold'>calm</p><br></br>","0","","","","","","","","","","","","","",""
"","","","","","html-slider-response","154","2394252","0.0-150.0","4sowksutot","7","NaN","<div style=""width:500px;"">
                            <p style=""font-size:50px; font-weight:bold;""
                            >calm</p>
                            <div style=""width:240px; margin: auto;"">
                                <img src=""images/G_L_U_33.png"" style= ""width:200px""alt=""img"">
                            </div>
                        </div>","200","","0","images/G_L_U_33.png","","","","calm","2","33","G","L","U","",""
"","","","","","html-slider-response","155","2395837","0.0-151.0","4sowksutot","7","NaN","<div style=""width:500px;"">
                            <p style=""font-size:50px; font-weight:bold;""
                            >calm</p>
                            <div style=""width:240px; margin: auto;"">
                                <img src=""images/R_L_S_23.png"" style= ""width:200px""alt=""img"">
                            </div>
                        </div>","-200","","0","images/R_L_S_23.png","","","","calm","2","23","R","L","S","",""
"","","","","","html-slider-response","156","2398937","0.0-152.0","4sowksutot","7","NaN","<div style=""width:500px;"">
                            <p style=""font-size:50px; font-weight:bold;""
                            >calm</p>
                            <div style=""width:240px; margin: auto;"">
                                <img src=""images/Y_L_S_10.png"" style= ""width:200px""alt=""img"">
                            </div>
                        </div>","-103","","0","images/Y_L_S_10.png","","","","calm","1","10","Y","L","S","",""
"","","","","","html-slider-response","157","2401552","0.0-153.0","4sowksutot","7","NaN","<div style=""width:500px;"">
                            <p style=""font-size:50px; font-weight:bold;""
                            >calm</p>
                            <div style=""width:240px; margin: auto;"">
                                <img src=""images/G_D_U_41.png"" style= ""width:200px""alt=""img"">
                            </div>
                        </div>","-118","","0","images/G_D_U_41.png","","","","calm","2","41","G","D","U","",""
"","","","","","html-slider-response","158","2403106","0.0-154.0","4sowksutot","7","NaN","<div style=""width:500px;"">
                            <p style=""font-size:50px; font-weight:bold;""
                            >calm</p>
                            <div style=""width:240px; margin: auto;"">
                                <img src=""images/Y_D_S_13.png"" style= ""width:200px""alt=""img"">
                            </div>
                        </div>","-107","","0","images/Y_D_S_13.png","","","","calm","1","13","Y","D","S","",""
"","","","","","html-slider-response","159","2404520","0.0-155.0","4sowksutot","7","NaN","<div style=""width:500px;"">
                            <p style=""font-size:50px; font-weight:bold;""
                            >calm</p>
                            <div style=""width:240px; margin: auto;"">
                                <img src=""images/Y_D_U_15.png"" style= ""width:200px""alt=""img"">
                            </div>
                        </div>","-61","","0","images/Y_D_U_15.png","","","","calm","1","15","Y","D","U","",""
"","","","","","html-slider-response","160","2406407","0.0-156.0","4sowksutot","7","NaN","<div style=""width:500px;"">
                            <p style=""font-size:50px; font-weight:bold;""
                            >calm</p>
                            <div style=""width:240px; margin: auto;"">
                                <img src=""images/G_L_S_30.png"" style= ""width:200px""alt=""img"">
                            </div>
                        </div>","-200","","0","images/G_L_S_30.png","","","","calm","2","30","G","L","S","",""
"","","","","","html-slider-response","161","2408042","0.0-157.0","4sowksutot","7","NaN","<div style=""width:500px;"">
                            <p style=""font-size:50px; font-weight:bold;""
                            >calm</p>
                            <div style=""width:240px; margin: auto;"">
                                <img src=""images/B_D_U_07.png"" style= ""width:200px""alt=""img"">
                            </div>
                        </div>","111","","0","images/B_D_U_07.png","","","","calm","1","07","B","D","U","",""
"","","","","","html-slider-response","162","2409307","0.0-158.0","4sowksutot","7","NaN","<div style=""width:500px;"">
                            <p style=""font-size:50px; font-weight:bold;""
                            >calm</p>
                            <div style=""width:240px; margin: auto;"">
                                <img src=""images/R_D_S_27.png"" style= ""width:200px""alt=""img"">
                            </div>
                        </div>","-200","","0","images/R_D_S_27.png","","","","calm","2","27","R","D","S","",""
"","","","","","html-slider-response","163","2411318","0.0-159.0","4sowksutot","7","NaN","<div style=""width:500px;"">
                            <p style=""font-size:50px; font-weight:bold;""
                            >calm</p>
                            <div style=""width:240px; margin: auto;"">
                                <img src=""images/B_L_U_02.png"" style= ""width:200px""alt=""img"">
                            </div>
                        </div>","174","","0","images/B_L_U_02.png","","","","calm","2","02","B","L","U","",""
"","","","","","html-slider-response","164","2413260","0.0-160.0","4sowksutot","7","NaN","<div style=""width:500px;"">
                            <p style=""font-size:50px; font-weight:bold;""
                            >calm</p>
                            <div style=""width:240px; margin: auto;"">
                                <img src=""images/B_L_S_44.png"" style= ""width:200px""alt=""img"">
                            </div>
                        </div>","45","","0","images/B_L_S_44.png","","","","calm","2","44","B","L","S","",""
"","","","","","html-slider-response","165","2414816","0.0-161.0","4sowksutot","7","NaN","<div style=""width:500px;"">
                            <p style=""font-size:50px; font-weight:bold;""
                            >calm</p>
                            <div style=""width:240px; margin: auto;"">
                                <img src=""images/B_D_S_05.png"" style= ""width:200px""alt=""img"">
                            </div>
                        </div>","46","","0","images/B_D_S_05.png","","","","calm","1","05","B","D","S","",""
"","","","","","html-slider-response","166","2417089","0.0-162.0","4sowksutot","7","NaN","<div style=""width:500px;"">
                            <p style=""font-size:50px; font-weight:bold;""
                            >calm</p>
                            <div style=""width:240px; margin: auto;"">
                                <img src=""images/R_L_U_26.png"" style= ""width:200px""alt=""img"">
                            </div>
                        </div>","200","","0","images/R_L_U_26.png","","","","calm","2","26","R","L","U","",""
"","","","","","html-slider-response","167","2419432","0.0-163.0","4sowksutot","7","NaN","<div style=""width:500px;"">
                            <p style=""font-size:50px; font-weight:bold;""
                            >calm</p>
                            <div style=""width:240px; margin: auto;"">
                                <img src=""images/G_D_S_37.png"" style= ""width:200px""alt=""img"">
                            </div>
                        </div>","-81","","0","images/G_D_S_37.png","","","","calm","2","37","G","D","S","",""
"","","","","","html-slider-response","168","2421170","0.0-164.0","4sowksutot","7","NaN","<div style=""width:500px;"">
                            <p style=""font-size:50px; font-weight:bold;""
                            >calm</p>
                            <div style=""width:240px; margin: auto;"">
                                <img src=""images/B_D_S_05.png"" style= ""width:200px""alt=""img"">
                            </div>
                        </div>","-59","","0","images/B_D_S_05.png","","","","calm","2","05","B","D","S","",""
"","","","","","html-slider-response","169","2424197","0.0-165.0","4sowksutot","7","NaN","<div style=""width:500px;"">
                            <p style=""font-size:50px; font-weight:bold;""
                            >calm</p>
                            <div style=""width:240px; margin: auto;"">
                                <img src=""images/Y_D_U_15.png"" style= ""width:200px""alt=""img"">
                            </div>
                        </div>","122","","0","images/Y_D_U_15.png","","","","calm","2","15","Y","D","U","",""
"","","","","","html-slider-response","170","2426919","0.0-166.0","4sowksutot","7","NaN","<div style=""width:500px;"">
                            <p style=""font-size:50px; font-weight:bold;""
                            >calm</p>
                            <div style=""width:240px; margin: auto;"">
                                <img src=""images/R_D_S_27.png"" style= ""width:200px""alt=""img"">
                            </div>
                        </div>","-130","","0","images/R_D_S_27.png","","","","calm","1","27","R","D","S","",""
"","","","","","html-slider-response","171","2428940","0.0-167.0","4sowksutot","7","NaN","<div style=""width:500px;"">
                            <p style=""font-size:50px; font-weight:bold;""
                            >calm</p>
                            <div style=""width:240px; margin: auto;"">
                                <img src=""images/R_L_U_26.png"" style= ""width:200px""alt=""img"">
                            </div>
                        </div>","102","","0","images/R_L_U_26.png","","","","calm","1","26","R","L","U","",""
"","","","","","html-slider-response","172","2430506","0.0-168.0","4sowksutot","7","NaN","<div style=""width:500px;"">
                            <p style=""font-size:50px; font-weight:bold;""
                            >calm</p>
                            <div style=""width:240px; margin: auto;"">
                                <img src=""images/Y_L_U_12.png"" style= ""width:200px""alt=""img"">
                            </div>
                        </div>","110","","0","images/Y_L_U_12.png","","","","calm","2","12","Y","L","U","",""
"","","","","","html-slider-response","173","2432372","0.0-169.0","4sowksutot","7","NaN","<div style=""width:500px;"">
                            <p style=""font-size:50px; font-weight:bold;""
                            >calm</p>
                            <div style=""width:240px; margin: auto;"">
                                <img src=""images/B_D_U_07.png"" style= ""width:200px""alt=""img"">
                            </div>
                        </div>","144","","0","images/B_D_U_07.png","","","","calm","2","07","B","D","U","",""
"","","","","","html-slider-response","174","2434332","0.0-170.0","4sowksutot","7","NaN","<div style=""width:500px;"">
                            <p style=""font-size:50px; font-weight:bold;""
                            >calm</p>
                            <div style=""width:240px; margin: auto;"">
                                <img src=""images/G_D_U_41.png"" style= ""width:200px""alt=""img"">
                            </div>
                        </div>","85","","0","images/G_D_U_41.png","","","","calm","1","41","G","D","U","",""
"","","","","","html-slider-response","175","2436381","0.0-171.0","4sowksutot","7","NaN","<div style=""width:500px;"">
                            <p style=""font-size:50px; font-weight:bold;""
                            >calm</p>
                            <div style=""width:240px; margin: auto;"">
                                <img src=""images/G_L_S_30.png"" style= ""width:200px""alt=""img"">
                            </div>
                        </div>","-183","","0","images/G_L_S_30.png","","","","calm","1","30","G","L","S","",""
"","","","","","html-slider-response","176","2437771","0.0-172.0","4sowksutot","7","NaN","<div style=""width:500px;"">
                            <p style=""font-size:50px; font-weight:bold;""
                            >calm</p>
                            <div style=""width:240px; margin: auto;"">
                                <img src=""images/R_L_S_23.png"" style= ""width:200px""alt=""img"">
                            </div>
                        </div>","-200","","0","images/R_L_S_23.png","","","","calm","1","23","R","L","S","",""
"","","","","","html-slider-response","177","2439511","0.0-173.0","4sowksutot","7","NaN","<div style=""width:500px;"">
                            <p style=""font-size:50px; font-weight:bold;""
                            >calm</p>
                            <div style=""width:240px; margin: auto;"">
                                <img src=""images/B_L_U_02.png"" style= ""width:200px""alt=""img"">
                            </div>
                        </div>","200","","0","images/B_L_U_02.png","","","","calm","1","02","B","L","U","",""
"","","","","","html-slider-response","178","2441114","0.0-174.0","4sowksutot","7","NaN","<div style=""width:500px;"">
                            <p style=""font-size:50px; font-weight:bold;""
                            >calm</p>
                            <div style=""width:240px; margin: auto;"">
                                <img src=""images/Y_D_S_13.png"" style= ""width:200px""alt=""img"">
                            </div>
                        </div>","-200","","0","images/Y_D_S_13.png","","","","calm","2","13","Y","D","S","",""
"","","","","","html-slider-response","179","2442570","0.0-175.0","4sowksutot","7","NaN","<div style=""width:500px;"">
                            <p style=""font-size:50px; font-weight:bold;""
                            >calm</p>
                            <div style=""width:240px; margin: auto;"">
                                <img src=""images/Y_L_U_12.png"" style= ""width:200px""alt=""img"">
                            </div>
                        </div>","138","","0","images/Y_L_U_12.png","","","","calm","1","12","Y","L","U","",""
"","","","","","html-slider-response","180","2445799","0.0-176.0","4sowksutot","7","NaN","<div style=""width:500px;"">
                            <p style=""font-size:50px; font-weight:bold;""
                            >calm</p>
                            <div style=""width:240px; margin: auto;"">
                                <img src=""images/R_D_U_28.png"" style= ""width:200px""alt=""img"">
                            </div>
                        </div>","117","","0","images/R_D_U_28.png","","","","calm","1","28","R","D","U","",""
"","","","","","html-slider-response","181","2447455","0.0-177.0","4sowksutot","7","NaN","<div style=""width:500px;"">
                            <p style=""font-size:50px; font-weight:bold;""
                            >calm</p>
                            <div style=""width:240px; margin: auto;"">
                                <img src=""images/G_D_S_37.png"" style= ""width:200px""alt=""img"">
                            </div>
                        </div>","-138","","0","images/G_D_S_37.png","","","","calm","1","37","G","D","S","",""
"","","","","","html-slider-response","182","2448964","0.0-178.0","4sowksutot","7","NaN","<div style=""width:500px;"">
                            <p style=""font-size:50px; font-weight:bold;""
                            >calm</p>
                            <div style=""width:240px; margin: auto;"">
                                <img src=""images/G_L_U_33.png"" style= ""width:200px""alt=""img"">
                            </div>
                        </div>","-136","","0","images/G_L_U_33.png","","","","calm","1","33","G","L","U","",""
"","","","","","html-slider-response","183","2450407","0.0-179.0","4sowksutot","7","NaN","<div style=""width:500px;"">
                            <p style=""font-size:50px; font-weight:bold;""
                            >calm</p>
                            <div style=""width:240px; margin: auto;"">
                                <img src=""images/R_D_U_28.png"" style= ""width:200px""alt=""img"">
                            </div>
                        </div>","-200","","0","images/R_D_U_28.png","","","","calm","2","28","R","D","U","",""
"","","","","","html-slider-response","184","2452546","0.0-180.0","4sowksutot","7","NaN","<div style=""width:500px;"">
