"success","timeout","failed_images","failed_audio","failed_video","trial_type","trial_index","time_elapsed","internal_node_id","subject_id","condition_num","rt","stimulus","response","question_order","slider_start","image_path","practiceTrial","practiceTrialNum","correct","concept","repetition","map_id","hue","lightness","saturation","ishihara_plate","correct_response"
"true","false","[]","[]","[]","preload","0","366","0.0-0.0","5w7xemwhkw","15","","","","","","","","","","","","","","","","",""
"","","","","","html-button-response","1","2448","0.0-1.0","5w7xemwhkw","15","2080","Welcome to our experiment!<p>At the bottom of this screen, you will see a button that says ""Begin Experiment"".<br>Please only click that button when you are ready to complete the 25 minute experiment in one sitting.</p><p> Once you click that button, it will not be possible to restart the experiment.","0","","","","","","","","","","","","","",""
"true","","","","","fullscreen","2","5534","0.0-2.0","5w7xemwhkw","15","2082","","","","","","","","","","","","","","","",""
"","","","","","survey-multi-select","3","44273","0.0-3.0","5w7xemwhkw","15","38736","","{""Consent"":[""<strong>I consent</strong>""]}","[0]","","","","","","","","","","","","",""
"","","","","","html-button-response","4","45856","0.0-4.0","5w7xemwhkw","15","1580","Welcome! <p> This experiment involves two parts: demographic information, followed by the experimental task.<p> It will take about 25 minutes to complete both parts.","0","","","","","","","","","","","","","",""
"","","","","","survey-text","5","57931","0.0-5.0","5w7xemwhkw","15","12068","","{""Age"":""20"",""Gender"":""Male"",""Race/ethnicity"":""White"",""Languages"":""English""}","","","","","","","","","","","","","",""
"","","","","","html-slider-response","6","126031","0.0-6.0","5w7xemwhkw","15","68097","
                            <div style='text-align:left; font-size:20px; line-height:25px; width: 1400px;'>
                                During this experiment you will be asked to rate how much you associate maps with                    different concepts.<br> Below, you can see some examples of the maps you will be asked to rate. Next to the maps
                    is the list of concepts.<br>You will be asked                    to rate how much you associate each map with each concept on a scale from 'not at all' to 'very much' like the
                    one below. <br><br>
                    Now, please look at the list of concepts and maps. For each concept, think about the map you associate 'very
                    much' with the concept.<br>                     When you see that map during the experiment, please rate it near the 'very much' endpoint of the
                    scale.<br>Now, please think about which map you associate 'not at all'                     with each concept. When you see that map during the experiment, please rate it near the 'not at all' endpoint
                    of the scale.<br>
                    Please use the full range of the scale. That is, if a map is somewhat associated with the concept, you would
                    click partway between the middle point and right side of the scale.                    You will be asked to rate each map for a given concept before moving on to the next concept.<br><br>Press the
                    'Continue' button for instructions on how to use the slider.                    <br><br>
                </div>

                <div style=""width: 500px; margin: 0 auto;"">
                    <!-- Centered text paragraphs -->
                    <div style=""text-align: center; width: 500px;"">
                        <p style=""font-size:25px; line-height:18px;"">calm</p>
                        <p style=""font-size:25px; line-height:18px;"">exciting</p>
                        <p style=""font-size:25px;line-height:18px;"">positive</p>
                        <p style=""font-size:25px;line-height:18px;"">negative</p>
                        <p style=""font-size:25px;line-height:18px;"">serious</p>
                        <p style=""font-size:25px;line-height:18px;"">playful</p>
                        <p style=""font-size:25px;line-height:18px;"">trustworthy</p>
                        <p style=""font-size:25px;line-height:18px;"">disturbing</p>
                    </div>

                    <!-- Grid section -->
                   <div style=""display: flex; justify-content: center; padding-top: 15px;"">
                    <div style=""display: grid; grid-template-columns: repeat(8, 80px); grid-gap: 5px; width: auto;"">
                        <img src=""images/Y_D_U_41.png"" alt=""map"" style=""width: 100%;""><img src=""images/R_D_U_07.png"" alt=""map"" style=""width: 100%;""><img src=""images/B_D_U_28.png"" alt=""map"" style=""width: 100%;""><img src=""images/Y_L_S_30.png"" alt=""map"" style=""width: 100%;""><img src=""images/B_L_S_23.png"" alt=""map"" style=""width: 100%;""><img src=""images/Y_L_U_33.png"" alt=""map"" style=""width: 100%;""><img src=""images/R_D_S_05.png"" alt=""map"" style=""width: 100%;""><img src=""images/B_L_U_26.png"" alt=""map"" style=""width: 100%;""><img src=""images/G_D_S_13.png"" alt=""map"" style=""width: 100%;""><img src=""images/B_D_S_27.png"" alt=""map"" style=""width: 100%;""><img src=""images/Y_D_S_37.png"" alt=""map"" style=""width: 100%;""><img src=""images/G_L_U_12.png"" alt=""map"" style=""width: 100%;""><img src=""images/G_L_S_10.png"" alt=""map"" style=""width: 100%;""><img src=""images/R_L_S_44.png"" alt=""map"" style=""width: 100%;""><img src=""images/G_D_U_15.png"" alt=""map"" style=""width: 100%;""><img src=""images/R_L_U_02.png"" alt=""map"" style=""width: 100%;"">
                    </div>
                </div>

                    <!-- Clear floats -->
                    <div style=""clear: both;""></div>
                </div>
                            ","null","","0","maps_anchoring.png","true","","","","","","","","","",""
"","","","","","html-button-response","7","130189","0.0-7.0","5w7xemwhkw","15","4157","<div style=""width:800px;""><p style=""text-align:left"">To move the slider, click and drag your cursor to the location of the scale where you would like to make your rating and then let go. When you let go of the slider, your response will be recorded and the next trial will begin. <br>
                    We are interested in your initial impressions of each map for the given concept, so please go with your first intuition. <br>
                    Before you begin the experiment, there will be four training trials for you to practice using the scale. <br>
                     When you are ready to start the training trials, please click ""Continue"".</p><br></div>","0","","","","","","","","","","","","","",""
"","","","","","html-slider-response","8","133561","0.0-8.0-0.0","5w7xemwhkw","15","NaN","<div style=""width:500px;"">
                                    <p style=""font-size:25px;"">Please move the slider all the way to the <br> right endpoint of the scale</p>

                                    </div>
                                </div>","200","","0","","true","0","true","","","","","","","",""
"","","","","","html-button-response","9","135114","0.0-8.0-1.0","5w7xemwhkw","15","1051","<p align='center'><b>Good job!</b> Click on 'Continue' to proceed.</p>","0","","","","","","","","","","","","","",""
"","","","","","html-slider-response","10","136679","0.0-9.0-0.0","5w7xemwhkw","15","NaN","<div style=""width:500px;"">
                                    <p style=""font-size:25px;"">Please move the slider all the way to the <br> left endpoint of the scale</p>

                                    </div>
                                </div>","-200","","0","","true","1","true","","","","","","","",""
"","","","","","html-button-response","11","138396","0.0-9.0-1.0","5w7xemwhkw","15","1214","<p align='center'><b>Good job!</b> Click on 'Continue' to proceed.</p>","0","","","","","","","","","","","","","",""
"","","","","","html-slider-response","12","140349","0.0-10.0-0.0","5w7xemwhkw","15","NaN","<div style=""width:500px;"">
                                    <p style=""font-size:25px;"">Please move the slider halfway between the center and right endpoint of the scale</p>

                                    </div>
                                </div>","1","","0","","true","2","false","","","","","","","",""
"","","","","","html-button-response","13","143796","0.0-10.0-1.0","5w7xemwhkw","15","2943","<p align='center'><b>Not quite!</b> The slider was not placed near the instructed located. Click on 'Continue' to try again. </p>","0","","","","","","","","","","","","","",""
"","","","","","html-slider-response","14","145740","0.0-10.1-0.1","5w7xemwhkw","15","NaN","<div style=""width:500px;"">
                                    <p style=""font-size:25px;"">Please move the slider halfway between the center and right endpoint of the scale</p>

                                    </div>
                                </div>","2","","0","","true","2","false","","","","","","","",""
"","","","","","html-button-response","15","146921","0.0-10.1-1.1","5w7xemwhkw","15","678","<p align='center'><b>Not quite!</b> The slider was not placed near the instructed located. Click on 'Continue' to try again. </p>","0","","","","","","","","","","","","","",""
"","","","","","html-slider-response","16","147924","0.0-10.2-0.2","5w7xemwhkw","15","NaN","<div style=""width:500px;"">
                                    <p style=""font-size:25px;"">Please move the slider halfway between the center and right endpoint of the scale</p>

                                    </div>
                                </div>","-1","","0","","true","2","false","","","","","","","",""
"","","","","","html-button-response","17","149318","0.0-10.2-1.2","5w7xemwhkw","15","891","<p align='center'><b>Not quite!</b> The slider was not placed near the instructed located. Click on 'Continue' to try again. </p>","0","","","","","","","","","","","","","",""
"","","","","","html-slider-response","18","156248","0.0-10.3-0.3","5w7xemwhkw","15","NaN","<div style=""width:500px;"">
                                    <p style=""font-size:25px;"">Please move the slider halfway between the center and right endpoint of the scale</p>

                                    </div>
                                </div>","100","","0","","true","2","true","","","","","","","",""
"","","","","","html-button-response","19","157631","0.0-10.3-1.3","5w7xemwhkw","15","880","<p align='center'><b>Good job!</b> Click on 'Continue' to proceed.</p>","0","","","","","","","","","","","","","",""
"","","","","","html-slider-response","20","164741","0.0-11.0-0.0","5w7xemwhkw","15","NaN","<div style=""width:500px;"">
                                    <p style=""font-size:25px;"">Please move the slider halfway between the center and left endpoint of the scale</p>

                                    </div>
                                </div>","-107","","0","","true","3","true","","","","","","","",""
"","","","","","html-button-response","21","165923","0.0-11.0-1.0","5w7xemwhkw","15","679","<p align='center'><b>Good job!</b> Click on 'Continue' to proceed.</p>","0","","","","","","","","","","","","","",""
"","","","","","html-button-response","22","166815","0.0-12.0","5w7xemwhkw","15","891","<p>Great job! You've completed the practice trials. Now you will begin the main task.</p>","0","","","","","","","","","","","","","",""
"","","","","","html-button-response","23","169430","0.0-13.0","5w7xemwhkw","15","2613","<p>In this block of trials, you will be asked to rate how much you associate each map with:</p > <p style = 'font-size:150%; font-weight: bold'>disturbing</p><br></br>","0","","","","","","","","","","","","","",""
"","","","","","html-slider-response","24","175659","0.0-14.0","5w7xemwhkw","15","NaN","<div style=""width:500px;"">
                            <p style=""font-size:50px; font-weight:bold;""
                            >disturbing</p>
                            <div style=""width:240px; margin: auto;"">
                                <img src=""images/B_D_U_28.png"" style= ""width:200px""alt=""img"">
                            </div>
                        </div>","109","","0","images/B_D_U_28.png","","","","disturbing","1","28","B","D","U","",""
"","","","","","html-slider-response","25","183642","0.0-15.0","5w7xemwhkw","15","NaN","<div style=""width:500px;"">
                            <p style=""font-size:50px; font-weight:bold;""
                            >disturbing</p>
                            <div style=""width:240px; margin: auto;"">
                                <img src=""images/B_D_S_27.png"" style= ""width:200px""alt=""img"">
                            </div>
                        </div>","-138","","0","images/B_D_S_27.png","","","","disturbing","1","27","B","D","S","",""
"","","","","","html-slider-response","26","186199","0.0-16.0","5w7xemwhkw","15","NaN","<div style=""width:500px;"">
                            <p style=""font-size:50px; font-weight:bold;""
                            >disturbing</p>
                            <div style=""width:240px; margin: auto;"">
                                <img src=""images/Y_L_U_33.png"" style= ""width:200px""alt=""img"">
                            </div>
                        </div>","110","","0","images/Y_L_U_33.png","","","","disturbing","1","33","Y","L","U","",""
"","","","","","html-slider-response","27","189747","0.0-17.0","5w7xemwhkw","15","NaN","<div style=""width:500px;"">
                            <p style=""font-size:50px; font-weight:bold;""
                            >disturbing</p>
                            <div style=""width:240px; margin: auto;"">
                                <img src=""images/R_L_U_02.png"" style= ""width:200px""alt=""img"">
                            </div>
                        </div>","-22","","0","images/R_L_U_02.png","","","","disturbing","1","02","R","L","U","",""
"","","","","","html-slider-response","28","191793","0.0-18.0","5w7xemwhkw","15","NaN","<div style=""width:500px;"">
                            <p style=""font-size:50px; font-weight:bold;""
                            >disturbing</p>
                            <div style=""width:240px; margin: auto;"">
                                <img src=""images/B_D_S_27.png"" style= ""width:200px""alt=""img"">
                            </div>
                        </div>","-90","","0","images/B_D_S_27.png","","","","disturbing","2","27","B","D","S","",""
"","","","","","html-slider-response","29","194432","0.0-19.0","5w7xemwhkw","15","NaN","<div style=""width:500px;"">
                            <p style=""font-size:50px; font-weight:bold;""
                            >disturbing</p>
                            <div style=""width:240px; margin: auto;"">
                                <img src=""images/B_D_U_28.png"" style= ""width:200px""alt=""img"">
                            </div>
                        </div>","74","","0","images/B_D_U_28.png","","","","disturbing","2","28","B","D","U","",""
"","","","","","html-slider-response","30","206161","0.0-20.0","5w7xemwhkw","15","NaN","<div style=""width:500px;"">
                            <p style=""font-size:50px; font-weight:bold;""
                            >disturbing</p>
                            <div style=""width:240px; margin: auto;"">
                                <img src=""images/Y_D_U_41.png"" style= ""width:200px""alt=""img"">
                            </div>
                        </div>","72","","0","images/Y_D_U_41.png","","","","disturbing","2","41","Y","D","U","",""
"","","","","","html-slider-response","31","208266","0.0-21.0","5w7xemwhkw","15","NaN","<div style=""width:500px;"">
                            <p style=""font-size:50px; font-weight:bold;""
                            >disturbing</p>
                            <div style=""width:240px; margin: auto;"">
                                <img src=""images/R_L_S_44.png"" style= ""width:200px""alt=""img"">
                            </div>
                        </div>","-118","","0","images/R_L_S_44.png","","","","disturbing","1","44","R","L","S","",""
"","","","","","html-slider-response","32","210411","0.0-22.0","5w7xemwhkw","15","NaN","<div style=""width:500px;"">
                            <p style=""font-size:50px; font-weight:bold;""
                            >disturbing</p>
                            <div style=""width:240px; margin: auto;"">
                                <img src=""images/R_D_S_05.png"" style= ""width:200px""alt=""img"">
                            </div>
                        </div>","-151","","0","images/R_D_S_05.png","","","","disturbing","1","05","R","D","S","",""
"","","","","","html-slider-response","33","212710","0.0-23.0","5w7xemwhkw","15","NaN","<div style=""width:500px;"">
                            <p style=""font-size:50px; font-weight:bold;""
                            >disturbing</p>
                            <div style=""width:240px; margin: auto;"">
                                <img src=""images/G_L_S_10.png"" style= ""width:200px""alt=""img"">
                            </div>
                        </div>","-149","","0","images/G_L_S_10.png","","","","disturbing","2","10","G","L","S","",""
"","","","","","html-slider-response","34","215184","0.0-24.0","5w7xemwhkw","15","NaN","<div style=""width:500px;"">
                            <p style=""font-size:50px; font-weight:bold;""
                            >disturbing</p>
                            <div style=""width:240px; margin: auto;"">
                                <img src=""images/G_D_U_15.png"" style= ""width:200px""alt=""img"">
                            </div>
                        </div>","-68","","0","images/G_D_U_15.png","","","","disturbing","2","15","G","D","U","",""
"","","","","","html-slider-response","35","217578","0.0-25.0","5w7xemwhkw","15","NaN","<div style=""width:500px;"">
                            <p style=""font-size:50px; font-weight:bold;""
                            >disturbing</p>
                            <div style=""width:240px; margin: auto;"">
                                <img src=""images/R_D_S_05.png"" style= ""width:200px""alt=""img"">
                            </div>
                        </div>","-142","","0","images/R_D_S_05.png","","","","disturbing","2","05","R","D","S","",""
"","","","","","html-slider-response","36","222492","0.0-26.0","5w7xemwhkw","15","NaN","<div style=""width:500px;"">
                            <p style=""font-size:50px; font-weight:bold;""
                            >disturbing</p>
                            <div style=""width:240px; margin: auto;"">
                                <img src=""images/B_L_U_26.png"" style= ""width:200px""alt=""img"">
                            </div>
                        </div>","30","","0","images/B_L_U_26.png","","","","disturbing","2","26","B","L","U","",""
"","","","","","html-slider-response","37","224594","0.0-27.0","5w7xemwhkw","15","NaN","<div style=""width:500px;"">
                            <p style=""font-size:50px; font-weight:bold;""
                            >disturbing</p>
                            <div style=""width:240px; margin: auto;"">
                                <img src=""images/Y_D_S_37.png"" style= ""width:200px""alt=""img"">
                            </div>
                        </div>","65","","0","images/Y_D_S_37.png","","","","disturbing","2","37","Y","D","S","",""
"","","","","","html-slider-response","38","228193","0.0-28.0","5w7xemwhkw","15","NaN","<div style=""width:500px;"">
                            <p style=""font-size:50px; font-weight:bold;""
                            >disturbing</p>
                            <div style=""width:240px; margin: auto;"">
                                <img src=""images/Y_L_S_30.png"" style= ""width:200px""alt=""img"">
                            </div>
                        </div>","-89","","0","images/Y_L_S_30.png","","","","disturbing","2","30","Y","L","S","",""
"","","","","","html-slider-response","39","233039","0.0-29.0","5w7xemwhkw","15","NaN","<div style=""width:500px;"">
                            <p style=""font-size:50px; font-weight:bold;""
                            >disturbing</p>
                            <div style=""width:240px; margin: auto;"">
                                <img src=""images/G_L_U_12.png"" style= ""width:200px""alt=""img"">
                            </div>
                        </div>","-95","","0","images/G_L_U_12.png","","","","disturbing","2","12","G","L","U","",""
"","","","","","html-slider-response","40","235184","0.0-30.0","5w7xemwhkw","15","NaN","<div style=""width:500px;"">
                            <p style=""font-size:50px; font-weight:bold;""
                            >disturbing</p>
                            <div style=""width:240px; margin: auto;"">
                                <img src=""images/G_D_S_13.png"" style= ""width:200px""alt=""img"">
                            </div>
                        </div>","-99","","0","images/G_D_S_13.png","","","","disturbing","1","13","G","D","S","",""
"","","","","","html-slider-response","41","238699","0.0-31.0","5w7xemwhkw","15","NaN","<div style=""width:500px;"">
                            <p style=""font-size:50px; font-weight:bold;""
                            >disturbing</p>
                            <div style=""width:240px; margin: auto;"">
                                <img src=""images/B_L_S_23.png"" style= ""width:200px""alt=""img"">
                            </div>
                        </div>","-8","","0","images/B_L_S_23.png","","","","disturbing","1","23","B","L","S","",""
"","","","","","html-slider-response","42","240932","0.0-32.0","5w7xemwhkw","15","NaN","<div style=""width:500px;"">
                            <p style=""font-size:50px; font-weight:bold;""
                            >disturbing</p>
                            <div style=""width:240px; margin: auto;"">
                                <img src=""images/G_D_U_15.png"" style= ""width:200px""alt=""img"">
                            </div>
                        </div>","-58","","0","images/G_D_U_15.png","","","","disturbing","1","15","G","D","U","",""
"","","","","","html-slider-response","43","242872","0.0-33.0","5w7xemwhkw","15","NaN","<div style=""width:500px;"">
                            <p style=""font-size:50px; font-weight:bold;""
                            >disturbing</p>
                            <div style=""width:240px; margin: auto;"">
                                <img src=""images/G_L_S_10.png"" style= ""width:200px""alt=""img"">
                            </div>
                        </div>","-84","","0","images/G_L_S_10.png","","","","disturbing","1","10","G","L","S","",""
"","","","","","html-slider-response","44","244845","0.0-34.0","5w7xemwhkw","15","NaN","<div style=""width:500px;"">
                            <p style=""font-size:50px; font-weight:bold;""
                            >disturbing</p>
                            <div style=""width:240px; margin: auto;"">
                                <img src=""images/Y_D_S_37.png"" style= ""width:200px""alt=""img"">
                            </div>
                        </div>","-104","","0","images/Y_D_S_37.png","","","","disturbing","1","37","Y","D","S","",""
"","","","","","html-slider-response","45","246916","0.0-35.0","5w7xemwhkw","15","NaN","<div style=""width:500px;"">
                            <p style=""font-size:50px; font-weight:bold;""
                            >disturbing</p>
                            <div style=""width:240px; margin: auto;"">
                                <img src=""images/G_D_S_13.png"" style= ""width:200px""alt=""img"">
                            </div>
                        </div>","-139","","0","images/G_D_S_13.png","","","","disturbing","2","13","G","D","S","",""
"","","","","","html-slider-response","46","248758","0.0-36.0","5w7xemwhkw","15","NaN","<div style=""width:500px;"">
                            <p style=""font-size:50px; font-weight:bold;""
                            >disturbing</p>
                            <div style=""width:240px; margin: auto;"">
                                <img src=""images/Y_D_U_41.png"" style= ""width:200px""alt=""img"">
                            </div>
                        </div>","22","","0","images/Y_D_U_41.png","","","","disturbing","1","41","Y","D","U","",""
"","","","","","html-slider-response","47","250443","0.0-37.0","5w7xemwhkw","15","NaN","<div style=""width:500px;"">
                            <p style=""font-size:50px; font-weight:bold;""
                            >disturbing</p>
                            <div style=""width:240px; margin: auto;"">
                                <img src=""images/Y_L_S_30.png"" style= ""width:200px""alt=""img"">
                            </div>
                        </div>","-23","","0","images/Y_L_S_30.png","","","","disturbing","1","30","Y","L","S","",""
"","","","","","html-slider-response","48","254400","0.0-38.0","5w7xemwhkw","15","NaN","<div style=""width:500px;"">
                            <p style=""font-size:50px; font-weight:bold;""
                            >disturbing</p>
                            <div style=""width:240px; margin: auto;"">
                                <img src=""images/B_L_S_23.png"" style= ""width:200px""alt=""img"">
                            </div>
                        </div>","-59","","0","images/B_L_S_23.png","","","","disturbing","2","23","B","L","S","",""
"","","","","","html-slider-response","49","256427","0.0-39.0","5w7xemwhkw","15","NaN","<div style=""width:500px;"">
                            <p style=""font-size:50px; font-weight:bold;""
                            >disturbing</p>
                            <div style=""width:240px; margin: auto;"">
                                <img src=""images/R_L_U_02.png"" style= ""width:200px""alt=""img"">
                            </div>
                        </div>","-82","","0","images/R_L_U_02.png","","","","disturbing","2","02","R","L","U","",""
"","","","","","html-slider-response","50","258316","0.0-40.0","5w7xemwhkw","15","NaN","<div style=""width:500px;"">
                            <p style=""font-size:50px; font-weight:bold;""
                            >disturbing</p>
                            <div style=""width:240px; margin: auto;"">
                                <img src=""images/R_L_S_44.png"" style= ""width:200px""alt=""img"">
                            </div>
                        </div>","-67","","0","images/R_L_S_44.png","","","","disturbing","2","44","R","L","S","",""
"","","","","","html-slider-response","51","260783","0.0-41.0","5w7xemwhkw","15","NaN","<div style=""width:500px;"">
                            <p style=""font-size:50px; font-weight:bold;""
                            >disturbing</p>
                            <div style=""width:240px; margin: auto;"">
                                <img src=""images/G_L_U_12.png"" style= ""width:200px""alt=""img"">
                            </div>
                        </div>","-90","","0","images/G_L_U_12.png","","","","disturbing","1","12","G","L","U","",""
"","","","","","html-slider-response","52","263043","0.0-42.0","5w7xemwhkw","15","NaN","<div style=""width:500px;"">
                            <p style=""font-size:50px; font-weight:bold;""
                            >disturbing</p>
                            <div style=""width:240px; margin: auto;"">
                                <img src=""images/B_L_U_26.png"" style= ""width:200px""alt=""img"">
                            </div>
                        </div>","27","","0","images/B_L_U_26.png","","","","disturbing","1","26","B","L","U","",""
"","","","","","html-slider-response","53","265194","0.0-43.0","5w7xemwhkw","15","NaN","<div style=""width:500px;"">
                            <p style=""font-size:50px; font-weight:bold;""
                            >disturbing</p>
                            <div style=""width:240px; margin: auto;"">
                                <img src=""images/R_D_U_07.png"" style= ""width:200px""alt=""img"">
                            </div>
                        </div>","-79","","0","images/R_D_U_07.png","","","","disturbing","2","07","R","D","U","",""
"","","","","","html-slider-response","54","267531","0.0-44.0","5w7xemwhkw","15","NaN","<div style=""width:500px;"">
                            <p style=""font-size:50px; font-weight:bold;""
                            >disturbing</p>
                            <div style=""width:240px; margin: auto;"">
                                <img src=""images/R_D_U_07.png"" style= ""width:200px""alt=""img"">
                            </div>
                        </div>","-87","","0","images/R_D_U_07.png","","","","disturbing","1","07","R","D","U","",""
"","","","","","html-slider-response","55","272080","0.0-45.0","5w7xemwhkw","15","NaN","<div style=""width:500px;"">
                            <p style=""font-size:50px; font-weight:bold;""
                            >disturbing</p>
                            <div style=""width:240px; margin: auto;"">
                                <img src=""images/Y_L_U_33.png"" style= ""width:200px""alt=""img"">
                            </div>
                        </div>","102","","0","images/Y_L_U_33.png","","","","disturbing","2","33","Y","L","U","",""
"","","","","","html-button-response","56","274521","0.0-46.0","5w7xemwhkw","15","1937","<p>Great Job! You've finished block 1.<br></br> You have 7 block(s) left to go.<br></br></p>","0","","","","","","","","","","","","","",""
"","","","","","html-button-response","57","276760","0.0-47.0","5w7xemwhkw","15","2238","<p>In this block of trials, you will be asked to rate how much you associate each map with:</p > <p style = 'font-size:150%; font-weight: bold'>serious</p><br></br>","0","","","","","","","","","","","","","",""
"","","","","","html-slider-response","58","297342","0.0-48.0","5w7xemwhkw","15","NaN","<div style=""width:500px;"">
                            <p style=""font-size:50px; font-weight:bold;""
                            >serious</p>
                            <div style=""width:240px; margin: auto;"">
                                <img src=""images/G_L_U_12.png"" style= ""width:200px""alt=""img"">
                            </div>
                        </div>","148","","0","images/G_L_U_12.png","","","","serious","2","12","G","L","U","",""
"","","","","","html-slider-response","59","300394","0.0-49.0","5w7xemwhkw","15","NaN","<div style=""width:500px;"">
                            <p style=""font-size:50px; font-weight:bold;""
                            >serious</p>
                            <div style=""width:240px; margin: auto;"">
                                <img src=""images/G_L_S_10.png"" style= ""width:200px""alt=""img"">
                            </div>
                        </div>","-112","","0","images/G_L_S_10.png","","","","serious","1","10","G","L","S","",""
"","","","","","html-slider-response","60","303779","0.0-50.0","5w7xemwhkw","15","NaN","<div style=""width:500px;"">
                            <p style=""font-size:50px; font-weight:bold;""
                            >serious</p>
                            <div style=""width:240px; margin: auto;"">
                                <img src=""images/Y_D_U_41.png"" style= ""width:200px""alt=""img"">
                            </div>
                        </div>","12","","0","images/Y_D_U_41.png","","","","serious","2","41","Y","D","U","",""
"","","","","","html-slider-response","61","306190","0.0-51.0","5w7xemwhkw","15","NaN","<div style=""width:500px;"">
                            <p style=""font-size:50px; font-weight:bold;""
                            >serious</p>
                            <div style=""width:240px; margin: auto;"">
                                <img src=""images/R_L_S_44.png"" style= ""width:200px""alt=""img"">
                            </div>
                        </div>","-62","","0","images/R_L_S_44.png","","","","serious","2","44","R","L","S","",""
"","","","","","html-slider-response","62","309795","0.0-52.0","5w7xemwhkw","15","NaN","<div style=""width:500px;"">
                            <p style=""font-size:50px; font-weight:bold;""
                            >serious</p>
                            <div style=""width:240px; margin: auto;"">
                                <img src=""images/B_L_U_26.png"" style= ""width:200px""alt=""img"">
                            </div>
                        </div>","168","","0","images/B_L_U_26.png","","","","serious","1","26","B","L","U","",""
"","","","","","html-slider-response","63","311929","0.0-53.0","5w7xemwhkw","15","NaN","<div style=""width:500px;"">
                            <p style=""font-size:50px; font-weight:bold;""
                            >serious</p>
                            <div style=""width:240px; margin: auto;"">
                                <img src=""images/R_D_S_05.png"" style= ""width:200px""alt=""img"">
                            </div>
                        </div>","98","","0","images/R_D_S_05.png","","","","serious","2","05","R","D","S","",""
"","","","","","html-slider-response","64","314122","0.0-54.0","5w7xemwhkw","15","NaN","<div style=""width:500px;"">
                            <p style=""font-size:50px; font-weight:bold;""
                            >serious</p>
                            <div style=""width:240px; margin: auto;"">
                                <img src=""images/G_L_S_10.png"" style= ""width:200px""alt=""img"">
                            </div>
                        </div>","-47","","0","images/G_L_S_10.png","","","","serious","2","10","G","L","S","",""
"","","","","","html-slider-response","65","316413","0.0-55.0","5w7xemwhkw","15","NaN","<div style=""width:500px;"">
                            <p style=""font-size:50px; font-weight:bold;""
                            >serious</p>
                            <div style=""width:240px; margin: auto;"">
                                <img src=""images/B_D_U_28.png"" style= ""width:200px""alt=""img"">
                            </div>
                        </div>","72","","0","images/B_D_U_28.png","","","","serious","1","28","B","D","U","",""
"","","","","","html-slider-response","66","318217","0.0-56.0","5w7xemwhkw","15","NaN","<div style=""width:500px;"">
                            <p style=""font-size:50px; font-weight:bold;""
                            >serious</p>
                            <div style=""width:240px; margin: auto;"">
                                <img src=""images/G_D_U_15.png"" style= ""width:200px""alt=""img"">
                            </div>
                        </div>","48","","0","images/G_D_U_15.png","","","","serious","1","15","G","D","U","",""
"","","","","","html-slider-response","67","321218","0.0-57.0","5w7xemwhkw","15","NaN","<div style=""width:500px;"">
                            <p style=""font-size:50px; font-weight:bold;""
                            >serious</p>
                            <div style=""width:240px; margin: auto;"">
                                <img src=""images/R_L_U_02.png"" style= ""width:200px""alt=""img"">
                            </div>
                        </div>","-12","","0","images/R_L_U_02.png","","","","serious","2","02","R","L","U","",""
"","","","","","html-slider-response","68","325346","0.0-58.0","5w7xemwhkw","15","NaN","<div style=""width:500px;"">
                            <p style=""font-size:50px; font-weight:bold;""
                            >serious</p>
                            <div style=""width:240px; margin: auto;"">
                                <img src=""images/R_D_U_07.png"" style= ""width:200px""alt=""img"">
                            </div>
                        </div>","71","","0","images/R_D_U_07.png","","","","serious","1","07","R","D","U","",""
"","","","","","html-slider-response","69","327355","0.0-59.0","5w7xemwhkw","15","NaN","<div style=""width:500px;"">
                            <p style=""font-size:50px; font-weight:bold;""
                            >serious</p>
                            <div style=""width:240px; margin: auto;"">
                                <img src=""images/B_L_S_23.png"" style= ""width:200px""alt=""img"">
                            </div>
                        </div>","94","","0","images/B_L_S_23.png","","","","serious","2","23","B","L","S","",""
"","","","","","html-slider-response","70","329940","0.0-60.0","5w7xemwhkw","15","NaN","<div style=""width:500px;"">
                            <p style=""font-size:50px; font-weight:bold;""
                            >serious</p>
                            <div style=""width:240px; margin: auto;"">
                                <img src=""images/Y_D_S_37.png"" style= ""width:200px""alt=""img"">
                            </div>
                        </div>","35","","0","images/Y_D_S_37.png","","","","serious","2","37","Y","D","S","",""
"","","","","","html-slider-response","71","333677","0.0-61.0","5w7xemwhkw","15","NaN","<div style=""width:500px;"">
                            <p style=""font-size:50px; font-weight:bold;""
                            >serious</p>
                            <div style=""width:240px; margin: auto;"">
                                <img src=""images/R_D_S_05.png"" style= ""width:200px""alt=""img"">
                            </div>
                        </div>","70","","0","images/R_D_S_05.png","","","","serious","1","05","R","D","S","",""
"","","","","","html-slider-response","72","336498","0.0-62.0","5w7xemwhkw","15","NaN","<div style=""width:500px;"">
                            <p style=""font-size:50px; font-weight:bold;""
                            >serious</p>
                            <div style=""width:240px; margin: auto;"">
                                <img src=""images/R_L_U_02.png"" style= ""width:200px""alt=""img"">
                            </div>
                        </div>","-34","","0","images/R_L_U_02.png","","","","serious","1","02","R","L","U","",""
"","","","","","html-slider-response","73","338755","0.0-63.0","5w7xemwhkw","15","NaN","<div style=""width:500px;"">
                            <p style=""font-size:50px; font-weight:bold;""
                            >serious</p>
                            <div style=""width:240px; margin: auto;"">
                                <img src=""images/B_L_S_23.png"" style= ""width:200px""alt=""img"">
                            </div>
                        </div>","84","","0","images/B_L_S_23.png","","","","serious","1","23","B","L","S","",""
"","","","","","html-slider-response","74","340558","0.0-64.0","5w7xemwhkw","15","NaN","<div style=""width:500px;"">
                            <p style=""font-size:50px; font-weight:bold;""
                            >serious</p>
                            <div style=""width:240px; margin: auto;"">
                                <img src=""images/G_D_U_15.png"" style= ""width:200px""alt=""img"">
                            </div>
                        </div>","100","","0","images/G_D_U_15.png","","","","serious","2","15","G","D","U","",""
"","","","","","html-slider-response","75","341882","0.0-65.0","5w7xemwhkw","15","NaN","<div style=""width:500px;"">
                            <p style=""font-size:50px; font-weight:bold;""
                            >serious</p>
                            <div style=""width:240px; margin: auto;"">
                                <img src=""images/G_L_U_12.png"" style= ""width:200px""alt=""img"">
                            </div>
                        </div>","100","","0","images/G_L_U_12.png","","","","serious","1","12","G","L","U","",""
"","","","","","html-slider-response","76","345509","0.0-66.0","5w7xemwhkw","15","NaN","<div style=""width:500px;"">
                            <p style=""font-size:50px; font-weight:bold;""
                            >serious</p>
                            <div style=""width:240px; margin: auto;"">
                                <img src=""images/R_L_S_44.png"" style= ""width:200px""alt=""img"">
                            </div>
                        </div>","-37","","0","images/R_L_S_44.png","","","","serious","1","44","R","L","S","",""
"","","","","","html-slider-response","77","347660","0.0-67.0","5w7xemwhkw","15","NaN","<div style=""width:500px;"">
                            <p style=""font-size:50px; font-weight:bold;""
                            >serious</p>
                            <div style=""width:240px; margin: auto;"">
                                <img src=""images/Y_L_U_33.png"" style= ""width:200px""alt=""img"">
                            </div>
                        </div>","112","","0","images/Y_L_U_33.png","","","","serious","1","33","Y","L","U","",""
"","","","","","html-slider-response","78","351265","0.0-68.0","5w7xemwhkw","15","NaN","<div style=""width:500px;"">
                            <p style=""font-size:50px; font-weight:bold;""
                            >serious</p>
                            <div style=""width:240px; margin: auto;"">
                                <img src=""images/B_D_S_27.png"" style= ""width:200px""alt=""img"">
                            </div>
                        </div>","174","","0","images/B_D_S_27.png","","","","serious","1","27","B","D","S","",""
"","","","","","html-slider-response","79","353231","0.0-69.0","5w7xemwhkw","15","NaN","<div style=""width:500px;"">
                            <p style=""font-size:50px; font-weight:bold;""
                            >serious</p>
                            <div style=""width:240px; margin: auto;"">
                                <img src=""images/G_D_S_13.png"" style= ""width:200px""alt=""img"">
                            </div>
                        </div>","78","","0","images/G_D_S_13.png","","","","serious","2","13","G","D","S","",""
"","","","","","html-slider-response","80","354862","0.0-70.0","5w7xemwhkw","15","NaN","<div style=""width:500px;"">
                            <p style=""font-size:50px; font-weight:bold;""
                            >serious</p>
                            <div style=""width:240px; margin: auto;"">
                                <img src=""images/B_L_U_26.png"" style= ""width:200px""alt=""img"">
                            </div>
                        </div>","78","","0","images/B_L_U_26.png","","","","serious","2","26","B","L","U","",""
"","","","","","html-slider-response","81","356828","0.0-71.0","5w7xemwhkw","15","NaN","<div style=""width:500px;"">
                            <p style=""font-size:50px; font-weight:bold;""
                            >serious</p>
                            <div style=""width:240px; margin: auto;"">
                                <img src=""images/G_D_S_13.png"" style= ""width:200px""alt=""img"">
                            </div>
                        </div>","-39","","0","images/G_D_S_13.png","","","","serious","1","13","G","D","S","",""
"","","","","","html-slider-response","82","358353","0.0-72.0","5w7xemwhkw","15","NaN","<div style=""width:500px;"">
                            <p style=""font-size:50px; font-weight:bold;""
                            >serious</p>
                            <div style=""width:240px; margin: auto;"">
                                <img src=""images/B_D_U_28.png"" style= ""width:200px""alt=""img"">
                            </div>
                        </div>","84","","0","images/B_D_U_28.png","","","","serious","2","28","B","D","U","",""
"","","","","","html-slider-response","83","360422","0.0-73.0","5w7xemwhkw","15","NaN","<div style=""width:500px;"">
                            <p style=""font-size:50px; font-weight:bold;""
                            >serious</p>
                            <div style=""width:240px; margin: auto;"">
                                <img src=""images/Y_L_S_30.png"" style= ""width:200px""alt=""img"">
                            </div>
                        </div>","-22","","0","images/Y_L_S_30.png","","","","serious","1","30","Y","L","S","",""
"","","","","","html-slider-response","84","361697","0.0-74.0","5w7xemwhkw","15","NaN","<div style=""width:500px;"">
                            <p style=""font-size:50px; font-weight:bold;""
                            >serious</p>
                            <div style=""width:240px; margin: auto;"">
                                <img src=""images/Y_L_S_30.png"" style= ""width:200px""alt=""img"">
                            </div>
                        </div>","-23","","0","images/Y_L_S_30.png","","","","serious","2","30","Y","L","S","",""
"","","","","","html-slider-response","85","363604","0.0-75.0","5w7xemwhkw","15","NaN","<div style=""width:500px;"">
                            <p style=""font-size:50px; font-weight:bold;""
                            >serious</p>
                            <div style=""width:240px; margin: auto;"">
                                <img src=""images/Y_D_U_41.png"" style= ""width:200px""alt=""img"">
                            </div>
                        </div>","23","","0","images/Y_D_U_41.png","","","","serious","1","41","Y","D","U","",""
"","","","","","html-slider-response","86","365853","0.0-76.0","5w7xemwhkw","15","NaN","<div style=""width:500px;"">
                            <p style=""font-size:50px; font-weight:bold;""
                            >serious</p>
                            <div style=""width:240px; margin: auto;"">
                                <img src=""images/R_D_U_07.png"" style= ""width:200px""alt=""img"">
                            </div>
                        </div>","72","","0","images/R_D_U_07.png","","","","serious","2","07","R","D","U","",""
"","","","","","html-slider-response","87","368401","0.0-77.0","5w7xemwhkw","15","NaN","<div style=""width:500px;"">
                            <p style=""font-size:50px; font-weight:bold;""
                            >serious</p>
                            <div style=""width:240px; margin: auto;"">
                                <img src=""images/B_D_S_27.png"" style= ""width:200px""alt=""img"">
                            </div>
                        </div>","162","","0","images/B_D_S_27.png","","","","serious","2","27","B","D","S","",""
"","","","","","html-slider-response","88","370199","0.0-78.0","5w7xemwhkw","15","NaN","<div style=""width:500px;"">
                            <p style=""font-size:50px; font-weight:bold;""
                            >serious</p>
                            <div style=""width:240px; margin: auto;"">
                                <img src=""images/Y_D_S_37.png"" style= ""width:200px""alt=""img"">
                            </div>
                        </div>","45","","0","images/Y_D_S_37.png","","","","serious","1","37","Y","D","S","",""
"","","","","","html-slider-response","89","372423","0.0-79.0","5w7xemwhkw","15","NaN","<div style=""width:500px;"">
                            <p style=""font-size:50px; font-weight:bold;""
                            >serious</p>
                            <div style=""width:240px; margin: auto;"">
                                <img src=""images/Y_L_U_33.png"" style= ""width:200px""alt=""img"">
                            </div>
                        </div>","106","","0","images/Y_L_U_33.png","","","","serious","2","33","Y","L","U","",""
"","","","","","html-button-response","90","374084","0.0-80.0","5w7xemwhkw","15","1159","<p>Great Job! You've finished block 2.<br></br> You have 6 block(s) left to go.<br></br></p>","0","","","","","","","","","","","","","",""
"","","","","","html-button-response","91","376763","0.0-81.0","5w7xemwhkw","15","2677","<p>In this block of trials, you will be asked to rate how much you associate each map with:</p > <p style = 'font-size:150%; font-weight: bold'>exciting</p><br></br>","0","","","","","","","","","","","","","",""
"","","","","","html-slider-response","92","380931","0.0-82.0","5w7xemwhkw","15","NaN","<div style=""width:500px;"">
                            <p style=""font-size:50px; font-weight:bold;""
                            >exciting</p>
                            <div style=""width:240px; margin: auto;"">
                                <img src=""images/G_L_U_12.png"" style= ""width:200px""alt=""img"">
                            </div>
                        </div>","15","","0","images/G_L_U_12.png","","","","exciting","2","12","G","L","U","",""
"","","","","","html-slider-response","93","382729","0.0-83.0","5w7xemwhkw","15","NaN","<div style=""width:500px;"">
                            <p style=""font-size:50px; font-weight:bold;""
                            >exciting</p>
                            <div style=""width:240px; margin: auto;"">
                                <img src=""images/Y_L_U_33.png"" style= ""width:200px""alt=""img"">
                            </div>
                        </div>","32","","0","images/Y_L_U_33.png","","","","exciting","1","33","Y","L","U","",""
"","","","","","html-slider-response","94","385176","0.0-84.0","5w7xemwhkw","15","NaN","<div style=""width:500px;"">
                            <p style=""font-size:50px; font-weight:bold;""
                            >exciting</p>
                            <div style=""width:240px; margin: auto;"">
                                <img src=""images/G_L_S_10.png"" style= ""width:200px""alt=""img"">
                            </div>
                        </div>","107","","0","images/G_L_S_10.png","","","","exciting","2","10","G","L","S","",""
"","","","","","html-slider-response","95","386783","0.0-85.0","5w7xemwhkw","15","NaN","<div style=""width:500px;"">
                            <p style=""font-size:50px; font-weight:bold;""
                            >exciting</p>
                            <div style=""width:240px; margin: auto;"">
                                <img src=""images/B_L_S_23.png"" style= ""width:200px""alt=""img"">
                            </div>
                        </div>","107","","0","images/B_L_S_23.png","","","","exciting","2","23","B","L","S","",""
"","","","","","html-slider-response","96","389374","0.0-86.0","5w7xemwhkw","15","NaN","<div style=""width:500px;"">
                            <p style=""font-size:50px; font-weight:bold;""
                            >exciting</p>
                            <div style=""width:240px; margin: auto;"">
                                <img src=""images/B_L_S_23.png"" style= ""width:200px""alt=""img"">
                            </div>
                        </div>","106","","0","images/B_L_S_23.png","","","","exciting","1","23","B","L","S","",""
"","","","","","html-slider-response","97","394279","0.0-87.0","5w7xemwhkw","15","NaN","<div style=""width:500px;"">
                            <p style=""font-size:50px; font-weight:bold;""
                            >exciting</p>
                            <div style=""width:240px; margin: auto;"">
                                <img src=""images/Y_D_S_37.png"" style= ""width:200px""alt=""img"">
                            </div>
                        </div>","-14","","0","images/Y_D_S_37.png","","","","exciting","2","37","Y","D","S","",""
"","","","","","html-slider-response","98","403136","0.0-88.0","5w7xemwhkw","15","NaN","<div style=""width:500px;"">
                            <p style=""font-size:50px; font-weight:bold;""
                            >exciting</p>
                            <div style=""width:240px; margin: auto;"">
                                <img src=""images/Y_L_U_33.png"" style= ""width:200px""alt=""img"">
                            </div>
                        </div>","-144","","0","images/Y_L_U_33.png","","","","exciting","2","33","Y","L","U","",""
"","","","","","html-slider-response","99","406228","0.0-89.0","5w7xemwhkw","15","NaN","<div style=""width:500px;"">
                            <p style=""font-size:50px; font-weight:bold;""
                            >exciting</p>
                            <div style=""width:240px; margin: auto;"">
                                <img src=""images/G_D_U_15.png"" style= ""width:200px""alt=""img"">
                            </div>
                        </div>","-16","","0","images/G_D_U_15.png","","","","exciting","1","15","G","D","U","",""
"","","","","","html-slider-response","100","410076","0.0-90.0","5w7xemwhkw","15","NaN","<div style=""width:500px;"">
                            <p style=""font-size:50px; font-weight:bold;""
                            >exciting</p>
                            <div style=""width:240px; margin: auto;"">
                                <img src=""images/Y_L_S_30.png"" style= ""width:200px""alt=""img"">
                            </div>
                        </div>","-184","","0","images/Y_L_S_30.png","","","","exciting","2","30","Y","L","S","",""
"","","","","","html-slider-response","101","412164","0.0-91.0","5w7xemwhkw","15","NaN","<div style=""width:500px;"">
                            <p style=""font-size:50px; font-weight:bold;""
                            >exciting</p>
                            <div style=""width:240px; margin: auto;"">
                                <img src=""images/R_L_U_02.png"" style= ""width:200px""alt=""img"">
                            </div>
                        </div>","-106","","0","images/R_L_U_02.png","","","","exciting","2","02","R","L","U","",""
"","","","","","html-slider-response","102","414170","0.0-92.0","5w7xemwhkw","15","NaN","<div style=""width:500px;"">
                            <p style=""font-size:50px; font-weight:bold;""
                            >exciting</p>
                            <div style=""width:240px; margin: auto;"">
                                <img src=""images/R_D_S_05.png"" style= ""width:200px""alt=""img"">
                            </div>
                        </div>","-127","","0","images/R_D_S_05.png","","","","exciting","1","05","R","D","S","",""
"","","","","","html-slider-response","103","416412","0.0-93.0","5w7xemwhkw","15","NaN","<div style=""width:500px;"">
                            <p style=""font-size:50px; font-weight:bold;""
                            >exciting</p>
                            <div style=""width:240px; margin: auto;"">
                                <img src=""images/B_L_U_26.png"" style= ""width:200px""alt=""img"">
                            </div>
                        </div>","110","","0","images/B_L_U_26.png","","","","exciting","1","26","B","L","U","",""
"","","","","","html-slider-response","104","419100","0.0-94.0","5w7xemwhkw","15","NaN","<div style=""width:500px;"">
                            <p style=""font-size:50px; font-weight:bold;""
                            >exciting</p>
                            <div style=""width:240px; margin: auto;"">
                                <img src=""images/G_D_U_15.png"" style= ""width:200px""alt=""img"">
                            </div>
                        </div>","22","","0","images/G_D_U_15.png","","","","exciting","2","15","G","D","U","",""
"","","","","","html-slider-response","105","421912","0.0-95.0","5w7xemwhkw","15","NaN","<div style=""width:500px;"">
                            <p style=""font-size:50px; font-weight:bold;""
                            >exciting</p>
                            <div style=""width:240px; margin: auto;"">
                                <img src=""images/Y_D_U_41.png"" style= ""width:200px""alt=""img"">
                            </div>
                        </div>","-178","","0","images/Y_D_U_41.png","","","","exciting","2","41","Y","D","U","",""
"","","","","","html-slider-response","106","424972","0.0-96.0","5w7xemwhkw","15","NaN","<div style=""width:500px;"">
                            <p style=""font-size:50px; font-weight:bold;""
                            >exciting</p>
                            <div style=""width:240px; margin: auto;"">
                                <img src=""images/R_L_S_44.png"" style= ""width:200px""alt=""img"">
                            </div>
                        </div>","-65","","0","images/R_L_S_44.png","","","","exciting","1","44","R","L","S","",""
"","","","","","html-slider-response","107","427247","0.0-97.0","5w7xemwhkw","15","NaN","<div style=""width:500px;"">
                            <p style=""font-size:50px; font-weight:bold;""
                            >exciting</p>
                            <div style=""width:240px; margin: auto;"">
                                <img src=""images/G_L_U_12.png"" style= ""width:200px""alt=""img"">
                            </div>
                        </div>","15","","0","images/G_L_U_12.png","","","","exciting","1","12","G","L","U","",""
"","","","","","html-slider-response","108","429862","0.0-98.0","5w7xemwhkw","15","NaN","<div style=""width:500px;"">
                            <p style=""font-size:50px; font-weight:bold;""
                            >exciting</p>
                            <div style=""width:240px; margin: auto;"">
                                <img src=""images/R_D_U_07.png"" style= ""width:200px""alt=""img"">
                            </div>
                        </div>","45","","0","images/R_D_U_07.png","","","","exciting","2","07","R","D","U","",""
"","","","","","html-slider-response","109","432071","0.0-99.0","5w7xemwhkw","15","NaN","<div style=""width:500px;"">
                            <p style=""font-size:50px; font-weight:bold;""
                            >exciting</p>
                            <div style=""width:240px; margin: auto;"">
                                <img src=""images/R_L_S_44.png"" style= ""width:200px""alt=""img"">
                            </div>
                        </div>","-38","","0","images/R_L_S_44.png","","","","exciting","2","44","R","L","S","",""
"","","","","","html-slider-response","110","434589","0.0-100.0","5w7xemwhkw","15","NaN","<div style=""width:500px;"">
                            <p style=""font-size:50px; font-weight:bold;""
                            >exciting</p>
                            <div style=""width:240px; margin: auto;"">
                                <img src=""images/G_D_S_13.png"" style= ""width:200px""alt=""img"">
                            </div>
                        </div>","-8","","0","images/G_D_S_13.png","","","","exciting","2","13","G","D","S","",""
"","","","","","html-slider-response","111","436284","0.0-101.0","5w7xemwhkw","15","NaN","<div style=""width:500px;"">
                            <p style=""font-size:50px; font-weight:bold;""
                            >exciting</p>
                            <div style=""width:240px; margin: auto;"">
                                <img src=""images/R_L_U_02.png"" style= ""width:200px""alt=""img"">
                            </div>
                        </div>","-79","","0","images/R_L_U_02.png","","","","exciting","1","02","R","L","U","",""
"","","","","","html-slider-response","112","438379","0.0-102.0","5w7xemwhkw","15","NaN","<div style=""width:500px;"">
                            <p style=""font-size:50px; font-weight:bold;""
                            >exciting</p>
                            <div style=""width:240px; margin: auto;"">
                                <img src=""images/Y_D_U_41.png"" style= ""width:200px""alt=""img"">
                            </div>
                        </div>","-189","","0","images/Y_D_U_41.png","","","","exciting","1","41","Y","D","U","",""
"","","","","","html-slider-response","113","440483","0.0-103.0","5w7xemwhkw","15","NaN","<div style=""width:500px;"">
                            <p style=""font-size:50px; font-weight:bold;""
                            >exciting</p>
                            <div style=""width:240px; margin: auto;"">
                                <img src=""images/B_L_U_26.png"" style= ""width:200px""alt=""img"">
                            </div>
                        </div>","156","","0","images/B_L_U_26.png","","","","exciting","2","26","B","L","U","",""
"","","","","","html-slider-response","114","442621","0.0-104.0","5w7xemwhkw","15","NaN","<div style=""width:500px;"">
                            <p style=""font-size:50px; font-weight:bold;""
                            >exciting</p>
                            <div style=""width:240px; margin: auto;"">
                                <img src=""images/G_L_S_10.png"" style= ""width:200px""alt=""img"">
                            </div>
                        </div>","88","","0","images/G_L_S_10.png","","","","exciting","1","10","G","L","S","",""
"","","","","","html-slider-response","115","445298","0.0-105.0","5w7xemwhkw","15","NaN","<div style=""width:500px;"">
                            <p style=""font-size:50px; font-weight:bold;""
                            >exciting</p>
                            <div style=""width:240px; margin: auto;"">
                                <img src=""images/B_D_U_28.png"" style= ""width:200px""alt=""img"">
                            </div>
                        </div>","77","","0","images/B_D_U_28.png","","","","exciting","2","28","B","D","U","",""
"","","","","","html-slider-response","116","447631","0.0-106.0","5w7xemwhkw","15","NaN","<div style=""width:500px;"">
                            <p style=""font-size:50px; font-weight:bold;""
                            >exciting</p>
                            <div style=""width:240px; margin: auto;"">
                                <img src=""images/Y_L_S_30.png"" style= ""width:200px""alt=""img"">
                            </div>
                        </div>","-178","","0","images/Y_L_S_30.png","","","","exciting","1","30","Y","L","S","",""
"","","","","","html-slider-response","117","450055","0.0-107.0","5w7xemwhkw","15","NaN","<div style=""width:500px;"">
                            <p style=""font-size:50px; font-weight:bold;""
                            >exciting</p>
                            <div style=""width:240px; margin: auto;"">
                                <img src=""images/B_D_S_27.png"" style= ""width:200px""alt=""img"">
                            </div>
                        </div>","191","","0","images/B_D_S_27.png","","","","exciting","1","27","B","D","S","",""
"","","","","","html-slider-response","118","452192","0.0-108.0","5w7xemwhkw","15","NaN","<div style=""width:500px;"">
                            <p style=""font-size:50px; font-weight:bold;""
                            >exciting</p>
                            <div style=""width:240px; margin: auto;"">
                                <img src=""images/R_D_U_07.png"" style= ""width:200px""alt=""img"">
                            </div>
                        </div>","-49","","0","images/R_D_U_07.png","","","","exciting","1","07","R","D","U","",""
"","","","","","html-slider-response","119","454123","0.0-109.0","5w7xemwhkw","15","NaN","<div style=""width:500px;"">
                            <p style=""font-size:50px; font-weight:bold;""
                            >exciting</p>
                            <div style=""width:240px; margin: auto;"">
                                <img src=""images/R_D_S_05.png"" style= ""width:200px""alt=""img"">
                            </div>
                        </div>","-45","","0","images/R_D_S_05.png","","","","exciting","2","05","R","D","S","",""
"","","","","","html-slider-response","120","456470","0.0-110.0","5w7xemwhkw","15","NaN","<div style=""width:500px;"">
                            <p style=""font-size:50px; font-weight:bold;""
                            >exciting</p>
                            <div style=""width:240px; margin: auto;"">
                                <img src=""images/Y_D_S_37.png"" style= ""width:200px""alt=""img"">
                            </div>
                        </div>","-183","","0","images/Y_D_S_37.png","","","","exciting","1","37","Y","D","S","",""
"","","","","","html-slider-response","121","458473","0.0-111.0","5w7xemwhkw","15","NaN","<div style=""width:500px;"">
                            <p style=""font-size:50px; font-weight:bold;""
                            >exciting</p>
                            <div style=""width:240px; margin: auto;"">
                                <img src=""images/G_D_S_13.png"" style= ""width:200px""alt=""img"">
                            </div>
                        </div>","22","","0","images/G_D_S_13.png","","","","exciting","1","13","G","D","S","",""
"","","","","","html-slider-response","122","460328","0.0-112.0","5w7xemwhkw","15","NaN","<div style=""width:500px;"">
                            <p style=""font-size:50px; font-weight:bold;""
                            >exciting</p>
                            <div style=""width:240px; margin: auto;"">
                                <img src=""images/B_D_U_28.png"" style= ""width:200px""alt=""img"">
                            </div>
                        </div>","86","","0","images/B_D_U_28.png","","","","exciting","1","28","B","D","U","",""
"","","","","","html-slider-response","123","462998","0.0-113.0","5w7xemwhkw","15","NaN","<div style=""width:500px;"">
                            <p style=""font-size:50px; font-weight:bold;""
                            >exciting</p>
                            <div style=""width:240px; margin: auto;"">
                                <img src=""images/B_D_S_27.png"" style= ""width:200px""alt=""img"">
                            </div>
                        </div>","186","","0","images/B_D_S_27.png","","","","exciting","2","27","B","D","S","",""
"","","","","","html-button-response","124","464619","0.0-114.0","5w7xemwhkw","15","1117","<p>Great Job! You've finished block 3.<br></br> You have 5 block(s) left to go.<br></br></p>","0","","","","","","","","","","","","","",""
"","","","","","html-button-response","125","467410","0.0-115.0","5w7xemwhkw","15","2790","<p>In this block of trials, you will be asked to rate how much you associate each map with:</p > <p style = 'font-size:150%; font-weight: bold'>negative</p><br></br>","0","","","","","","","","","","","","","",""
"","","","","","html-slider-response","126","469654","0.0-116.0","5w7xemwhkw","15","NaN","<div style=""width:500px;"">
                            <p style=""font-size:50px; font-weight:bold;""
                            >negative</p>
                            <div style=""width:240px; margin: auto;"">
                                <img src=""images/R_D_U_07.png"" style= ""width:200px""alt=""img"">
                            </div>
                        </div>","-25","","0","images/R_D_U_07.png","","","","negative","2","07","R","D","U","",""
"","","","","","html-slider-response","127","470914","0.0-117.0","5w7xemwhkw","15","NaN","<div style=""width:500px;"">
                            <p style=""font-size:50px; font-weight:bold;""
                            >negative</p>
                            <div style=""width:240px; margin: auto;"">
                                <img src=""images/R_D_U_07.png"" style= ""width:200px""alt=""img"">
                            </div>
                        </div>","-25","","0","images/R_D_U_07.png","","","","negative","1","07","R","D","U","",""
"","","","","","html-slider-response","128","474113","0.0-118.0","5w7xemwhkw","15","NaN","<div style=""width:500px;"">
                            <p style=""font-size:50px; font-weight:bold;""
                            >negative</p>
                            <div style=""width:240px; margin: auto;"">
                                <img src=""images/G_L_S_10.png"" style= ""width:200px""alt=""img"">
                            </div>
                        </div>","-188","","0","images/G_L_S_10.png","","","","negative","2","10","G","L","S","",""
"","","","","","html-slider-response","129","475921","0.0-119.0","5w7xemwhkw","15","NaN","<div style=""width:500px;"">
                            <p style=""font-size:50px; font-weight:bold;""
                            >negative</p>
                            <div style=""width:240px; margin: auto;"">
                                <img src=""images/R_L_S_44.png"" style= ""width:200px""alt=""img"">
                            </div>
                        </div>","-184","","0","images/R_L_S_44.png","","","","negative","1","44","R","L","S","",""
"","","","","","html-slider-response","130","480191","0.0-120.0","5w7xemwhkw","15","NaN","<div style=""width:500px;"">
                            <p style=""font-size:50px; font-weight:bold;""
                            >negative</p>
                            <div style=""width:240px; margin: auto;"">
                                <img src=""images/R_L_U_02.png"" style= ""width:200px""alt=""img"">
                            </div>
                        </div>","24","","0","images/R_L_U_02.png","","","","negative","1","02","R","L","U","",""
"","","","","","html-slider-response","131","482985","0.0-121.0","5w7xemwhkw","15","NaN","<div style=""width:500px;"">
                            <p style=""font-size:50px; font-weight:bold;""
                            >negative</p>
                            <div style=""width:240px; margin: auto;"">
                                <img src=""images/Y_D_S_37.png"" style= ""width:200px""alt=""img"">
                            </div>
                        </div>","189","","0","images/Y_D_S_37.png","","","","negative","1","37","Y","D","S","",""
"","","","","","html-slider-response","132","484990","0.0-122.0","5w7xemwhkw","15","NaN","<div style=""width:500px;"">
                            <p style=""font-size:50px; font-weight:bold;""
                            >negative</p>
                            <div style=""width:240px; margin: auto;"">
                                <img src=""images/R_D_S_05.png"" style= ""width:200px""alt=""img"">
                            </div>
                        </div>","-134","","0","images/R_D_S_05.png","","","","negative","2","05","R","D","S","",""
"","","","","","html-slider-response","133","487174","0.0-123.0","5w7xemwhkw","15","NaN","<div style=""width:500px;"">
                            <p style=""font-size:50px; font-weight:bold;""
                            >negative</p>
                            <div style=""width:240px; margin: auto;"">
                                <img src=""images/Y_D_S_37.png"" style= ""width:200px""alt=""img"">
                            </div>
                        </div>","192","","0","images/Y_D_S_37.png","","","","negative","2","37","Y","D","S","",""
"","","","","","html-slider-response","134","489148","0.0-124.0","5w7xemwhkw","15","NaN","<div style=""width:500px;"">
                            <p style=""font-size:50px; font-weight:bold;""
                            >negative</p>
                            <div style=""width:240px; margin: auto;"">
                                <img src=""images/G_L_U_12.png"" style= ""width:200px""alt=""img"">
                            </div>
                        </div>","-173","","0","images/G_L_U_12.png","","","","negative","2","12","G","L","U","",""
"","","","","","html-slider-response","135","491162","0.0-125.0","5w7xemwhkw","15","NaN","<div style=""width:500px;"">
                            <p style=""font-size:50px; font-weight:bold;""
                            >negative</p>
                            <div style=""width:240px; margin: auto;"">
                                <img src=""images/R_L_U_02.png"" style= ""width:200px""alt=""img"">
                            </div>
                        </div>","33","","0","images/R_L_U_02.png","","","","negative","2","02","R","L","U","",""
"","","","","","html-slider-response","136","493298","0.0-126.0","5w7xemwhkw","15","NaN","<div style=""width:500px;"">
                            <p style=""font-size:50px; font-weight:bold;""
                            >negative</p>
                            <div style=""width:240px; margin: auto;"">
                                <img src=""images/B_D_U_28.png"" style= ""width:200px""alt=""img"">
                            </div>
                        </div>","14","","0","images/B_D_U_28.png","","","","negative","1","28","B","D","U","",""
"","","","","","html-slider-response","137","495360","0.0-127.0","5w7xemwhkw","15","NaN","<div style=""width:500px;"">
                            <p style=""font-size:50px; font-weight:bold;""
                            >negative</p>
                            <div style=""width:240px; margin: auto;"">
                                <img src=""images/G_D_S_13.png"" style= ""width:200px""alt=""img"">
                            </div>
                        </div>","-10","","0","images/G_D_S_13.png","","","","negative","2","13","G","D","S","",""
"","","","","","html-slider-response","138","499526","0.0-128.0","5w7xemwhkw","15","NaN","<div style=""width:500px;"">
                            <p style=""font-size:50px; font-weight:bold;""
                            >negative</p>
                            <div style=""width:240px; margin: auto;"">
                                <img src=""images/Y_L_S_30.png"" style= ""width:200px""alt=""img"">
                            </div>
                        </div>","18","","0","images/Y_L_S_30.png","","","","negative","1","30","Y","L","S","",""
"","","","","","html-slider-response","139","501447","0.0-129.0","5w7xemwhkw","15","NaN","<div style=""width:500px;"">
                            <p style=""font-size:50px; font-weight:bold;""
                            >negative</p>
                            <div style=""width:240px; margin: auto;"">
                                <img src=""images/G_L_U_12.png"" style= ""width:200px""alt=""img"">
                            </div>
                        </div>","-45","","0","images/G_L_U_12.png","","","","negative","1","12","G","L","U","",""
"","","","","","html-slider-response","140","503412","0.0-130.0","5w7xemwhkw","15","NaN","<div style=""width:500px;"">
                            <p style=""font-size:50px; font-weight:bold;""
                            >negative</p>
                            <div style=""width:240px; margin: auto;"">
                                <img src=""images/B_D_U_28.png"" style= ""width:200px""alt=""img"">
                            </div>
                        </div>","25","","0","images/B_D_U_28.png","","","","negative","2","28","B","D","U","",""
"","","","","","html-slider-response","141","506059","0.0-131.0","5w7xemwhkw","15","NaN","<div style=""width:500px;"">
                            <p style=""font-size:50px; font-weight:bold;""
                            >negative</p>
                            <div style=""width:240px; margin: auto;"">
                                <img src=""images/B_L_U_26.png"" style= ""width:200px""alt=""img"">
                            </div>
                        </div>","-31","","0","images/B_L_U_26.png","","","","negative","2","26","B","L","U","",""
"","","","","","html-slider-response","142","508147","0.0-132.0","5w7xemwhkw","15","NaN","<div style=""width:500px;"">
                            <p style=""font-size:50px; font-weight:bold;""
                            >negative</p>
                            <div style=""width:240px; margin: auto;"">
                                <img src=""images/B_L_S_23.png"" style= ""width:200px""alt=""img"">
                            </div>
                        </div>","-157","","0","images/B_L_S_23.png","","","","negative","2","23","B","L","S","",""
"","","","","","html-slider-response","143","510069","0.0-133.0","5w7xemwhkw","15","NaN","<div style=""width:500px;"">
                            <p style=""font-size:50px; font-weight:bold;""
                            >negative</p>
                            <div style=""width:240px; margin: auto;"">
                                <img src=""images/B_D_S_27.png"" style= ""width:200px""alt=""img"">
                            </div>
                        </div>","-190","","0","images/B_D_S_27.png","","","","negative","1","27","B","D","S","",""
"","","","","","html-slider-response","144","511930","0.0-134.0","5w7xemwhkw","15","NaN","<div style=""width:500px;"">
                            <p style=""font-size:50px; font-weight:bold;""
                            >negative</p>
                            <div style=""width:240px; margin: auto;"">
                                <img src=""images/R_D_S_05.png"" style= ""width:200px""alt=""img"">
                            </div>
                        </div>","-98","","0","images/R_D_S_05.png","","","","negative","1","05","R","D","S","",""
"","","","","","html-slider-response","145","514431","0.0-135.0","5w7xemwhkw","15","NaN","<div style=""width:500px;"">
                            <p style=""font-size:50px; font-weight:bold;""
                            >negative</p>
                            <div style=""width:240px; margin: auto;"">
                                <img src=""images/Y_L_U_33.png"" style= ""width:200px""alt=""img"">
                            </div>
                        </div>","-22","","0","images/Y_L_U_33.png","","","","negative","2","33","Y","L","U","",""
"","","","","","html-slider-response","146","516515","0.0-136.0","5w7xemwhkw","15","NaN","<div style=""width:500px;"">
                            <p style=""font-size:50px; font-weight:bold;""
                            >negative</p>
                            <div style=""width:240px; margin: auto;"">
                                <img src=""images/Y_L_S_30.png"" style= ""width:200px""alt=""img"">
                            </div>
                        </div>","24","","0","images/Y_L_S_30.png","","","","negative","2","30","Y","L","S","",""
"","","","","","html-slider-response","147","518513","0.0-137.0","5w7xemwhkw","15","NaN","<div style=""width:500px;"">
                            <p style=""font-size:50px; font-weight:bold;""
                            >negative</p>
                            <div style=""width:240px; margin: auto;"">
                                <img src=""images/G_L_S_10.png"" style= ""width:200px""alt=""img"">
                            </div>
                        </div>","-139","","0","images/G_L_S_10.png","","","","negative","1","10","G","L","S","",""
"","","","","","html-slider-response","148","520472","0.0-138.0","5w7xemwhkw","15","NaN","<div style=""width:500px;"">
                            <p style=""font-size:50px; font-weight:bold;""
                            >negative</p>
                            <div style=""width:240px; margin: auto;"">
                                <img src=""images/Y_L_U_33.png"" style= ""width:200px""alt=""img"">
                            </div>
                        </div>","12","","0","images/Y_L_U_33.png","","","","negative","1","33","Y","L","U","",""
"","","","","","html-slider-response","149","524240","0.0-139.0","5w7xemwhkw","15","NaN","<div style=""width:500px;"">
                            <p style=""font-size:50px; font-weight:bold;""
                            >negative</p>
                            <div style=""width:240px; margin: auto;"">
                                <img src=""images/G_D_U_15.png"" style= ""width:200px""alt=""img"">
                            </div>
                        </div>","28","","0","images/G_D_U_15.png","","","","negative","2","15","G","D","U","",""
"","","","","","html-slider-response","150","526724","0.0-140.0","5w7xemwhkw","15","NaN","<div style=""width:500px;"">
                            <p style=""font-size:50px; font-weight:bold;""
                            >negative</p>
                            <div style=""width:240px; margin: auto;"">
                                <img src=""images/Y_D_U_41.png"" style= ""width:200px""alt=""img"">
                            </div>
                        </div>","178","","0","images/Y_D_U_41.png","","","","negative","1","41","Y","D","U","",""
"","","","","","html-slider-response","151","528997","0.0-141.0","5w7xemwhkw","15","NaN","<div style=""width:500px;"">
                            <p style=""font-size:50px; font-weight:bold;""
                            >negative</p>
                            <div style=""width:240px; margin: auto;"">
                                <img src=""images/G_D_S_13.png"" style= ""width:200px""alt=""img"">
                            </div>
                        </div>","-10","","0","images/G_D_S_13.png","","","","negative","1","13","G","D","S","",""
"","","","","","html-slider-response","152","530955","0.0-142.0","5w7xemwhkw","15","NaN","<div style=""width:500px;"">
                            <p style=""font-size:50px; font-weight:bold;""
                            >negative</p>
                            <div style=""width:240px; margin: auto;"">
                                <img src=""images/Y_D_U_41.png"" style= ""width:200px""alt=""img"">
                            </div>
                        </div>","164","","0","images/Y_D_U_41.png","","","","negative","2","41","Y","D","U","",""
"","","","","","html-slider-response","153","533252","0.0-143.0","5w7xemwhkw","15","NaN","<div style=""width:500px;"">
                            <p style=""font-size:50px; font-weight:bold;""
                            >negative</p>
                            <div style=""width:240px; margin: auto;"">
                                <img src=""images/B_L_U_26.png"" style= ""width:200px""alt=""img"">
                            </div>
                        </div>","60","","0","images/B_L_U_26.png","","","","negative","1","26","B","L","U","",""
"","","","","","html-slider-response","154","534785","0.0-144.0","5w7xemwhkw","15","NaN","<div style=""width:500px;"">
                            <p style=""font-size:50px; font-weight:bold;""
                            >negative</p>
                            <div style=""width:240px; margin: auto;"">
                                <img src=""images/G_D_U_15.png"" style= ""width:200px""alt=""img"">
                            </div>
                        </div>","-39","","0","images/G_D_U_15.png","","","","negative","1","15","G","D","U","",""
"","","","","","html-slider-response","155","536492","0.0-145.0","5w7xemwhkw","15","NaN","<div style=""width:500px;"">
                            <p style=""font-size:50px; font-weight:bold;""
                            >negative</p>
                            <div style=""width:240px; margin: auto;"">
                                <img src=""images/B_D_S_27.png"" style= ""width:200px""alt=""img"">
                            </div>
                        </div>","-199","","0","images/B_D_S_27.png","","","","negative","2","27","B","D","S","",""
"","","","","","html-slider-response","156","538520","0.0-146.0","5w7xemwhkw","15","NaN","<div style=""width:500px;"">
                            <p style=""font-size:50px; font-weight:bold;""
                            >negative</p>
                            <div style=""width:240px; margin: auto;"">
                                <img src=""images/R_L_S_44.png"" style= ""width:200px""alt=""img"">
                            </div>
                        </div>","-116","","0","images/R_L_S_44.png","","","","negative","2","44","R","L","S","",""
"","","","","","html-slider-response","157","540785","0.0-147.0","5w7xemwhkw","15","NaN","<div style=""width:500px;"">
                            <p style=""font-size:50px; font-weight:bold;""
                            >negative</p>
                            <div style=""width:240px; margin: auto;"">
                                <img src=""images/B_L_S_23.png"" style= ""width:200px""alt=""img"">
                            </div>
                        </div>","-99","","0","images/B_L_S_23.png","","","","negative","1","23","B","L","S","",""
"","","","","","html-button-response","158","542131","0.0-148.0","5w7xemwhkw","15","843","<p>Great Job! You've finished block 4.<br></br> You have 4 block(s) left to go.<br></br></p>","0","","","","","","","","","","","","","",""
"","","","","","html-button-response","159","542958","0.0-149.0","5w7xemwhkw","15","826","<p>In this block of trials, you will be asked to rate how much you associate each map with:</p > <p style = 'font-size:150%; font-weight: bold'>trustworthy</p><br></br>","0","","","","","","","","","","","","","",""
"","","","","","html-slider-response","160","545308","0.0-150.0","5w7xemwhkw","15","NaN","<div style=""width:500px;"">
                            <p style=""font-size:50px; font-weight:bold;""
                            >trustworthy</p>
                            <div style=""width:240px; margin: auto;"">
                                <img src=""images/B_D_U_28.png"" style= ""width:200px""alt=""img"">
                            </div>
                        </div>","-125","","0","images/B_D_U_28.png","","","","trustworthy","2","28","B","D","U","",""
"","","","","","html-slider-response","161","547095","0.0-151.0","5w7xemwhkw","15","NaN","<div style=""width:500px;"">
                            <p style=""font-size:50px; font-weight:bold;""
                            >trustworthy</p>
                            <div style=""width:240px; margin: auto;"">
                                <img src=""images/Y_D_S_37.png"" style= ""width:200px""alt=""img"">
                            </div>
                        </div>","-168","","0","images/Y_D_S_37.png","","","","trustworthy","2","37","Y","D","S","",""
"","","","","","html-slider-response","162","548960","0.0-152.0","5w7xemwhkw","15","NaN","<div style=""width:500px;"">
                            <p style=""font-size:50px; font-weight:bold;""
                            >trustworthy</p>
                            <div style=""width:240px; margin: auto;"">
                                <img src=""images/R_L_S_44.png"" style= ""width:200px""alt=""img"">
                            </div>
                        </div>","-86","","0","images/R_L_S_44.png","","","","trustworthy","2","44","R","L","S","",""
"","","","","","html-slider-response","163","553459","0.0-153.0","5w7xemwhkw","15","NaN","<div style=""width:500px;"">
                            <p style=""font-size:50px; font-weight:bold;""
                            >trustworthy</p>
                            <div style=""width:240px; margin: auto;"">
                                <img src=""images/R_D_U_07.png"" style= ""width:200px""alt=""img"">
                            </div>
                        </div>","-86","","0","images/R_D_U_07.png","","","","trustworthy","1","07","R","D","U","",""
"","","","","","html-slider-response","164","555266","0.0-154.0","5w7xemwhkw","15","NaN","<div style=""width:500px;"">
                            <p style=""font-size:50px; font-weight:bold;""
                            >trustworthy</p>
                            <div style=""width:240px; margin: auto;"">
                                <img src=""images/Y_D_U_41.png"" style= ""width:200px""alt=""img"">
                            </div>
                        </div>","-166","","0","images/Y_D_U_41.png","","","","trustworthy","2","41","Y","D","U","",""
"","","","","","html-slider-response","165","559190","0.0-155.0","5w7xemwhkw","15","NaN","<div style=""width:500px;"">
                            <p style=""font-size:50px; font-weight:bold;""
                            >trustworthy</p>
                            <div style=""width:240px; margin: auto;"">
                                <img src=""images/G_L_S_10.png"" style= ""width:200px""alt=""img"">
                            </div>
                        </div>","-71","","0","images/G_L_S_10.png","","","","trustworthy","1","10","G","L","S","",""
"","","","","","html-slider-response","166","561390","0.0-156.0","5w7xemwhkw","15","NaN","<div style=""width:500px;"">
                            <p style=""font-size:50px; font-weight:bold;""
                            >trustworthy</p>
                            <div style=""width:240px; margin: auto;"">
                                <img src=""images/G_L_U_12.png"" style= ""width:200px""alt=""img"">
                            </div>
                        </div>","-95","","0","images/G_L_U_12.png","","","","trustworthy","2","12","G","L","U","",""
"","","","","","html-slider-response","167","563897","0.0-157.0","5w7xemwhkw","15","NaN","<div style=""width:500px;"">
                            <p style=""font-size:50px; font-weight:bold;""
                            >trustworthy</p>
                            <div style=""width:240px; margin: auto;"">
                                <img src=""images/B_D_S_27.png"" style= ""width:200px""alt=""img"">
                            </div>
                        </div>","194","","0","images/B_D_S_27.png","","","","trustworthy","1","27","B","D","S","",""
"","","","","","html-slider-response","168","565693","0.0-158.0","5w7xemwhkw","15","NaN","<div style=""width:500px;"">
                            <p style=""font-size:50px; font-weight:bold;""
                            >trustworthy</p>
                            <div style=""width:240px; margin: auto;"">
                                <img src=""images/Y_L_S_30.png"" style= ""width:200px""alt=""img"">
                            </div>
                        </div>","-70","","0","images/Y_L_S_30.png","","","","trustworthy","1","30","Y","L","S","",""
"","","","","","html-slider-response","169","567283","0.0-159.0","5w7xemwhkw","15","NaN","<div style=""width:500px;"">
                            <p style=""font-size:50px; font-weight:bold;""
                            >trustworthy</p>
                            <div style=""width:240px; margin: auto;"">
                                <img src=""images/R_D_S_05.png"" style= ""width:200px""alt=""img"">
                            </div>
                        </div>","-94","","0","images/R_D_S_05.png","","","","trustworthy","1","05","R","D","S","",""
"","","","","","html-slider-response","170","568963","0.0-160.0","5w7xemwhkw","15","NaN","<div style=""width:500px;"">
                            <p style=""font-size:50px; font-weight:bold;""
                            >trustworthy</p>
                            <div style=""width:240px; margin: auto;"">
                                <img src=""images/G_L_S_10.png"" style= ""width:200px""alt=""img"">
                            </div>
                        </div>","-106","","0","images/G_L_S_10.png","","","","trustworthy","2","10","G","L","S","",""
"","","","","","html-slider-response","171","571026","0.0-161.0","5w7xemwhkw","15","NaN","<div style=""width:500px;"">
                            <p style=""font-size:50px; font-weight:bold;""
                            >trustworthy</p>
                            <div style=""width:240px; margin: auto;"">
                                <img src=""images/Y_L_U_33.png"" style= ""width:200px""alt=""img"">
                            </div>
                        </div>","-179","","0","images/Y_L_U_33.png","","","","trustworthy","2","33","Y","L","U","",""
"","","","","","html-slider-response","172","574011","0.0-162.0","5w7xemwhkw","15","NaN","<div style=""width:500px;"">
                            <p style=""font-size:50px; font-weight:bold;""
                            >trustworthy</p>
                            <div style=""width:240px; margin: auto;"">
                                <img src=""images/B_L_S_23.png"" style= ""width:200px""alt=""img"">
                            </div>
                        </div>","-16","","0","images/B_L_S_23.png","","","","trustworthy","1","23","B","L","S","",""
"","","","","","html-slider-response","173","575767","0.0-163.0","5w7xemwhkw","15","NaN","<div style=""width:500px;"">
                            <p style=""font-size:50px; font-weight:bold;""
                            >trustworthy</p>
                            <div style=""width:240px; margin: auto;"">
                                <img src=""images/G_D_S_13.png"" style= ""width:200px""alt=""img"">
                            </div>
                        </div>","-133","","0","images/G_D_S_13.png","","","","trustworthy","2","13","G","D","S","",""
"","","","","","html-slider-response","174","577512","0.0-164.0","5w7xemwhkw","15","NaN","<div style=""width:500px;"">
                            <p style=""font-size:50px; font-weight:bold;""
                            >trustworthy</p>
                            <div style=""width:240px; margin: auto;"">
                                <img src=""images/R_L_U_02.png"" style= ""width:200px""alt=""img"">
                            </div>
                        </div>","-58","","0","images/R_L_U_02.png","","","","trustworthy","1","02","R","L","U","",""
"","","","","","html-slider-response","175","578827","0.0-165.0","5w7xemwhkw","15","NaN","<div style=""width:500px;"">
                            <p style=""font-size:50px; font-weight:bold;""
                            >trustworthy</p>
                            <div style=""width:240px; margin: auto;"">
                                <img src=""images/R_L_U_02.png"" style= ""width:200px""alt=""img"">
                            </div>
                        </div>","-62","","0","images/R_L_U_02.png","","","","trustworthy","2","02","R","L","U","",""
"","","","","","html-slider-response","176","580549","0.0-166.0","5w7xemwhkw","15","NaN","<div style=""width:500px;"">
                            <p style=""font-size:50px; font-weight:bold;""
                            >trustworthy</p>
                            <div style=""width:240px; margin: auto;"">
                                <img src=""images/R_D_U_07.png"" style= ""width:200px""alt=""img"">
                            </div>
                        </div>","-124","","0","images/R_D_U_07.png","","","","trustworthy","2","07","R","D","U","",""
"","","","","","html-slider-response","177","582528","0.0-167.0","5w7xemwhkw","15","NaN","<div style=""width:500px;"">
                            <p style=""font-size:50px; font-weight:bold;""
                            >trustworthy</p>
                            <div style=""width:240px; margin: auto;"">
                                <img src=""images/Y_L_S_30.png"" style= ""width:200px""alt=""img"">
                            </div>
                        </div>","-107","","0","images/Y_L_S_30.png","","","","trustworthy","2","30","Y","L","S","",""
"","","","","","html-slider-response","178","584340","0.0-168.0","5w7xemwhkw","15","NaN","<div style=""width:500px;"">
                            <p style=""font-size:50px; font-weight:bold;""
                            >trustworthy</p>
                            <div style=""width:240px; margin: auto;"">
                                <img src=""images/R_D_S_05.png"" style= ""width:200px""alt=""img"">
                            </div>
                        </div>","-141","","0","images/R_D_S_05.png","","","","trustworthy","2","05","R","D","S","",""
"","","","","","html-slider-response","179","586238","0.0-169.0","5w7xemwhkw","15","NaN","<div style=""width:500px;"">
                            <p style=""font-size:50px; font-weight:bold;""
                            >trustworthy</p>
                            <div style=""width:240px; margin: auto;"">
                                <img src=""images/Y_D_U_41.png"" style= ""width:200px""alt=""img"">
                            </div>
                        </div>","-87","","0","images/Y_D_U_41.png","","","","trustworthy","1","41","Y","D","U","",""
"","","","","","html-slider-response","180","587992","0.0-170.0","5w7xemwhkw","15","NaN","<div style=""width:500px;"">
                            <p style=""font-size:50px; font-weight:bold;""
                            >trustworthy</p>
                            <div style=""width:240px; margin: auto;"">
                                <img src=""images/B_D_U_28.png"" style= ""width:200px""alt=""img"">
                            </div>
                        </div>","-55","","0","images/B_D_U_28.png","","","","trustworthy","1","28","B","D","U","",""
"","","","","","html-slider-response","181","590581","0.0-171.0","5w7xemwhkw","15","NaN","<div style=""width:500px;"">
                            <p style=""font-size:50px; font-weight:bold;""
                            >trustworthy</p>
                            <div style=""width:240px; margin: auto;"">
                                <img src=""images/R_L_S_44.png"" style= ""width:200px""alt=""img"">
                            </div>
                        </div>","-70","","0","images/R_L_S_44.png","","","","trustworthy","1","44","R","L","S","",""
"","","","","","html-slider-response","182","592336","0.0-172.0","5w7xemwhkw","15","NaN","<div style=""width:500px;"">
                            <p style=""font-size:50px; font-weight:bold;""
                            >trustworthy</p>
                            <div style=""width:240px; margin: auto;"">
                                <img src=""images/Y_D_S_37.png"" style= ""width:200px""alt=""img"">
                            </div>
                        </div>","-162","","0","images/Y_D_S_37.png","","","","trustworthy","1","37","Y","D","S","",""
"","","","","","html-slider-response","183","594609","0.0-173.0","5w7xemwhkw","15","NaN","<div style=""width:500px;"">
                            <p style=""font-size:50px; font-weight:bold;""
                            >trustworthy</p>
                            <div style=""width:240px; margin: auto;"">
                                <img src=""images/G_D_U_15.png"" style= ""width:200px""alt=""img"">
                            </div>
                        </div>","-48","","0","images/G_D_U_15.png","","","","trustworthy","1","15","G","D","U","",""
"","","","","","html-slider-response","184","596655","0.0-174.0","5w7xemwhkw","15","NaN","<div style=""width:500px;"">
                            <p style=""font-size:50px; font-weight:bold;""
                            >trustworthy</p>
                            <div style=""width:240px; margin: auto;"">
                                <img src=""images/G_L_U_12.png"" style= ""width:200px""alt=""img"">
                            </div>
                        </div>","-28","","0","images/G_L_U_12.png","","","","trustworthy","1","12","G","L","U","",""
"","","","","","html-slider-response","185","599014","0.0-175.0","5w7xemwhkw","15","NaN","<div style=""width:500px;"">
                            <p style=""font-size:50px; font-weight:bold;""
                            >trustworthy</p>
                            <div style=""width:240px; margin: auto;"">
                                <img src=""images/B_D_S_27.png"" style= ""width:200px""alt=""img"">
                            </div>
                        </div>","178","","0","images/B_D_S_27.png","","","","trustworthy","2","27","B","D","S","",""
"","","","","","html-slider-response","186","601063","0.0-176.0","5w7xemwhkw","15","NaN","<div style=""width:500px;"">
