"success","timeout","failed_images","failed_audio","failed_video","trial_type","trial_index","time_elapsed","internal_node_id","subject_id","condition_num","rt","stimulus","response","question_order","slider_start","image_path","practiceTrial","practiceTrialNum","correct","concept","repetition","map_id","hue","lightness","saturation","ishihara_plate","correct_response"
"true","false","[]","[]","[]","preload","0","909","0.0-0.0","73jxl7oasf","10","","","","","","","","","","","","","","","","",""
"","","","","","html-button-response","1","2407309","0.0-1.0","73jxl7oasf","10","1324210","Welcome to our experiment!<p>At the bottom of this screen, you will see a button that says ""Begin Experiment"".<br>Please only click that button when you are ready to complete the 25 minute experiment in one sitting.</p><p> Once you click that button, it will not be possible to restart the experiment.","0","","","","","","","","","","","","","",""
"true","","","","","fullscreen","2","2409745","0.0-2.0","73jxl7oasf","10","1432","","","","","","","","","","","","","","","",""
"","","","","","survey-multi-select","3","2439184","0.0-3.0","73jxl7oasf","10","29431","","{""Consent"":[""<strong>I consent</strong>""]}","[0]","","","","","","","","","","","","",""
"","","","","","html-button-response","4","2444678","0.0-4.0","73jxl7oasf","10","5493","Welcome! <p> This experiment involves two parts: demographic information, followed by the experimental task.<p> It will take about 25 minutes to complete both parts.","0","","","","","","","","","","","","","",""
"","","","","","survey-text","5","2499063","0.0-5.0","73jxl7oasf","10","54378","","{""Age"":""19"",""Gender"":""Male"",""Race/ethnicity"":""Caucasian/African-American"",""Languages"":""English, Spanish""}","","","","","","","","","","","","","",""
"","","","","","html-slider-response","6","2706214","0.0-6.0","73jxl7oasf","10","207149","
                            <div style='text-align:left; font-size:20px; line-height:25px; width: 1400px;'>
                                During this experiment you will be asked to rate how much you associate maps with                    different concepts.<br> Below, you can see some examples of the maps you will be asked to rate. Next to the maps
                    is the list of concepts.<br>You will be asked                    to rate how much you associate each map with each concept on a scale from 'not at all' to 'very much' like the
                    one below. <br><br>
                    Now, please look at the list of concepts and maps. For each concept, think about the map you associate 'very
                    much' with the concept.<br>                     When you see that map during the experiment, please rate it near the 'very much' endpoint of the
                    scale.<br>Now, please think about which map you associate 'not at all'                     with each concept. When you see that map during the experiment, please rate it near the 'not at all' endpoint
                    of the scale.<br>
                    Please use the full range of the scale. That is, if a map is somewhat associated with the concept, you would
                    click partway between the middle point and right side of the scale.                    You will be asked to rate each map for a given concept before moving on to the next concept.<br><br>Press the
                    'Continue' button for instructions on how to use the slider.                    <br><br>
                </div>

                <div style=""width: 500px; margin: 0 auto;"">
                    <!-- Centered text paragraphs -->
                    <div style=""text-align: center; width: 500px;"">
                        <p style=""font-size:25px; line-height:18px;"">calm</p>
                        <p style=""font-size:25px; line-height:18px;"">exciting</p>
                        <p style=""font-size:25px;line-height:18px;"">positive</p>
                        <p style=""font-size:25px;line-height:18px;"">negative</p>
                        <p style=""font-size:25px;line-height:18px;"">serious</p>
                        <p style=""font-size:25px;line-height:18px;"">playful</p>
                        <p style=""font-size:25px;line-height:18px;"">trustworthy</p>
                        <p style=""font-size:25px;line-height:18px;"">disturbing</p>
                    </div>

                    <!-- Grid section -->
                   <div style=""display: flex; justify-content: center; padding-top: 15px;"">
                    <div style=""display: grid; grid-template-columns: repeat(8, 80px); grid-gap: 5px; width: auto;"">
                        <img src=""images/R_L_S_28.png"" alt=""map"" style=""width: 100%;""><img src=""images/G_L_U_44.png"" alt=""map"" style=""width: 100%;""><img src=""images/G_D_S_02.png"" alt=""map"" style=""width: 100%;""><img src=""images/G_D_U_05.png"" alt=""map"" style=""width: 100%;""><img src=""images/R_D_U_37.png"" alt=""map"" style=""width: 100%;""><img src=""images/B_L_S_07.png"" alt=""map"" style=""width: 100%;""><img src=""images/R_D_S_33.png"" alt=""map"" style=""width: 100%;""><img src=""images/Y_L_S_15.png"" alt=""map"" style=""width: 100%;""><img src=""images/Y_L_U_23.png"" alt=""map"" style=""width: 100%;""><img src=""images/B_D_S_12.png"" alt=""map"" style=""width: 100%;""><img src=""images/B_D_U_13.png"" alt=""map"" style=""width: 100%;""><img src=""images/Y_D_S_26.png"" alt=""map"" style=""width: 100%;""><img src=""images/Y_D_U_27.png"" alt=""map"" style=""width: 100%;""><img src=""images/G_L_S_41.png"" alt=""map"" style=""width: 100%;""><img src=""images/B_L_U_10.png"" alt=""map"" style=""width: 100%;""><img src=""images/R_L_U_30.png"" alt=""map"" style=""width: 100%;"">
                    </div>
                </div>

                    <!-- Clear floats -->
                    <div style=""clear: both;""></div>
                </div>
                            ","null","","0","maps_anchoring.png","true","","","","","","","","","",""
"","","","","","html-button-response","7","2711667","0.0-7.0","73jxl7oasf","10","5453","<div style=""width:800px;""><p style=""text-align:left"">To move the slider, click and drag your cursor to the location of the scale where you would like to make your rating and then let go. When you let go of the slider, your response will be recorded and the next trial will begin. <br>
                    We are interested in your initial impressions of each map for the given concept, so please go with your first intuition. <br>
                    Before you begin the experiment, there will be four training trials for you to practice using the scale. <br>
                     When you are ready to start the training trials, please click ""Continue"".</p><br></div>","0","","","","","","","","","","","","","",""
"","","","","","html-slider-response","8","2715747","0.0-8.0-0.0","73jxl7oasf","10","NaN","<div style=""width:500px;"">
                                    <p style=""font-size:25px;"">Please move the slider all the way to the <br> right endpoint of the scale</p>

                                    </div>
                                </div>","200","","0","","true","0","true","","","","","","","",""
"","","","","","html-button-response","9","2717079","0.0-8.0-1.0","73jxl7oasf","10","831","<p align='center'><b>Good job!</b> Click on 'Continue' to proceed.</p>","0","","","","","","","","","","","","","",""
"","","","","","html-slider-response","10","2718619","0.0-9.0-0.0","73jxl7oasf","10","NaN","<div style=""width:500px;"">
                                    <p style=""font-size:25px;"">Please move the slider all the way to the <br> left endpoint of the scale</p>

                                    </div>
                                </div>","-200","","0","","true","1","true","","","","","","","",""
"","","","","","html-button-response","11","2719983","0.0-9.0-1.0","73jxl7oasf","10","864","<p align='center'><b>Good job!</b> Click on 'Continue' to proceed.</p>","0","","","","","","","","","","","","","",""
"","","","","","html-slider-response","12","2724913","0.0-10.0-0.0","73jxl7oasf","10","NaN","<div style=""width:500px;"">
                                    <p style=""font-size:25px;"">Please move the slider halfway between the center and right endpoint of the scale</p>

                                    </div>
                                </div>","108","","0","","true","2","true","","","","","","","",""
"","","","","","html-button-response","13","2726052","0.0-10.0-1.0","73jxl7oasf","10","637","<p align='center'><b>Good job!</b> Click on 'Continue' to proceed.</p>","0","","","","","","","","","","","","","",""
"","","","","","html-slider-response","14","2728692","0.0-11.0-0.0","73jxl7oasf","10","NaN","<div style=""width:500px;"">
                                    <p style=""font-size:25px;"">Please move the slider halfway between the center and left endpoint of the scale</p>

                                    </div>
                                </div>","-102","","0","","true","3","true","","","","","","","",""
"","","","","","html-button-response","15","2733772","0.0-11.0-1.0","73jxl7oasf","10","4578","<p align='center'><b>Good job!</b> Click on 'Continue' to proceed.</p>","0","","","","","","","","","","","","","",""
"","","","","","html-button-response","16","2735423","0.0-12.0","73jxl7oasf","10","1650","<p>Great job! You've completed the practice trials. Now you will begin the main task.</p>","0","","","","","","","","","","","","","",""
"","","","","","html-button-response","17","2738408","0.0-13.0","73jxl7oasf","10","2985","<p>In this block of trials, you will be asked to rate how much you associate each map with:</p > <p style = 'font-size:150%; font-weight: bold'>playful</p><br></br>","0","","","","","","","","","","","","","",""
"","","","","","html-slider-response","18","2746735","0.0-14.0","73jxl7oasf","10","NaN","<div style=""width:500px;"">
                            <p style=""font-size:50px; font-weight:bold;""
                            >playful</p>
                            <div style=""width:240px; margin: auto;"">
                                <img src=""images/B_D_S_12.png"" style= ""width:200px""alt=""img"">
                            </div>
                        </div>","-52","","0","images/B_D_S_12.png","","","","playful","1","12","B","D","S","",""
"","","","","","html-slider-response","19","2751983","0.0-15.0","73jxl7oasf","10","NaN","<div style=""width:500px;"">
                            <p style=""font-size:50px; font-weight:bold;""
                            >playful</p>
                            <div style=""width:240px; margin: auto;"">
                                <img src=""images/R_D_U_37.png"" style= ""width:200px""alt=""img"">
                            </div>
                        </div>","-164","","0","images/R_D_U_37.png","","","","playful","1","37","R","D","U","",""
"","","","","","html-slider-response","20","2754162","0.0-16.0","73jxl7oasf","10","NaN","<div style=""width:500px;"">
                            <p style=""font-size:50px; font-weight:bold;""
                            >playful</p>
                            <div style=""width:240px; margin: auto;"">
                                <img src=""images/G_D_U_05.png"" style= ""width:200px""alt=""img"">
                            </div>
                        </div>","42","","0","images/G_D_U_05.png","","","","playful","1","05","G","D","U","",""
"","","","","","html-slider-response","21","2756298","0.0-17.0","73jxl7oasf","10","NaN","<div style=""width:500px;"">
                            <p style=""font-size:50px; font-weight:bold;""
                            >playful</p>
                            <div style=""width:240px; margin: auto;"">
                                <img src=""images/G_L_S_41.png"" style= ""width:200px""alt=""img"">
                            </div>
                        </div>","170","","0","images/G_L_S_41.png","","","","playful","2","41","G","L","S","",""
"","","","","","html-slider-response","22","2758344","0.0-18.0","73jxl7oasf","10","NaN","<div style=""width:500px;"">
                            <p style=""font-size:50px; font-weight:bold;""
                            >playful</p>
                            <div style=""width:240px; margin: auto;"">
                                <img src=""images/R_L_U_30.png"" style= ""width:200px""alt=""img"">
                            </div>
                        </div>","39","","0","images/R_L_U_30.png","","","","playful","1","30","R","L","U","",""
"","","","","","html-slider-response","23","2761087","0.0-19.0","73jxl7oasf","10","NaN","<div style=""width:500px;"">
                            <p style=""font-size:50px; font-weight:bold;""
                            >playful</p>
                            <div style=""width:240px; margin: auto;"">
                                <img src=""images/G_D_U_05.png"" style= ""width:200px""alt=""img"">
                            </div>
                        </div>","-170","","0","images/G_D_U_05.png","","","","playful","2","05","G","D","U","",""
"","","","","","html-slider-response","24","2763441","0.0-20.0","73jxl7oasf","10","NaN","<div style=""width:500px;"">
                            <p style=""font-size:50px; font-weight:bold;""
                            >playful</p>
                            <div style=""width:240px; margin: auto;"">
                                <img src=""images/R_D_U_37.png"" style= ""width:200px""alt=""img"">
                            </div>
                        </div>","-45","","0","images/R_D_U_37.png","","","","playful","2","37","R","D","U","",""
"","","","","","html-slider-response","25","2766158","0.0-21.0","73jxl7oasf","10","NaN","<div style=""width:500px;"">
                            <p style=""font-size:50px; font-weight:bold;""
                            >playful</p>
                            <div style=""width:240px; margin: auto;"">
                                <img src=""images/R_L_S_28.png"" style= ""width:200px""alt=""img"">
                            </div>
                        </div>","189","","0","images/R_L_S_28.png","","","","playful","2","28","R","L","S","",""
"","","","","","html-slider-response","26","2768335","0.0-22.0","73jxl7oasf","10","NaN","<div style=""width:500px;"">
                            <p style=""font-size:50px; font-weight:bold;""
                            >playful</p>
                            <div style=""width:240px; margin: auto;"">
                                <img src=""images/Y_D_S_26.png"" style= ""width:200px""alt=""img"">
                            </div>
                        </div>","-4","","0","images/Y_D_S_26.png","","","","playful","2","26","Y","D","S","",""
"","","","","","html-slider-response","27","2771264","0.0-23.0","73jxl7oasf","10","NaN","<div style=""width:500px;"">
                            <p style=""font-size:50px; font-weight:bold;""
                            >playful</p>
                            <div style=""width:240px; margin: auto;"">
                                <img src=""images/G_D_S_02.png"" style= ""width:200px""alt=""img"">
                            </div>
                        </div>","50","","0","images/G_D_S_02.png","","","","playful","1","02","G","D","S","",""
"","","","","","html-slider-response","28","2773786","0.0-24.0","73jxl7oasf","10","NaN","<div style=""width:500px;"">
                            <p style=""font-size:50px; font-weight:bold;""
                            >playful</p>
                            <div style=""width:240px; margin: auto;"">
                                <img src=""images/B_D_U_13.png"" style= ""width:200px""alt=""img"">
                            </div>
                        </div>","-116","","0","images/B_D_U_13.png","","","","playful","2","13","B","D","U","",""
"","","","","","html-slider-response","29","2775899","0.0-25.0","73jxl7oasf","10","NaN","<div style=""width:500px;"">
                            <p style=""font-size:50px; font-weight:bold;""
                            >playful</p>
                            <div style=""width:240px; margin: auto;"">
                                <img src=""images/G_L_U_44.png"" style= ""width:200px""alt=""img"">
                            </div>
                        </div>","78","","0","images/G_L_U_44.png","","","","playful","2","44","G","L","U","",""
"","","","","","html-slider-response","30","2778069","0.0-26.0","73jxl7oasf","10","NaN","<div style=""width:500px;"">
                            <p style=""font-size:50px; font-weight:bold;""
                            >playful</p>
                            <div style=""width:240px; margin: auto;"">
                                <img src=""images/G_D_S_02.png"" style= ""width:200px""alt=""img"">
                            </div>
                        </div>","-90","","0","images/G_D_S_02.png","","","","playful","2","02","G","D","S","",""
"","","","","","html-slider-response","31","2780194","0.0-27.0","73jxl7oasf","10","NaN","<div style=""width:500px;"">
                            <p style=""font-size:50px; font-weight:bold;""
                            >playful</p>
                            <div style=""width:240px; margin: auto;"">
                                <img src=""images/R_L_U_30.png"" style= ""width:200px""alt=""img"">
                            </div>
                        </div>","21","","0","images/R_L_U_30.png","","","","playful","2","30","R","L","U","",""
"","","","","","html-slider-response","32","2782551","0.0-28.0","73jxl7oasf","10","NaN","<div style=""width:500px;"">
                            <p style=""font-size:50px; font-weight:bold;""
                            >playful</p>
                            <div style=""width:240px; margin: auto;"">
                                <img src=""images/B_L_S_07.png"" style= ""width:200px""alt=""img"">
                            </div>
                        </div>","191","","0","images/B_L_S_07.png","","","","playful","2","07","B","L","S","",""
"","","","","","html-slider-response","33","2786167","0.0-29.0","73jxl7oasf","10","NaN","<div style=""width:500px;"">
                            <p style=""font-size:50px; font-weight:bold;""
                            >playful</p>
                            <div style=""width:240px; margin: auto;"">
                                <img src=""images/G_L_S_41.png"" style= ""width:200px""alt=""img"">
                            </div>
                        </div>","74","","0","images/G_L_S_41.png","","","","playful","1","41","G","L","S","",""
"","","","","","html-slider-response","34","2788400","0.0-30.0","73jxl7oasf","10","NaN","<div style=""width:500px;"">
                            <p style=""font-size:50px; font-weight:bold;""
                            >playful</p>
                            <div style=""width:240px; margin: auto;"">
                                <img src=""images/Y_L_U_23.png"" style= ""width:200px""alt=""img"">
                            </div>
                        </div>","-10","","0","images/Y_L_U_23.png","","","","playful","1","23","Y","L","U","",""
"","","","","","html-slider-response","35","2790713","0.0-31.0","73jxl7oasf","10","NaN","<div style=""width:500px;"">
                            <p style=""font-size:50px; font-weight:bold;""
                            >playful</p>
                            <div style=""width:240px; margin: auto;"">
                                <img src=""images/B_L_U_10.png"" style= ""width:200px""alt=""img"">
                            </div>
                        </div>","99","","0","images/B_L_U_10.png","","","","playful","2","10","B","L","U","",""
"","","","","","html-slider-response","36","2793238","0.0-32.0","73jxl7oasf","10","NaN","<div style=""width:500px;"">
                            <p style=""font-size:50px; font-weight:bold;""
                            >playful</p>
                            <div style=""width:240px; margin: auto;"">
                                <img src=""images/Y_L_U_23.png"" style= ""width:200px""alt=""img"">
                            </div>
                        </div>","-54","","0","images/Y_L_U_23.png","","","","playful","2","23","Y","L","U","",""
"","","","","","html-slider-response","37","2795964","0.0-33.0","73jxl7oasf","10","NaN","<div style=""width:500px;"">
                            <p style=""font-size:50px; font-weight:bold;""
                            >playful</p>
                            <div style=""width:240px; margin: auto;"">
                                <img src=""images/B_L_S_07.png"" style= ""width:200px""alt=""img"">
                            </div>
                        </div>","147","","0","images/B_L_S_07.png","","","","playful","1","07","B","L","S","",""
"","","","","","html-slider-response","38","2798043","0.0-34.0","73jxl7oasf","10","NaN","<div style=""width:500px;"">
                            <p style=""font-size:50px; font-weight:bold;""
                            >playful</p>
                            <div style=""width:240px; margin: auto;"">
                                <img src=""images/Y_D_S_26.png"" style= ""width:200px""alt=""img"">
                            </div>
                        </div>","-200","","0","images/Y_D_S_26.png","","","","playful","1","26","Y","D","S","",""
"","","","","","html-slider-response","39","2800463","0.0-35.0","73jxl7oasf","10","NaN","<div style=""width:500px;"">
                            <p style=""font-size:50px; font-weight:bold;""
                            >playful</p>
                            <div style=""width:240px; margin: auto;"">
                                <img src=""images/R_D_S_33.png"" style= ""width:200px""alt=""img"">
                            </div>
                        </div>","-200","","0","images/R_D_S_33.png","","","","playful","1","33","R","D","S","",""
"","","","","","html-slider-response","40","2802502","0.0-36.0","73jxl7oasf","10","NaN","<div style=""width:500px;"">
                            <p style=""font-size:50px; font-weight:bold;""
                            >playful</p>
                            <div style=""width:240px; margin: auto;"">
                                <img src=""images/R_D_S_33.png"" style= ""width:200px""alt=""img"">
                            </div>
                        </div>","-44","","0","images/R_D_S_33.png","","","","playful","2","33","R","D","S","",""
"","","","","","html-slider-response","41","2804864","0.0-37.0","73jxl7oasf","10","NaN","<div style=""width:500px;"">
                            <p style=""font-size:50px; font-weight:bold;""
                            >playful</p>
                            <div style=""width:240px; margin: auto;"">
                                <img src=""images/G_L_U_44.png"" style= ""width:200px""alt=""img"">
                            </div>
                        </div>","94","","0","images/G_L_U_44.png","","","","playful","1","44","G","L","U","",""
"","","","","","html-slider-response","42","2807697","0.0-38.0","73jxl7oasf","10","NaN","<div style=""width:500px;"">
                            <p style=""font-size:50px; font-weight:bold;""
                            >playful</p>
                            <div style=""width:240px; margin: auto;"">
                                <img src=""images/Y_D_U_27.png"" style= ""width:200px""alt=""img"">
                            </div>
                        </div>","-147","","0","images/Y_D_U_27.png","","","","playful","2","27","Y","D","U","",""
"","","","","","html-slider-response","43","2810599","0.0-39.0","73jxl7oasf","10","NaN","<div style=""width:500px;"">
                            <p style=""font-size:50px; font-weight:bold;""
                            >playful</p>
                            <div style=""width:240px; margin: auto;"">
                                <img src=""images/Y_L_S_15.png"" style= ""width:200px""alt=""img"">
                            </div>
                        </div>","20","","0","images/Y_L_S_15.png","","","","playful","1","15","Y","L","S","",""
"","","","","","html-slider-response","44","2813197","0.0-40.0","73jxl7oasf","10","NaN","<div style=""width:500px;"">
                            <p style=""font-size:50px; font-weight:bold;""
                            >playful</p>
                            <div style=""width:240px; margin: auto;"">
                                <img src=""images/Y_L_S_15.png"" style= ""width:200px""alt=""img"">
                            </div>
                        </div>","-15","","0","images/Y_L_S_15.png","","","","playful","2","15","Y","L","S","",""
"","","","","","html-slider-response","45","2815042","0.0-41.0","73jxl7oasf","10","NaN","<div style=""width:500px;"">
                            <p style=""font-size:50px; font-weight:bold;""
                            >playful</p>
                            <div style=""width:240px; margin: auto;"">
                                <img src=""images/B_D_S_12.png"" style= ""width:200px""alt=""img"">
                            </div>
                        </div>","59","","0","images/B_D_S_12.png","","","","playful","2","12","B","D","S","",""
"","","","","","html-slider-response","46","2817769","0.0-42.0","73jxl7oasf","10","NaN","<div style=""width:500px;"">
                            <p style=""font-size:50px; font-weight:bold;""
                            >playful</p>
                            <div style=""width:240px; margin: auto;"">
                                <img src=""images/B_L_U_10.png"" style= ""width:200px""alt=""img"">
                            </div>
                        </div>","90","","0","images/B_L_U_10.png","","","","playful","1","10","B","L","U","",""
"","","","","","html-slider-response","47","2820754","0.0-43.0","73jxl7oasf","10","NaN","<div style=""width:500px;"">
                            <p style=""font-size:50px; font-weight:bold;""
                            >playful</p>
                            <div style=""width:240px; margin: auto;"">
                                <img src=""images/B_D_U_13.png"" style= ""width:200px""alt=""img"">
                            </div>
                        </div>","26","","0","images/B_D_U_13.png","","","","playful","1","13","B","D","U","",""
"","","","","","html-slider-response","48","2822997","0.0-44.0","73jxl7oasf","10","NaN","<div style=""width:500px;"">
                            <p style=""font-size:50px; font-weight:bold;""
                            >playful</p>
                            <div style=""width:240px; margin: auto;"">
                                <img src=""images/R_L_S_28.png"" style= ""width:200px""alt=""img"">
                            </div>
                        </div>","100","","0","images/R_L_S_28.png","","","","playful","1","28","R","L","S","",""
"","","","","","html-slider-response","49","2827252","0.0-45.0","73jxl7oasf","10","NaN","<div style=""width:500px;"">
                            <p style=""font-size:50px; font-weight:bold;""
                            >playful</p>
                            <div style=""width:240px; margin: auto;"">
                                <img src=""images/Y_D_U_27.png"" style= ""width:200px""alt=""img"">
                            </div>
                        </div>","-104","","0","images/Y_D_U_27.png","","","","playful","1","27","Y","D","U","",""
"","","","","","html-button-response","50","2833568","0.0-46.0","73jxl7oasf","10","5813","<p>Great Job! You've finished block 1.<br></br> You have 7 block(s) left to go.<br></br></p>","0","","","","","","","","","","","","","",""
"","","","","","html-button-response","51","2834490","0.0-47.0","73jxl7oasf","10","921","<p>In this block of trials, you will be asked to rate how much you associate each map with:</p > <p style = 'font-size:150%; font-weight: bold'>calm</p><br></br>","0","","","","","","","","","","","","","",""
"","","","","","html-slider-response","52","2836232","0.0-48.0","73jxl7oasf","10","NaN","<div style=""width:500px;"">
                            <p style=""font-size:50px; font-weight:bold;""
                            >calm</p>
                            <div style=""width:240px; margin: auto;"">
                                <img src=""images/R_L_S_28.png"" style= ""width:200px""alt=""img"">
                            </div>
                        </div>","72","","0","images/R_L_S_28.png","","","","calm","2","28","R","L","S","",""
"","","","","","html-slider-response","53","2838408","0.0-49.0","73jxl7oasf","10","NaN","<div style=""width:500px;"">
                            <p style=""font-size:50px; font-weight:bold;""
                            >calm</p>
                            <div style=""width:240px; margin: auto;"">
                                <img src=""images/R_D_S_33.png"" style= ""width:200px""alt=""img"">
                            </div>
                        </div>","-162","","0","images/R_D_S_33.png","","","","calm","2","33","R","D","S","",""
"","","","","","html-slider-response","54","2840342","0.0-50.0","73jxl7oasf","10","NaN","<div style=""width:500px;"">
                            <p style=""font-size:50px; font-weight:bold;""
                            >calm</p>
                            <div style=""width:240px; margin: auto;"">
                                <img src=""images/G_L_S_41.png"" style= ""width:200px""alt=""img"">
                            </div>
                        </div>","134","","0","images/G_L_S_41.png","","","","calm","2","41","G","L","S","",""
"","","","","","html-slider-response","55","2855492","0.0-51.0","73jxl7oasf","10","NaN","<div style=""width:500px;"">
                            <p style=""font-size:50px; font-weight:bold;""
                            >calm</p>
                            <div style=""width:240px; margin: auto;"">
                                <img src=""images/B_D_U_13.png"" style= ""width:200px""alt=""img"">
                            </div>
                        </div>","63","","0","images/B_D_U_13.png","","","","calm","1","13","B","D","U","",""
"","","","","","html-slider-response","56","2857434","0.0-52.0","73jxl7oasf","10","NaN","<div style=""width:500px;"">
                            <p style=""font-size:50px; font-weight:bold;""
                            >calm</p>
                            <div style=""width:240px; margin: auto;"">
                                <img src=""images/Y_D_U_27.png"" style= ""width:200px""alt=""img"">
                            </div>
                        </div>","-156","","0","images/Y_D_U_27.png","","","","calm","1","27","Y","D","U","",""
"","","","","","html-slider-response","57","2860152","0.0-53.0","73jxl7oasf","10","NaN","<div style=""width:500px;"">
                            <p style=""font-size:50px; font-weight:bold;""
                            >calm</p>
                            <div style=""width:240px; margin: auto;"">
                                <img src=""images/G_L_S_41.png"" style= ""width:200px""alt=""img"">
                            </div>
                        </div>","200","","0","images/G_L_S_41.png","","","","calm","1","41","G","L","S","",""
"","","","","","html-slider-response","58","2863623","0.0-54.0","73jxl7oasf","10","NaN","<div style=""width:500px;"">
                            <p style=""font-size:50px; font-weight:bold;""
                            >calm</p>
                            <div style=""width:240px; margin: auto;"">
                                <img src=""images/G_D_U_05.png"" style= ""width:200px""alt=""img"">
                            </div>
                        </div>","-73","","0","images/G_D_U_05.png","","","","calm","1","05","G","D","U","",""
"","","","","","html-slider-response","59","2892512","0.0-55.0","73jxl7oasf","10","NaN","<div style=""width:500px;"">
                            <p style=""font-size:50px; font-weight:bold;""
                            >calm</p>
                            <div style=""width:240px; margin: auto;"">
                                <img src=""images/Y_L_S_15.png"" style= ""width:200px""alt=""img"">
                            </div>
                        </div>","-80","","0","images/Y_L_S_15.png","","","","calm","2","15","Y","L","S","",""
"","","","","","html-slider-response","60","2894706","0.0-56.0","73jxl7oasf","10","NaN","<div style=""width:500px;"">
                            <p style=""font-size:50px; font-weight:bold;""
                            >calm</p>
                            <div style=""width:240px; margin: auto;"">
                                <img src=""images/Y_D_U_27.png"" style= ""width:200px""alt=""img"">
                            </div>
                        </div>","-186","","0","images/Y_D_U_27.png","","","","calm","2","27","Y","D","U","",""
"","","","","","html-slider-response","61","2896761","0.0-57.0","73jxl7oasf","10","NaN","<div style=""width:500px;"">
                            <p style=""font-size:50px; font-weight:bold;""
                            >calm</p>
                            <div style=""width:240px; margin: auto;"">
                                <img src=""images/R_D_S_33.png"" style= ""width:200px""alt=""img"">
                            </div>
                        </div>","-39","","0","images/R_D_S_33.png","","","","calm","1","33","R","D","S","",""
"","","","","","html-slider-response","62","2898992","0.0-58.0","73jxl7oasf","10","NaN","<div style=""width:500px;"">
                            <p style=""font-size:50px; font-weight:bold;""
                            >calm</p>
                            <div style=""width:240px; margin: auto;"">
                                <img src=""images/R_L_U_30.png"" style= ""width:200px""alt=""img"">
                            </div>
                        </div>","75","","0","images/R_L_U_30.png","","","","calm","1","30","R","L","U","",""
"","","","","","html-slider-response","63","2902245","0.0-59.0","73jxl7oasf","10","NaN","<div style=""width:500px;"">
                            <p style=""font-size:50px; font-weight:bold;""
                            >calm</p>
                            <div style=""width:240px; margin: auto;"">
                                <img src=""images/R_L_S_28.png"" style= ""width:200px""alt=""img"">
                            </div>
                        </div>","63","","0","images/R_L_S_28.png","","","","calm","1","28","R","L","S","",""
"","","","","","html-slider-response","64","2905587","0.0-60.0","73jxl7oasf","10","NaN","<div style=""width:500px;"">
                            <p style=""font-size:50px; font-weight:bold;""
                            >calm</p>
                            <div style=""width:240px; margin: auto;"">
                                <img src=""images/B_L_S_07.png"" style= ""width:200px""alt=""img"">
                            </div>
                        </div>","182","","0","images/B_L_S_07.png","","","","calm","1","07","B","L","S","",""
"","","","","","html-slider-response","65","2908573","0.0-61.0","73jxl7oasf","10","NaN","<div style=""width:500px;"">
                            <p style=""font-size:50px; font-weight:bold;""
                            >calm</p>
                            <div style=""width:240px; margin: auto;"">
                                <img src=""images/R_D_U_37.png"" style= ""width:200px""alt=""img"">
                            </div>
                        </div>","-200","","0","images/R_D_U_37.png","","","","calm","1","37","R","D","U","",""
"","","","","","html-slider-response","66","2911331","0.0-62.0","73jxl7oasf","10","NaN","<div style=""width:500px;"">
                            <p style=""font-size:50px; font-weight:bold;""
                            >calm</p>
                            <div style=""width:240px; margin: auto;"">
                                <img src=""images/Y_D_S_26.png"" style= ""width:200px""alt=""img"">
                            </div>
                        </div>","-156","","0","images/Y_D_S_26.png","","","","calm","1","26","Y","D","S","",""
"","","","","","html-slider-response","67","2913331","0.0-63.0","73jxl7oasf","10","NaN","<div style=""width:500px;"">
                            <p style=""font-size:50px; font-weight:bold;""
                            >calm</p>
                            <div style=""width:240px; margin: auto;"">
                                <img src=""images/Y_L_U_23.png"" style= ""width:200px""alt=""img"">
                            </div>
                        </div>","30","","0","images/Y_L_U_23.png","","","","calm","2","23","Y","L","U","",""
"","","","","","html-slider-response","68","2916121","0.0-64.0","73jxl7oasf","10","NaN","<div style=""width:500px;"">
                            <p style=""font-size:50px; font-weight:bold;""
                            >calm</p>
                            <div style=""width:240px; margin: auto;"">
                                <img src=""images/Y_D_S_26.png"" style= ""width:200px""alt=""img"">
                            </div>
                        </div>","-191","","0","images/Y_D_S_26.png","","","","calm","2","26","Y","D","S","",""
"","","","","","html-slider-response","69","2919602","0.0-65.0","73jxl7oasf","10","NaN","<div style=""width:500px;"">
                            <p style=""font-size:50px; font-weight:bold;""
                            >calm</p>
                            <div style=""width:240px; margin: auto;"">
                                <img src=""images/Y_L_U_23.png"" style= ""width:200px""alt=""img"">
                            </div>
                        </div>","31","","0","images/Y_L_U_23.png","","","","calm","1","23","Y","L","U","",""
"","","","","","html-slider-response","70","2922068","0.0-66.0","73jxl7oasf","10","NaN","<div style=""width:500px;"">
                            <p style=""font-size:50px; font-weight:bold;""
                            >calm</p>
                            <div style=""width:240px; margin: auto;"">
                                <img src=""images/B_D_S_12.png"" style= ""width:200px""alt=""img"">
                            </div>
                        </div>","186","","0","images/B_D_S_12.png","","","","calm","2","12","B","D","S","",""
"","","","","","html-slider-response","71","2924253","0.0-67.0","73jxl7oasf","10","NaN","<div style=""width:500px;"">
                            <p style=""font-size:50px; font-weight:bold;""
                            >calm</p>
                            <div style=""width:240px; margin: auto;"">
                                <img src=""images/R_L_U_30.png"" style= ""width:200px""alt=""img"">
                            </div>
                        </div>","-64","","0","images/R_L_U_30.png","","","","calm","2","30","R","L","U","",""
"","","","","","html-slider-response","72","2926404","0.0-68.0","73jxl7oasf","10","NaN","<div style=""width:500px;"">
                            <p style=""font-size:50px; font-weight:bold;""
                            >calm</p>
                            <div style=""width:240px; margin: auto;"">
                                <img src=""images/B_L_U_10.png"" style= ""width:200px""alt=""img"">
                            </div>
                        </div>","74","","0","images/B_L_U_10.png","","","","calm","2","10","B","L","U","",""
"","","","","","html-slider-response","73","2929082","0.0-69.0","73jxl7oasf","10","NaN","<div style=""width:500px;"">
                            <p style=""font-size:50px; font-weight:bold;""
                            >calm</p>
                            <div style=""width:240px; margin: auto;"">
                                <img src=""images/Y_L_S_15.png"" style= ""width:200px""alt=""img"">
                            </div>
                        </div>","33","","0","images/Y_L_S_15.png","","","","calm","1","15","Y","L","S","",""
"","","","","","html-slider-response","74","2930978","0.0-70.0","73jxl7oasf","10","NaN","<div style=""width:500px;"">
                            <p style=""font-size:50px; font-weight:bold;""
                            >calm</p>
                            <div style=""width:240px; margin: auto;"">
                                <img src=""images/R_D_U_37.png"" style= ""width:200px""alt=""img"">
                            </div>
                        </div>","-105","","0","images/R_D_U_37.png","","","","calm","2","37","R","D","U","",""
"","","","","","html-slider-response","75","2932933","0.0-71.0","73jxl7oasf","10","NaN","<div style=""width:500px;"">
                            <p style=""font-size:50px; font-weight:bold;""
                            >calm</p>
                            <div style=""width:240px; margin: auto;"">
                                <img src=""images/G_L_U_44.png"" style= ""width:200px""alt=""img"">
                            </div>
                        </div>","76","","0","images/G_L_U_44.png","","","","calm","1","44","G","L","U","",""
"","","","","","html-slider-response","76","2936324","0.0-72.0","73jxl7oasf","10","NaN","<div style=""width:500px;"">
                            <p style=""font-size:50px; font-weight:bold;""
                            >calm</p>
                            <div style=""width:240px; margin: auto;"">
                                <img src=""images/G_D_S_02.png"" style= ""width:200px""alt=""img"">
                            </div>
                        </div>","56","","0","images/G_D_S_02.png","","","","calm","1","02","G","D","S","",""
"","","","","","html-slider-response","77","2938534","0.0-73.0","73jxl7oasf","10","NaN","<div style=""width:500px;"">
                            <p style=""font-size:50px; font-weight:bold;""
                            >calm</p>
                            <div style=""width:240px; margin: auto;"">
                                <img src=""images/G_L_U_44.png"" style= ""width:200px""alt=""img"">
                            </div>
                        </div>","138","","0","images/G_L_U_44.png","","","","calm","2","44","G","L","U","",""
"","","","","","html-slider-response","78","2940864","0.0-74.0","73jxl7oasf","10","NaN","<div style=""width:500px;"">
                            <p style=""font-size:50px; font-weight:bold;""
                            >calm</p>
                            <div style=""width:240px; margin: auto;"">
                                <img src=""images/B_L_S_07.png"" style= ""width:200px""alt=""img"">
                            </div>
                        </div>","200","","0","images/B_L_S_07.png","","","","calm","2","07","B","L","S","",""
"","","","","","html-slider-response","79","2943388","0.0-75.0","73jxl7oasf","10","NaN","<div style=""width:500px;"">
                            <p style=""font-size:50px; font-weight:bold;""
                            >calm</p>
                            <div style=""width:240px; margin: auto;"">
                                <img src=""images/G_D_U_05.png"" style= ""width:200px""alt=""img"">
                            </div>
                        </div>","-25","","0","images/G_D_U_05.png","","","","calm","2","05","G","D","U","",""
"","","","","","html-slider-response","80","2945282","0.0-76.0","73jxl7oasf","10","NaN","<div style=""width:500px;"">
                            <p style=""font-size:50px; font-weight:bold;""
                            >calm</p>
                            <div style=""width:240px; margin: auto;"">
                                <img src=""images/B_L_U_10.png"" style= ""width:200px""alt=""img"">
                            </div>
                        </div>","136","","0","images/B_L_U_10.png","","","","calm","1","10","B","L","U","",""
"","","","","","html-slider-response","81","2947061","0.0-77.0","73jxl7oasf","10","NaN","<div style=""width:500px;"">
                            <p style=""font-size:50px; font-weight:bold;""
                            >calm</p>
                            <div style=""width:240px; margin: auto;"">
                                <img src=""images/B_D_S_12.png"" style= ""width:200px""alt=""img"">
                            </div>
                        </div>","18","","0","images/B_D_S_12.png","","","","calm","1","12","B","D","S","",""
"","","","","","html-slider-response","82","2949214","0.0-78.0","73jxl7oasf","10","NaN","<div style=""width:500px;"">
                            <p style=""font-size:50px; font-weight:bold;""
                            >calm</p>
                            <div style=""width:240px; margin: auto;"">
                                <img src=""images/B_D_U_13.png"" style= ""width:200px""alt=""img"">
                            </div>
                        </div>","-27","","0","images/B_D_U_13.png","","","","calm","2","13","B","D","U","",""
"","","","","","html-slider-response","83","2951365","0.0-79.0","73jxl7oasf","10","NaN","<div style=""width:500px;"">
                            <p style=""font-size:50px; font-weight:bold;""
                            >calm</p>
                            <div style=""width:240px; margin: auto;"">
                                <img src=""images/G_D_S_02.png"" style= ""width:200px""alt=""img"">
                            </div>
                        </div>","-78","","0","images/G_D_S_02.png","","","","calm","2","02","G","D","S","",""
"","","","","","html-button-response","84","2954332","0.0-80.0","73jxl7oasf","10","2465","<p>Great Job! You've finished block 2.<br></br> You have 6 block(s) left to go.<br></br></p>","0","","","","","","","","","","","","","",""
"","","","","","html-button-response","85","2955408","0.0-81.0","73jxl7oasf","10","1075","<p>In this block of trials, you will be asked to rate how much you associate each map with:</p > <p style = 'font-size:150%; font-weight: bold'>negative</p><br></br>","0","","","","","","","","","","","","","",""
"","","","","","html-slider-response","86","2957646","0.0-82.0","73jxl7oasf","10","NaN","<div style=""width:500px;"">
                            <p style=""font-size:50px; font-weight:bold;""
                            >negative</p>
                            <div style=""width:240px; margin: auto;"">
                                <img src=""images/R_D_S_33.png"" style= ""width:200px""alt=""img"">
                            </div>
                        </div>","-142","","0","images/R_D_S_33.png","","","","negative","2","33","R","D","S","",""
"","","","","","html-slider-response","87","2959675","0.0-83.0","73jxl7oasf","10","NaN","<div style=""width:500px;"">
                            <p style=""font-size:50px; font-weight:bold;""
                            >negative</p>
                            <div style=""width:240px; margin: auto;"">
                                <img src=""images/R_D_U_37.png"" style= ""width:200px""alt=""img"">
                            </div>
                        </div>","-133","","0","images/R_D_U_37.png","","","","negative","2","37","R","D","U","",""
"","","","","","html-slider-response","88","2963543","0.0-84.0","73jxl7oasf","10","NaN","<div style=""width:500px;"">
                            <p style=""font-size:50px; font-weight:bold;""
                            >negative</p>
                            <div style=""width:240px; margin: auto;"">
                                <img src=""images/G_D_U_05.png"" style= ""width:200px""alt=""img"">
                            </div>
                        </div>","34","","0","images/G_D_U_05.png","","","","negative","1","05","G","D","U","",""
"","","","","","html-slider-response","89","2965364","0.0-85.0","73jxl7oasf","10","NaN","<div style=""width:500px;"">
                            <p style=""font-size:50px; font-weight:bold;""
                            >negative</p>
                            <div style=""width:240px; margin: auto;"">
                                <img src=""images/R_L_U_30.png"" style= ""width:200px""alt=""img"">
                            </div>
                        </div>","-36","","0","images/R_L_U_30.png","","","","negative","2","30","R","L","U","",""
"","","","","","html-slider-response","90","2967831","0.0-86.0","73jxl7oasf","10","NaN","<div style=""width:500px;"">
                            <p style=""font-size:50px; font-weight:bold;""
                            >negative</p>
                            <div style=""width:240px; margin: auto;"">
                                <img src=""images/G_D_S_02.png"" style= ""width:200px""alt=""img"">
                            </div>
                        </div>","91","","0","images/G_D_S_02.png","","","","negative","1","02","G","D","S","",""
"","","","","","html-slider-response","91","2970615","0.0-87.0","73jxl7oasf","10","NaN","<div style=""width:500px;"">
                            <p style=""font-size:50px; font-weight:bold;""
                            >negative</p>
                            <div style=""width:240px; margin: auto;"">
                                <img src=""images/R_L_S_28.png"" style= ""width:200px""alt=""img"">
                            </div>
                        </div>","-124","","0","images/R_L_S_28.png","","","","negative","2","28","R","L","S","",""
"","","","","","html-slider-response","92","2973316","0.0-88.0","73jxl7oasf","10","NaN","<div style=""width:500px;"">
                            <p style=""font-size:50px; font-weight:bold;""
                            >negative</p>
                            <div style=""width:240px; margin: auto;"">
                                <img src=""images/B_L_U_10.png"" style= ""width:200px""alt=""img"">
                            </div>
                        </div>","82","","0","images/B_L_U_10.png","","","","negative","2","10","B","L","U","",""
"","","","","","html-slider-response","93","2975808","0.0-89.0","73jxl7oasf","10","NaN","<div style=""width:500px;"">
                            <p style=""font-size:50px; font-weight:bold;""
                            >negative</p>
                            <div style=""width:240px; margin: auto;"">
                                <img src=""images/B_D_S_12.png"" style= ""width:200px""alt=""img"">
                            </div>
                        </div>","111","","0","images/B_D_S_12.png","","","","negative","1","12","B","D","S","",""
"","","","","","html-slider-response","94","2978219","0.0-90.0","73jxl7oasf","10","NaN","<div style=""width:500px;"">
                            <p style=""font-size:50px; font-weight:bold;""
                            >negative</p>
                            <div style=""width:240px; margin: auto;"">
                                <img src=""images/G_D_U_05.png"" style= ""width:200px""alt=""img"">
                            </div>
                        </div>","-28","","0","images/G_D_U_05.png","","","","negative","2","05","G","D","U","",""
"","","","","","html-slider-response","95","2980293","0.0-91.0","73jxl7oasf","10","NaN","<div style=""width:500px;"">
                            <p style=""font-size:50px; font-weight:bold;""
                            >negative</p>
                            <div style=""width:240px; margin: auto;"">
                                <img src=""images/G_L_S_41.png"" style= ""width:200px""alt=""img"">
                            </div>
                        </div>","65","","0","images/G_L_S_41.png","","","","negative","2","41","G","L","S","",""
"","","","","","html-slider-response","96","2982394","0.0-92.0","73jxl7oasf","10","NaN","<div style=""width:500px;"">
                            <p style=""font-size:50px; font-weight:bold;""
                            >negative</p>
                            <div style=""width:240px; margin: auto;"">
                                <img src=""images/R_L_S_28.png"" style= ""width:200px""alt=""img"">
                            </div>
                        </div>","-123","","0","images/R_L_S_28.png","","","","negative","1","28","R","L","S","",""
"","","","","","html-slider-response","97","2984604","0.0-93.0","73jxl7oasf","10","NaN","<div style=""width:500px;"">
                            <p style=""font-size:50px; font-weight:bold;""
                            >negative</p>
                            <div style=""width:240px; margin: auto;"">
                                <img src=""images/Y_L_U_23.png"" style= ""width:200px""alt=""img"">
                            </div>
                        </div>","60","","0","images/Y_L_U_23.png","","","","negative","2","23","Y","L","U","",""
"","","","","","html-slider-response","98","2987064","0.0-94.0","73jxl7oasf","10","NaN","<div style=""width:500px;"">
                            <p style=""font-size:50px; font-weight:bold;""
                            >negative</p>
                            <div style=""width:240px; margin: auto;"">
                                <img src=""images/B_L_S_07.png"" style= ""width:200px""alt=""img"">
                            </div>
                        </div>","129","","0","images/B_L_S_07.png","","","","negative","2","07","B","L","S","",""
"","","","","","html-slider-response","99","2988820","0.0-95.0","73jxl7oasf","10","NaN","<div style=""width:500px;"">
                            <p style=""font-size:50px; font-weight:bold;""
                            >negative</p>
                            <div style=""width:240px; margin: auto;"">
                                <img src=""images/G_L_U_44.png"" style= ""width:200px""alt=""img"">
                            </div>
                        </div>","48","","0","images/G_L_U_44.png","","","","negative","1","44","G","L","U","",""
"","","","","","html-slider-response","100","2991741","0.0-96.0","73jxl7oasf","10","NaN","<div style=""width:500px;"">
                            <p style=""font-size:50px; font-weight:bold;""
                            >negative</p>
                            <div style=""width:240px; margin: auto;"">
                                <img src=""images/B_D_U_13.png"" style= ""width:200px""alt=""img"">
                            </div>
                        </div>","52","","0","images/B_D_U_13.png","","","","negative","1","13","B","D","U","",""
"","","","","","html-slider-response","101","2992256","0.0-97.0","73jxl7oasf","10","NaN","<div style=""width:500px;"">
                            <p style=""font-size:50px; font-weight:bold;""
                            >negative</p>
                            <div style=""width:240px; margin: auto;"">
                                <img src=""images/R_D_U_37.png"" style= ""width:200px""alt=""img"">
                            </div>
                        </div>","52","","0","images/R_D_U_37.png","","","","negative","1","37","R","D","U","",""
"","","","","","html-slider-response","102","2995631","0.0-98.0","73jxl7oasf","10","NaN","<div style=""width:500px;"">
                            <p style=""font-size:50px; font-weight:bold;""
                            >negative</p>
                            <div style=""width:240px; margin: auto;"">
                                <img src=""images/Y_L_S_15.png"" style= ""width:200px""alt=""img"">
                            </div>
                        </div>","50","","0","images/Y_L_S_15.png","","","","negative","2","15","Y","L","S","",""
"","","","","","html-slider-response","103","2997979","0.0-99.0","73jxl7oasf","10","NaN","<div style=""width:500px;"">
                            <p style=""font-size:50px; font-weight:bold;""
                            >negative</p>
                            <div style=""width:240px; margin: auto;"">
                                <img src=""images/G_L_S_41.png"" style= ""width:200px""alt=""img"">
                            </div>
                        </div>","104","","0","images/G_L_S_41.png","","","","negative","1","41","G","L","S","",""
"","","","","","html-slider-response","104","3001764","0.0-100.0","73jxl7oasf","10","NaN","<div style=""width:500px;"">
                            <p style=""font-size:50px; font-weight:bold;""
                            >negative</p>
                            <div style=""width:240px; margin: auto;"">
                                <img src=""images/B_D_U_13.png"" style= ""width:200px""alt=""img"">
                            </div>
                        </div>","82","","0","images/B_D_U_13.png","","","","negative","2","13","B","D","U","",""
"","","","","","html-slider-response","105","3003869","0.0-101.0","73jxl7oasf","10","NaN","<div style=""width:500px;"">
                            <p style=""font-size:50px; font-weight:bold;""
                            >negative</p>
                            <div style=""width:240px; margin: auto;"">
                                <img src=""images/B_L_U_10.png"" style= ""width:200px""alt=""img"">
                            </div>
                        </div>","43","","0","images/B_L_U_10.png","","","","negative","1","10","B","L","U","",""
"","","","","","html-slider-response","106","3007015","0.0-102.0","73jxl7oasf","10","NaN","<div style=""width:500px;"">
                            <p style=""font-size:50px; font-weight:bold;""
                            >negative</p>
                            <div style=""width:240px; margin: auto;"">
                                <img src=""images/G_L_U_44.png"" style= ""width:200px""alt=""img"">
                            </div>
                        </div>","116","","0","images/G_L_U_44.png","","","","negative","2","44","G","L","U","",""
"","","","","","html-slider-response","107","3012680","0.0-103.0","73jxl7oasf","10","NaN","<div style=""width:500px;"">
                            <p style=""font-size:50px; font-weight:bold;""
                            >negative</p>
                            <div style=""width:240px; margin: auto;"">
                                <img src=""images/R_D_S_33.png"" style= ""width:200px""alt=""img"">
                            </div>
                        </div>","-193","","0","images/R_D_S_33.png","","","","negative","1","33","R","D","S","",""
"","","","","","html-slider-response","108","3019311","0.0-104.0","73jxl7oasf","10","NaN","<div style=""width:500px;"">
                            <p style=""font-size:50px; font-weight:bold;""
                            >negative</p>
                            <div style=""width:240px; margin: auto;"">
                                <img src=""images/Y_D_U_27.png"" style= ""width:200px""alt=""img"">
                            </div>
                        </div>","90","","0","images/Y_D_U_27.png","","","","negative","1","27","Y","D","U","",""
"","","","","","html-slider-response","109","3022102","0.0-105.0","73jxl7oasf","10","NaN","<div style=""width:500px;"">
                            <p style=""font-size:50px; font-weight:bold;""
                            >negative</p>
                            <div style=""width:240px; margin: auto;"">
                                <img src=""images/B_D_S_12.png"" style= ""width:200px""alt=""img"">
                            </div>
                        </div>","102","","0","images/B_D_S_12.png","","","","negative","2","12","B","D","S","",""
"","","","","","html-slider-response","110","3026832","0.0-106.0","73jxl7oasf","10","NaN","<div style=""width:500px;"">
                            <p style=""font-size:50px; font-weight:bold;""
                            >negative</p>
                            <div style=""width:240px; margin: auto;"">
                                <img src=""images/Y_L_S_15.png"" style= ""width:200px""alt=""img"">
                            </div>
                        </div>","42","","0","images/Y_L_S_15.png","","","","negative","1","15","Y","L","S","",""
"","","","","","html-slider-response","111","3029048","0.0-107.0","73jxl7oasf","10","NaN","<div style=""width:500px;"">
                            <p style=""font-size:50px; font-weight:bold;""
                            >negative</p>
                            <div style=""width:240px; margin: auto;"">
                                <img src=""images/B_L_S_07.png"" style= ""width:200px""alt=""img"">
                            </div>
                        </div>","145","","0","images/B_L_S_07.png","","","","negative","1","07","B","L","S","",""
"","","","","","html-slider-response","112","3030674","0.0-108.0","73jxl7oasf","10","NaN","<div style=""width:500px;"">
                            <p style=""font-size:50px; font-weight:bold;""
                            >negative</p>
                            <div style=""width:240px; margin: auto;"">
                                <img src=""images/Y_L_U_23.png"" style= ""width:200px""alt=""img"">
                            </div>
                        </div>","43","","0","images/Y_L_U_23.png","","","","negative","1","23","Y","L","U","",""
"","","","","","html-slider-response","113","3032681","0.0-109.0","73jxl7oasf","10","NaN","<div style=""width:500px;"">
                            <p style=""font-size:50px; font-weight:bold;""
                            >negative</p>
                            <div style=""width:240px; margin: auto;"">
                                <img src=""images/Y_D_S_26.png"" style= ""width:200px""alt=""img"">
                            </div>
                        </div>","-63","","0","images/Y_D_S_26.png","","","","negative","2","26","Y","D","S","",""
"","","","","","html-slider-response","114","3034268","0.0-110.0","73jxl7oasf","10","NaN","<div style=""width:500px;"">
                            <p style=""font-size:50px; font-weight:bold;""
                            >negative</p>
                            <div style=""width:240px; margin: auto;"">
                                <img src=""images/G_D_S_02.png"" style= ""width:200px""alt=""img"">
                            </div>
                        </div>","50","","0","images/G_D_S_02.png","","","","negative","2","02","G","D","S","",""
"","","","","","html-slider-response","115","3036798","0.0-111.0","73jxl7oasf","10","NaN","<div style=""width:500px;"">
                            <p style=""font-size:50px; font-weight:bold;""
                            >negative</p>
                            <div style=""width:240px; margin: auto;"">
                                <img src=""images/Y_D_S_26.png"" style= ""width:200px""alt=""img"">
                            </div>
                        </div>","74","","0","images/Y_D_S_26.png","","","","negative","1","26","Y","D","S","",""
"","","","","","html-slider-response","116","3039048","0.0-112.0","73jxl7oasf","10","NaN","<div style=""width:500px;"">
                            <p style=""font-size:50px; font-weight:bold;""
                            >negative</p>
                            <div style=""width:240px; margin: auto;"">
                                <img src=""images/R_L_U_30.png"" style= ""width:200px""alt=""img"">
                            </div>
                        </div>","-101","","0","images/R_L_U_30.png","","","","negative","1","30","R","L","U","",""
"","","","","","html-slider-response","117","3041015","0.0-113.0","73jxl7oasf","10","NaN","<div style=""width:500px;"">
                            <p style=""font-size:50px; font-weight:bold;""
                            >negative</p>
                            <div style=""width:240px; margin: auto;"">
                                <img src=""images/Y_D_U_27.png"" style= ""width:200px""alt=""img"">
                            </div>
                        </div>","98","","0","images/Y_D_U_27.png","","","","negative","2","27","Y","D","U","",""
"","","","","","html-button-response","118","3042266","0.0-114.0","73jxl7oasf","10","750","<p>Great Job! You've finished block 3.<br></br> You have 5 block(s) left to go.<br></br></p>","0","","","","","","","","","","","","","",""
"","","","","","html-button-response","119","3043351","0.0-115.0","73jxl7oasf","10","1085","<p>In this block of trials, you will be asked to rate how much you associate each map with:</p > <p style = 'font-size:150%; font-weight: bold'>trustworthy</p><br></br>","0","","","","","","","","","","","","","",""
"","","","","","html-slider-response","120","3045100","0.0-116.0","73jxl7oasf","10","NaN","<div style=""width:500px;"">
                            <p style=""font-size:50px; font-weight:bold;""
                            >trustworthy</p>
                            <div style=""width:240px; margin: auto;"">
                                <img src=""images/R_D_U_37.png"" style= ""width:200px""alt=""img"">
                            </div>
                        </div>","-200","","0","images/R_D_U_37.png","","","","trustworthy","1","37","R","D","U","",""
"","","","","","html-slider-response","121","3046978","0.0-117.0","73jxl7oasf","10","NaN","<div style=""width:500px;"">
                            <p style=""font-size:50px; font-weight:bold;""
                            >trustworthy</p>
                            <div style=""width:240px; margin: auto;"">
                                <img src=""images/B_D_S_12.png"" style= ""width:200px""alt=""img"">
                            </div>
                        </div>","114","","0","images/B_D_S_12.png","","","","trustworthy","1","12","B","D","S","",""
"","","","","","html-slider-response","122","3048887","0.0-118.0","73jxl7oasf","10","NaN","<div style=""width:500px;"">
                            <p style=""font-size:50px; font-weight:bold;""
                            >trustworthy</p>
                            <div style=""width:240px; margin: auto;"">
                                <img src=""images/R_L_S_28.png"" style= ""width:200px""alt=""img"">
                            </div>
                        </div>","-42","","0","images/R_L_S_28.png","","","","trustworthy","1","28","R","L","S","",""
"","","","","","html-slider-response","123","3050360","0.0-119.0","73jxl7oasf","10","NaN","<div style=""width:500px;"">
                            <p style=""font-size:50px; font-weight:bold;""
                            >trustworthy</p>
                            <div style=""width:240px; margin: auto;"">
                                <img src=""images/R_L_U_30.png"" style= ""width:200px""alt=""img"">
                            </div>
                        </div>","-10","","0","images/R_L_U_30.png","","","","trustworthy","2","30","R","L","U","",""
"","","","","","html-slider-response","124","3052359","0.0-120.0","73jxl7oasf","10","NaN","<div style=""width:500px;"">
                            <p style=""font-size:50px; font-weight:bold;""
                            >trustworthy</p>
                            <div style=""width:240px; margin: auto;"">
                                <img src=""images/B_D_S_12.png"" style= ""width:200px""alt=""img"">
                            </div>
                        </div>","174","","0","images/B_D_S_12.png","","","","trustworthy","2","12","B","D","S","",""
"","","","","","html-slider-response","125","3054502","0.0-121.0","73jxl7oasf","10","NaN","<div style=""width:500px;"">
                            <p style=""font-size:50px; font-weight:bold;""
                            >trustworthy</p>
                            <div style=""width:240px; margin: auto;"">
                                <img src=""images/G_L_U_44.png"" style= ""width:200px""alt=""img"">
                            </div>
                        </div>","-34","","0","images/G_L_U_44.png","","","","trustworthy","2","44","G","L","U","",""
"","","","","","html-slider-response","126","3056783","0.0-122.0","73jxl7oasf","10","NaN","<div style=""width:500px;"">
                            <p style=""font-size:50px; font-weight:bold;""
                            >trustworthy</p>
                            <div style=""width:240px; margin: auto;"">
                                <img src=""images/Y_L_S_15.png"" style= ""width:200px""alt=""img"">
                            </div>
                        </div>","40","","0","images/Y_L_S_15.png","","","","trustworthy","2","15","Y","L","S","",""
"","","","","","html-slider-response","127","3058789","0.0-123.0","73jxl7oasf","10","NaN","<div style=""width:500px;"">
                            <p style=""font-size:50px; font-weight:bold;""
                            >trustworthy</p>
                            <div style=""width:240px; margin: auto;"">
                                <img src=""images/Y_D_S_26.png"" style= ""width:200px""alt=""img"">
                            </div>
                        </div>","-137","","0","images/Y_D_S_26.png","","","","trustworthy","2","26","Y","D","S","",""
"","","","","","html-slider-response","128","3060635","0.0-124.0","73jxl7oasf","10","NaN","<div style=""width:500px;"">
                            <p style=""font-size:50px; font-weight:bold;""
                            >trustworthy</p>
                            <div style=""width:240px; margin: auto;"">
                                <img src=""images/B_L_S_07.png"" style= ""width:200px""alt=""img"">
                            </div>
                        </div>","142","","0","images/B_L_S_07.png","","","","trustworthy","1","07","B","L","S","",""
"","","","","","html-slider-response","129","3063063","0.0-125.0","73jxl7oasf","10","NaN","<div style=""width:500px;"">
                            <p style=""font-size:50px; font-weight:bold;""
                            >trustworthy</p>
                            <div style=""width:240px; margin: auto;"">
                                <img src=""images/G_L_S_41.png"" style= ""width:200px""alt=""img"">
                            </div>
                        </div>","124","","0","images/G_L_S_41.png","","","","trustworthy","2","41","G","L","S","",""
"","","","","","html-slider-response","130","3065441","0.0-126.0","73jxl7oasf","10","NaN","<div style=""width:500px;"">
                            <p style=""font-size:50px; font-weight:bold;""
                            >trustworthy</p>
                            <div style=""width:240px; margin: auto;"">
                                <img src=""images/Y_D_U_27.png"" style= ""width:200px""alt=""img"">
                            </div>
                        </div>","-200","","0","images/Y_D_U_27.png","","","","trustworthy","1","27","Y","D","U","",""
"","","","","","html-slider-response","131","3067189","0.0-127.0","73jxl7oasf","10","NaN","<div style=""width:500px;"">
                            <p style=""font-size:50px; font-weight:bold;""
                            >trustworthy</p>
                            <div style=""width:240px; margin: auto;"">
                                <img src=""images/Y_D_S_26.png"" style= ""width:200px""alt=""img"">
                            </div>
                        </div>","-86","","0","images/Y_D_S_26.png","","","","trustworthy","1","26","Y","D","S","",""
"","","","","","html-slider-response","132","3069463","0.0-128.0","73jxl7oasf","10","NaN","<div style=""width:500px;"">
                            <p style=""font-size:50px; font-weight:bold;""
                            >trustworthy</p>
                            <div style=""width:240px; margin: auto;"">
                                <img src=""images/Y_D_U_27.png"" style= ""width:200px""alt=""img"">
                            </div>
                        </div>","-170","","0","images/Y_D_U_27.png","","","","trustworthy","2","27","Y","D","U","",""
"","","","","","html-slider-response","133","3071752","0.0-129.0","73jxl7oasf","10","NaN","<div style=""width:500px;"">
                            <p style=""font-size:50px; font-weight:bold;""
                            >trustworthy</p>
                            <div style=""width:240px; margin: auto;"">
                                <img src=""images/R_D_S_33.png"" style= ""width:200px""alt=""img"">
                            </div>
                        </div>","-170","","0","images/R_D_S_33.png","","","","trustworthy","2","33","R","D","S","",""
"","","","","","html-slider-response","134","3073867","0.0-130.0","73jxl7oasf","10","NaN","<div style=""width:500px;"">
                            <p style=""font-size:50px; font-weight:bold;""
                            >trustworthy</p>
                            <div style=""width:240px; margin: auto;"">
                                <img src=""images/Y_L_U_23.png"" style= ""width:200px""alt=""img"">
                            </div>
                        </div>","-30","","0","images/Y_L_U_23.png","","","","trustworthy","1","23","Y","L","U","",""
"","","","","","html-slider-response","135","3075789","0.0-131.0","73jxl7oasf","10","NaN","<div style=""width:500px;"">
                            <p style=""font-size:50px; font-weight:bold;""
                            >trustworthy</p>
                            <div style=""width:240px; margin: auto;"">
                                <img src=""images/G_D_U_05.png"" style= ""width:200px""alt=""img"">
                            </div>
                        </div>","-63","","0","images/G_D_U_05.png","","","","trustworthy","2","05","G","D","U","",""
"","","","","","html-slider-response","136","3078007","0.0-132.0","73jxl7oasf","10","NaN","<div style=""width:500px;"">
                            <p style=""font-size:50px; font-weight:bold;""
                            >trustworthy</p>
                            <div style=""width:240px; margin: auto;"">
                                <img src=""images/R_D_U_37.png"" style= ""width:200px""alt=""img"">
                            </div>
                        </div>","-128","","0","images/R_D_U_37.png","","","","trustworthy","2","37","R","D","U","",""
"","","","","","html-slider-response","137","3081291","0.0-133.0","73jxl7oasf","10","NaN","<div style=""width:500px;"">
                            <p style=""font-size:50px; font-weight:bold;""
                            >trustworthy</p>
                            <div style=""width:240px; margin: auto;"">
                                <img src=""images/B_D_U_13.png"" style= ""width:200px""alt=""img"">
                            </div>
                        </div>","-26","","0","images/B_D_U_13.png","","","","trustworthy","1","13","B","D","U","",""
"","","","","","html-slider-response","138","3083476","0.0-134.0","73jxl7oasf","10","NaN","<div style=""width:500px;"">
                            <p style=""font-size:50px; font-weight:bold;""
                            >trustworthy</p>
                            <div style=""width:240px; margin: auto;"">
                                <img src=""images/B_L_U_10.png"" style= ""width:200px""alt=""img"">
                            </div>
                        </div>","107","","0","images/B_L_U_10.png","","","","trustworthy","2","10","B","L","U","",""
"","","","","","html-slider-response","139","3085839","0.0-135.0","73jxl7oasf","10","NaN","<div style=""width:500px;"">
                            <p style=""font-size:50px; font-weight:bold;""
                            >trustworthy</p>
                            <div style=""width:240px; margin: auto;"">
                                <img src=""images/R_L_U_30.png"" style= ""width:200px""alt=""img"">
                            </div>
                        </div>","-38","","0","images/R_L_U_30.png","","","","trustworthy","1","30","R","L","U","",""
"","","","","","html-slider-response","140","3087815","0.0-136.0","73jxl7oasf","10","NaN","<div style=""width:500px;"">
                            <p style=""font-size:50px; font-weight:bold;""
                            >trustworthy</p>
                            <div style=""width:240px; margin: auto;"">
                                <img src=""images/Y_L_S_15.png"" style= ""width:200px""alt=""img"">
                            </div>
                        </div>","32","","0","images/Y_L_S_15.png","","","","trustworthy","1","15","Y","L","S","",""
"","","","","","html-slider-response","141","3090091","0.0-137.0","73jxl7oasf","10","NaN","<div style=""width:500px;"">
                            <p style=""font-size:50px; font-weight:bold;""
                            >trustworthy</p>
                            <div style=""width:240px; margin: auto;"">
                                <img src=""images/G_L_U_44.png"" style= ""width:200px""alt=""img"">
                            </div>
                        </div>","111","","0","images/G_L_U_44.png","","","","trustworthy","1","44","G","L","U","",""
"","","","","","html-slider-response","142","3092184","0.0-138.0","73jxl7oasf","10","NaN","<div style=""width:500px;"">
                            <p style=""font-size:50px; font-weight:bold;""
                            >trustworthy</p>
                            <div style=""width:240px; margin: auto;"">
                                <img src=""images/Y_L_U_23.png"" style= ""width:200px""alt=""img"">
                            </div>
                        </div>","-68","","0","images/Y_L_U_23.png","","","","trustworthy","2","23","Y","L","U","",""
"","","","","","html-slider-response","143","3095080","0.0-139.0","73jxl7oasf","10","NaN","<div style=""width:500px;"">
                            <p style=""font-size:50px; font-weight:bold;""
                            >trustworthy</p>
                            <div style=""width:240px; margin: auto;"">
                                <img src=""images/G_D_S_02.png"" style= ""width:200px""alt=""img"">
                            </div>
                        </div>","88","","0","images/G_D_S_02.png","","","","trustworthy","2","02","G","D","S","",""
"","","","","","html-slider-response","144","3097676","0.0-140.0","73jxl7oasf","10","NaN","<div style=""width:500px;"">
                            <p style=""font-size:50px; font-weight:bold;""
                            >trustworthy</p>
                            <div style=""width:240px; margin: auto;"">
                                <img src=""images/G_D_U_05.png"" style= ""width:200px""alt=""img"">
                            </div>
                        </div>","-54","","0","images/G_D_U_05.png","","","","trustworthy","1","05","G","D","U","",""
"","","","","","html-slider-response","145","3099650","0.0-141.0","73jxl7oasf","10","NaN","<div style=""width:500px;"">
                            <p style=""font-size:50px; font-weight:bold;""
                            >trustworthy</p>
                            <div style=""width:240px; margin: auto;"">
                                <img src=""images/B_L_S_07.png"" style= ""width:200px""alt=""img"">
                            </div>
                        </div>","181","","0","images/B_L_S_07.png","","","","trustworthy","2","07","B","L","S","",""
"","","","","","html-slider-response","146","3102749","0.0-142.0","73jxl7oasf","10","NaN","<div style=""width:500px;"">
                            <p style=""font-size:50px; font-weight:bold;""
                            >trustworthy</p>
                            <div style=""width:240px; margin: auto;"">
                                <img src=""images/G_L_S_41.png"" style= ""width:200px""alt=""img"">
                            </div>
                        </div>","53","","0","images/G_L_S_41.png","","","","trustworthy","1","41","G","L","S","",""
"","","","","","html-slider-response","147","3105639","0.0-143.0","73jxl7oasf","10","NaN","<div style=""width:500px;"">
                            <p style=""font-size:50px; font-weight:bold;""
                            >trustworthy</p>
                            <div style=""width:240px; margin: auto;"">
                                <img src=""images/G_D_S_02.png"" style= ""width:200px""alt=""img"">
                            </div>
                        </div>","-71","","0","images/G_D_S_02.png","","","","trustworthy","1","02","G","D","S","",""
"","","","","","html-slider-response","148","3107628","0.0-144.0","73jxl7oasf","10","NaN","<div style=""width:500px;"">
                            <p style=""font-size:50px; font-weight:bold;""
                            >trustworthy</p>
                            <div style=""width:240px; margin: auto;"">
                                <img src=""images/R_L_S_28.png"" style= ""width:200px""alt=""img"">
                            </div>
                        </div>","-105","","0","images/R_L_S_28.png","","","","trustworthy","2","28","R","L","S","",""
"","","","","","html-slider-response","149","3109545","0.0-145.0","73jxl7oasf","10","NaN","<div style=""width:500px;"">
                            <p style=""font-size:50px; font-weight:bold;""
                            >trustworthy</p>
                            <div style=""width:240px; margin: auto;"">
                                <img src=""images/R_D_S_33.png"" style= ""width:200px""alt=""img"">
                            </div>
                        </div>","-130","","0","images/R_D_S_33.png","","","","trustworthy","1","33","R","D","S","",""
"","","","","","html-slider-response","150","3111504","0.0-146.0","73jxl7oasf","10","NaN","<div style=""width:500px;"">
                            <p style=""font-size:50px; font-weight:bold;""
                            >trustworthy</p>
                            <div style=""width:240px; margin: auto;"">
                                <img src=""images/B_L_U_10.png"" style= ""width:200px""alt=""img"">
                            </div>
                        </div>","43","","0","images/B_L_U_10.png","","","","trustworthy","1","10","B","L","U","",""
"","","","","","html-slider-response","151","3113348","0.0-147.0","73jxl7oasf","10","NaN","<div style=""width:500px;"">
                            <p style=""font-size:50px; font-weight:bold;""
                            >trustworthy</p>
                            <div style=""width:240px; margin: auto;"">
                                <img src=""images/B_D_U_13.png"" style= ""width:200px""alt=""img"">
                            </div>
                        </div>","-25","","0","images/B_D_U_13.png","","","","trustworthy","2","13","B","D","U","",""
"","","","","","html-button-response","152","3115077","0.0-148.0","73jxl7oasf","10","1227","<p>Great Job! You've finished block 4.<br></br> You have 4 block(s) left to go.<br></br></p>","0","","","","","","","","","","","","","",""
"","","","","","html-button-response","153","3115924","0.0-149.0","73jxl7oasf","10","847","<p>In this block of trials, you will be asked to rate how much you associate each map with:</p > <p style = 'font-size:150%; font-weight: bold'>positive</p><br></br>","0","","","","","","","","","","","","","",""
"","","","","","html-slider-response","154","3117879","0.0-150.0","73jxl7oasf","10","NaN","<div style=""width:500px;"">
                            <p style=""font-size:50px; font-weight:bold;""
                            >positive</p>
                            <div style=""width:240px; margin: auto;"">
                                <img src=""images/Y_L_S_15.png"" style= ""width:200px""alt=""img"">
                            </div>
                        </div>","1","","0","images/Y_L_S_15.png","","","","positive","1","15","Y","L","S","",""
"","","","","","html-slider-response","155","3119588","0.0-151.0","73jxl7oasf","10","NaN","<div style=""width:500px;"">
                            <p style=""font-size:50px; font-weight:bold;""
                            >positive</p>
                            <div style=""width:240px; margin: auto;"">
                                <img src=""images/Y_L_U_23.png"" style= ""width:200px""alt=""img"">
                            </div>
                        </div>","26","","0","images/Y_L_U_23.png","","","","positive","1","23","Y","L","U","",""
"","","","","","html-slider-response","156","3121602","0.0-152.0","73jxl7oasf","10","NaN","<div style=""width:500px;"">
                            <p style=""font-size:50px; font-weight:bold;""
                            >positive</p>
                            <div style=""width:240px; margin: auto;"">
                                <img src=""images/R_L_S_28.png"" style= ""width:200px""alt=""img"">
                            </div>
                        </div>","-96","","0","images/R_L_S_28.png","","","","positive","2","28","R","L","S","",""
"","","","","","html-slider-response","157","3123948","0.0-153.0","73jxl7oasf","10","NaN","<div style=""width:500px;"">
                            <p style=""font-size:50px; font-weight:bold;""
                            >positive</p>
                            <div style=""width:240px; margin: auto;"">
                                <img src=""images/G_L_U_44.png"" style= ""width:200px""alt=""img"">
                            </div>
                        </div>","73","","0","images/G_L_U_44.png","","","","positive","1","44","G","L","U","",""
"","","","","","html-slider-response","158","3125937","0.0-154.0","73jxl7oasf","10","NaN","<div style=""width:500px;"">
                            <p style=""font-size:50px; font-weight:bold;""
                            >positive</p>
                            <div style=""width:240px; margin: auto;"">
                                <img src=""images/B_L_S_07.png"" style= ""width:200px""alt=""img"">
                            </div>
                        </div>","166","","0","images/B_L_S_07.png","","","","positive","2","07","B","L","S","",""
"","","","","","html-slider-response","159","3128518","0.0-155.0","73jxl7oasf","10","NaN","<div style=""width:500px;"">
                            <p style=""font-size:50px; font-weight:bold;""
                            >positive</p>
                            <div style=""width:240px; margin: auto;"">
                                <img src=""images/R_L_U_30.png"" style= ""width:200px""alt=""img"">
                            </div>
                        </div>","-58","","0","images/R_L_U_30.png","","","","positive","2","30","R","L","U","",""
"","","","","","html-slider-response","160","3129937","0.0-156.0","73jxl7oasf","10","NaN","<div style=""width:500px;"">
                            <p style=""font-size:50px; font-weight:bold;""
                            >positive</p>
                            <div style=""width:240px; margin: auto;"">
                                <img src=""images/R_L_U_30.png"" style= ""width:200px""alt=""img"">
                            </div>
                        </div>","-46","","0","images/R_L_U_30.png","","","","positive","1","30","R","L","U","",""
"","","","","","html-slider-response","161","3135913","0.0-157.0","73jxl7oasf","10","NaN","<div style=""width:500px;"">
                            <p style=""font-size:50px; font-weight:bold;""
                            >positive</p>
                            <div style=""width:240px; margin: auto;"">
                                <img src=""images/B_D_S_12.png"" style= ""width:200px""alt=""img"">
                            </div>
                        </div>","149","","0","images/B_D_S_12.png","","","","positive","1","12","B","D","S","",""
"","","","","","html-slider-response","162","3138901","0.0-158.0","73jxl7oasf","10","NaN","<div style=""width:500px;"">
                            <p style=""font-size:50px; font-weight:bold;""
                            >positive</p>
                            <div style=""width:240px; margin: auto;"">
                                <img src=""images/B_D_U_13.png"" style= ""width:200px""alt=""img"">
                            </div>
                        </div>","66","","0","images/B_D_U_13.png","","","","positive","1","13","B","D","U","",""
"","","","","","html-slider-response","163","3152459","0.0-159.0","73jxl7oasf","10","NaN","<div style=""width:500px;"">
                            <p style=""font-size:50px; font-weight:bold;""
                            >positive</p>
                            <div style=""width:240px; margin: auto;"">
                                <img src=""images/G_D_U_05.png"" style= ""width:200px""alt=""img"">
                            </div>
                        </div>","-70","","0","images/G_D_U_05.png","","","","positive","1","05","G","D","U","",""
"","","","","","html-slider-response","164","3154522","0.0-160.0","73jxl7oasf","10","NaN","<div style=""width:500px;"">
                            <p style=""font-size:50px; font-weight:bold;""
                            >positive</p>
                            <div style=""width:240px; margin: auto;"">
                                <img src=""images/R_D_S_33.png"" style= ""width:200px""alt=""img"">
                            </div>
                        </div>","-100","","0","images/R_D_S_33.png","","","","positive","1","33","R","D","S","",""
"","","","","","html-slider-response","165","3156399","0.0-161.0","73jxl7oasf","10","NaN","<div style=""width:500px;"">
                            <p style=""font-size:50px; font-weight:bold;""
                            >positive</p>
                            <div style=""width:240px; margin: auto;"">
                                <img src=""images/R_D_S_33.png"" style= ""width:200px""alt=""img"">
                            </div>
                        </div>","-93","","0","images/R_D_S_33.png","","","","positive","2","33","R","D","S","",""
"","","","","","html-slider-response","166","3158170","0.0-162.0","73jxl7oasf","10","NaN","<div style=""width:500px;"">
                            <p style=""font-size:50px; font-weight:bold;""
                            >positive</p>
                            <div style=""width:240px; margin: auto;"">
                                <img src=""images/G_D_U_05.png"" style= ""width:200px""alt=""img"">
                            </div>
                        </div>","-89","","0","images/G_D_U_05.png","","","","positive","2","05","G","D","U","",""
"","","","","","html-slider-response","167","3160178","0.0-163.0","73jxl7oasf","10","NaN","<div style=""width:500px;"">
                            <p style=""font-size:50px; font-weight:bold;""
                            >positive</p>
                            <div style=""width:240px; margin: auto;"">
                                <img src=""images/B_D_S_12.png"" style= ""width:200px""alt=""img"">
                            </div>
                        </div>","134","","0","images/B_D_S_12.png","","","","positive","2","12","B","D","S","",""
"","","","","","html-slider-response","168","3161869","0.0-164.0","73jxl7oasf","10","NaN","<div style=""width:500px;"">
                            <p style=""font-size:50px; font-weight:bold;""
                            >positive</p>
                            <div style=""width:240px; margin: auto;"">
                                <img src=""images/G_D_S_02.png"" style= ""width:200px""alt=""img"">
                            </div>
                        </div>","117","","0","images/G_D_S_02.png","","","","positive","2","02","G","D","S","",""
"","","","","","html-slider-response","169","3166172","0.0-165.0","73jxl7oasf","10","NaN","<div style=""width:500px;"">
                            <p style=""font-size:50px; font-weight:bold;""
                            >positive</p>
                            <div style=""width:240px; margin: auto;"">
                                <img src=""images/Y_D_U_27.png"" style= ""width:200px""alt=""img"">
                            </div>
                        </div>","-102","","0","images/Y_D_U_27.png","","","","positive","1","27","Y","D","U","",""
"","","","","","html-slider-response","170","3167930","0.0-166.0","73jxl7oasf","10","NaN","<div style=""width:500px;"">
                            <p style=""font-size:50px; font-weight:bold;""
                            >positive</p>
                            <div style=""width:240px; margin: auto;"">
                                <img src=""images/B_L_S_07.png"" style= ""width:200px""alt=""img"">
                            </div>
                        </div>","142","","0","images/B_L_S_07.png","","","","positive","1","07","B","L","S","",""
"","","","","","html-slider-response","171","3170065","0.0-167.0","73jxl7oasf","10","NaN","<div style=""width:500px;"">
                            <p style=""font-size:50px; font-weight:bold;""
                            >positive</p>
                            <div style=""width:240px; margin: auto;"">
                                <img src=""images/B_D_U_13.png"" style= ""width:200px""alt=""img"">
                            </div>
                        </div>","-86","","0","images/B_D_U_13.png","","","","positive","2","13","B","D","U","",""
"","","","","","html-slider-response","172","3174838","0.0-168.0","73jxl7oasf","10","NaN","<div style=""width:500px;"">
                            <p style=""font-size:50px; font-weight:bold;""
                            >positive</p>
                            <div style=""width:240px; margin: auto;"">
                                <img src=""images/G_L_S_41.png"" style= ""width:200px""alt=""img"">
                            </div>
                        </div>","164","","0","images/G_L_S_41.png","","","","positive","2","41","G","L","S","",""
"","","","","","html-slider-response","173","3176473","0.0-169.0","73jxl7oasf","10","NaN","<div style=""width:500px;"">
                            <p style=""font-size:50px; font-weight:bold;""
                            >positive</p>
                            <div style=""width:240px; margin: auto;"">
                                <img src=""images/Y_D_S_26.png"" style= ""width:200px""alt=""img"">
                            </div>
                        </div>","-64","","0","images/Y_D_S_26.png","","","","positive","2","26","Y","D","S","",""
"","","","","","html-slider-response","174","3178236","0.0-170.0","73jxl7oasf","10","NaN","<div style=""width:500px;"">
                            <p style=""font-size:50px; font-weight:bold;""
                            >positive</p>
                            <div style=""width:240px; margin: auto;"">
                                <img src=""images/R_L_S_28.png"" style= ""width:200px""alt=""img"">
                            </div>
                        </div>","-148","","0","images/R_L_S_28.png","","","","positive","1","28","R","L","S","",""
"","","","","","html-slider-response","175","3180501","0.0-171.0","73jxl7oasf","10","NaN","<div style=""width:500px;"">
                            <p style=""font-size:50px; font-weight:bold;""
                            >positive</p>
                            <div style=""width:240px; margin: auto;"">
                                <img src=""images/G_D_S_02.png"" style= ""width:200px""alt=""img"">
                            </div>
                        </div>","52","","0","images/G_D_S_02.png","","","","positive","1","02","G","D","S","",""
"","","","","","html-slider-response","176","3182961","0.0-172.0","73jxl7oasf","10","NaN","<div style=""width:500px;"">
                            <p style=""font-size:50px; font-weight:bold;""
                            >positive</p>
                            <div style=""width:240px; margin: auto;"">
                                <img src=""images/B_L_U_10.png"" style= ""width:200px""alt=""img"">
                            </div>
                        </div>","109","","0","images/B_L_U_10.png","","","","positive","2","10","B","L","U","",""
"","","","","","html-slider-response","177","3185544","0.0-173.0","73jxl7oasf","10","NaN","<div style=""width:500px;"">
                            <p style=""font-size:50px; font-weight:bold;""
                            >positive</p>
                            <div style=""width:240px; margin: auto;"">
                                <img src=""images/Y_L_S_15.png"" style= ""width:200px""alt=""img"">
                            </div>
                        </div>","-59","","0","images/Y_L_S_15.png","","","","positive","2","15","Y","L","S","",""
"","","","","","html-slider-response","178","3191004","0.0-174.0","73jxl7oasf","10","NaN","<div style=""width:500px;"">
                            <p style=""font-size:50px; font-weight:bold;""
                            >positive</p>
                            <div style=""width:240px; margin: auto;"">
                                <img src=""images/Y_L_U_23.png"" style= ""width:200px""alt=""img"">
                            </div>
                        </div>","-47","","0","images/Y_L_U_23.png","","","","positive","2","23","Y","L","U","",""
"","","","","","html-slider-response","179","3193940","0.0-175.0","73jxl7oasf","10","NaN","<div style=""width:500px;"">
                            <p style=""font-size:50px; font-weight:bold;""
                            >positive</p>
                            <div style=""width:240px; margin: auto;"">
                                <img src=""images/R_D_U_37.png"" style= ""width:200px""alt=""img"">
                            </div>
                        </div>","-124","","0","images/R_D_U_37.png","","","","positive","1","37","R","D","U","",""
"","","","","","html-slider-response","180","3195405","0.0-176.0","73jxl7oasf","10","NaN","<div style=""width:500px;"">
                            <p style=""font-size:50px; font-weight:bold;""
                            >positive</p>
                            <div style=""width:240px; margin: auto;"">
                                <img src=""images/B_L_U_10.png"" style= ""width:200px""alt=""img"">
                            </div>
                        </div>","77","","0","images/B_L_U_10.png","","","","positive","1","10","B","L","U","",""
"","","","","","html-slider-response","181","3197501","0.0-177.0","73jxl7oasf","10","NaN","<div style=""width:500px;"">
                            <p style=""font-size:50px; font-weight:bold;""
                            >positive</p>
                            <div style=""width:240px; margin: auto;"">
                                <img src=""images/Y_D_U_27.png"" style= ""width:200px""alt=""img"">
                            </div>
                        </div>","-153","","0","images/Y_D_U_27.png","","","","positive","2","27","Y","D","U","",""
"","","","","","html-slider-response","182","3199410","0.0-178.0","73jxl7oasf","10","NaN","<div style=""width:500px;"">
                            <p style=""font-size:50px; font-weight:bold;""
                            >positive</p>
                            <div style=""width:240px; margin: auto;"">
                                <img src=""images/R_D_U_37.png"" style= ""width:200px""alt=""img"">
                            </div>
                        </div>","-136","","0","images/R_D_U_37.png","","","","positive","2","37","R","D","U","",""
"","","","","","html-slider-response","183","3201328","0.0-179.0","73jxl7oasf","10","NaN","<div style=""width:500px;"">
                            <p style=""font-size:50px; font-weight:bold;""
                            >positive</p>
                            <div style=""width:240px; margin: auto;"">
                                <img src=""images/G_L_S_41.png"" style= ""width:200px""alt=""img"">
                            </div>
                        </div>","158","","0","images/G_L_S_41.png","","","","positive","1","41","G","L","S","",""
