"success","timeout","failed_images","failed_audio","failed_video","trial_type","trial_index","time_elapsed","internal_node_id","subject_id","condition_num","rt","stimulus","response","question_order","slider_start","image_path","practiceTrial","practiceTrialNum","correct","concept","repetition","map_id","hue","lightness","saturation","ishihara_plate","correct_response"
"true","false","[]","[]","[]","preload","0","691","0.0-0.0","76fzq44obg","13","","","","","","","","","","","","","","","","",""
"","","","","","html-button-response","1","10795","0.0-1.0","76fzq44obg","13","10101","Welcome to our experiment!<p>At the bottom of this screen, you will see a button that says ""Begin Experiment"".<br>Please only click that button when you are ready to complete the 25 minute experiment in one sitting.</p><p> Once you click that button, it will not be possible to restart the experiment.","0","","","","","","","","","","","","","",""
"true","","","","","fullscreen","2","17021","0.0-2.0","76fzq44obg","13","5223","","","","","","","","","","","","","","","",""
"","","","","","survey-multi-select","3","106220","0.0-3.0","76fzq44obg","13","89195","","{""Consent"":[""<strong>I consent</strong>""]}","[0]","","","","","","","","","","","","",""
"","","","","","html-button-response","4","109275","0.0-4.0","76fzq44obg","13","3051","Welcome! <p> This experiment involves two parts: demographic information, followed by the experimental task.<p> It will take about 25 minutes to complete both parts.","0","","","","","","","","","","","","","",""
"","","","","","survey-text","5","133078","0.0-5.0","76fzq44obg","13","23795","","{""Age"":""19"",""Gender"":""male"",""Race/ethnicity"":""asian "",""Languages"":""English Chinese""}","","","","","","","","","","","","","",""
"","","","","","html-slider-response","6","205462","0.0-6.0","76fzq44obg","13","72381","
                            <div style='text-align:left; font-size:20px; line-height:25px; width: 1400px;'>
                                During this experiment you will be asked to rate how much you associate maps with                    different concepts.<br> Below, you can see some examples of the maps you will be asked to rate. Next to the maps
                    is the list of concepts.<br>You will be asked                    to rate how much you associate each map with each concept on a scale from 'not at all' to 'very much' like the
                    one below. <br><br>
                    Now, please look at the list of concepts and maps. For each concept, think about the map you associate 'very
                    much' with the concept.<br>                     When you see that map during the experiment, please rate it near the 'very much' endpoint of the
                    scale.<br>Now, please think about which map you associate 'not at all'                     with each concept. When you see that map during the experiment, please rate it near the 'not at all' endpoint
                    of the scale.<br>
                    Please use the full range of the scale. That is, if a map is somewhat associated with the concept, you would
                    click partway between the middle point and right side of the scale.                    You will be asked to rate each map for a given concept before moving on to the next concept.<br><br>Press the
                    'Continue' button for instructions on how to use the slider.                    <br><br>
                </div>

                <div style=""width: 500px; margin: 0 auto;"">
                    <!-- Centered text paragraphs -->
                    <div style=""text-align: center; width: 500px;"">
                        <p style=""font-size:25px; line-height:18px;"">calm</p>
                        <p style=""font-size:25px; line-height:18px;"">exciting</p>
                        <p style=""font-size:25px;line-height:18px;"">positive</p>
                        <p style=""font-size:25px;line-height:18px;"">negative</p>
                        <p style=""font-size:25px;line-height:18px;"">serious</p>
                        <p style=""font-size:25px;line-height:18px;"">playful</p>
                        <p style=""font-size:25px;line-height:18px;"">trustworthy</p>
                        <p style=""font-size:25px;line-height:18px;"">disturbing</p>
                    </div>

                    <!-- Grid section -->
                   <div style=""display: flex; justify-content: center; padding-top: 15px;"">
                    <div style=""display: grid; grid-template-columns: repeat(8, 80px); grid-gap: 5px; width: auto;"">
                        <img src=""images/Y_L_S_27.png"" alt=""map"" style=""width: 100%;""><img src=""images/Y_D_S_30.png"" alt=""map"" style=""width: 100%;""><img src=""images/R_D_U_02.png"" alt=""map"" style=""width: 100%;""><img src=""images/G_D_U_12.png"" alt=""map"" style=""width: 100%;""><img src=""images/R_D_S_44.png"" alt=""map"" style=""width: 100%;""><img src=""images/R_L_U_41.png"" alt=""map"" style=""width: 100%;""><img src=""images/G_L_U_07.png"" alt=""map"" style=""width: 100%;""><img src=""images/Y_L_U_28.png"" alt=""map"" style=""width: 100%;""><img src=""images/B_D_U_26.png"" alt=""map"" style=""width: 100%;""><img src=""images/G_D_S_10.png"" alt=""map"" style=""width: 100%;""><img src=""images/Y_D_U_33.png"" alt=""map"" style=""width: 100%;""><img src=""images/R_L_S_37.png"" alt=""map"" style=""width: 100%;""><img src=""images/B_L_U_15.png"" alt=""map"" style=""width: 100%;""><img src=""images/B_D_S_23.png"" alt=""map"" style=""width: 100%;""><img src=""images/G_L_S_05.png"" alt=""map"" style=""width: 100%;""><img src=""images/B_L_S_13.png"" alt=""map"" style=""width: 100%;"">
                    </div>
                </div>

                    <!-- Clear floats -->
                    <div style=""clear: both;""></div>
                </div>
                            ","63","","0","maps_anchoring.png","true","","","","","","","","","",""
"","","","","","html-button-response","7","210642","0.0-7.0","76fzq44obg","13","5179","<div style=""width:800px;""><p style=""text-align:left"">To move the slider, click and drag your cursor to the location of the scale where you would like to make your rating and then let go. When you let go of the slider, your response will be recorded and the next trial will begin. <br>
                    We are interested in your initial impressions of each map for the given concept, so please go with your first intuition. <br>
                    Before you begin the experiment, there will be four training trials for you to practice using the scale. <br>
                     When you are ready to start the training trials, please click ""Continue"".</p><br></div>","0","","","","","","","","","","","","","",""
"","","","","","html-slider-response","8","213641","0.0-8.0-0.0","76fzq44obg","13","NaN","<div style=""width:500px;"">
                                    <p style=""font-size:25px;"">Please move the slider all the way to the <br> right endpoint of the scale</p>

                                    </div>
                                </div>","200","","0","","true","0","true","","","","","","","",""
"","","","","","html-button-response","9","215657","0.0-8.0-1.0","76fzq44obg","13","1513","<p align='center'><b>Good job!</b> Click on 'Continue' to proceed.</p>","0","","","","","","","","","","","","","",""
"","","","","","html-slider-response","10","218060","0.0-9.0-0.0","76fzq44obg","13","NaN","<div style=""width:500px;"">
                                    <p style=""font-size:25px;"">Please move the slider all the way to the <br> left endpoint of the scale</p>

                                    </div>
                                </div>","-200","","0","","true","1","true","","","","","","","",""
"","","","","","html-button-response","11","219779","0.0-9.0-1.0","76fzq44obg","13","1216","<p align='center'><b>Good job!</b> Click on 'Continue' to proceed.</p>","0","","","","","","","","","","","","","",""
"","","","","","html-slider-response","12","224548","0.0-10.0-0.0","76fzq44obg","13","NaN","<div style=""width:500px;"">
                                    <p style=""font-size:25px;"">Please move the slider halfway between the center and right endpoint of the scale</p>

                                    </div>
                                </div>","107","","0","","true","2","true","","","","","","","",""
"","","","","","html-button-response","13","225916","0.0-10.0-1.0","76fzq44obg","13","865","<p align='center'><b>Good job!</b> Click on 'Continue' to proceed.</p>","0","","","","","","","","","","","","","",""
"","","","","","html-slider-response","14","228322","0.0-11.0-0.0","76fzq44obg","13","NaN","<div style=""width:500px;"">
                                    <p style=""font-size:25px;"">Please move the slider halfway between the center and left endpoint of the scale</p>

                                    </div>
                                </div>","-110","","0","","true","3","true","","","","","","","",""
"","","","","","html-button-response","15","229725","0.0-11.0-1.0","76fzq44obg","13","899","<p align='center'><b>Good job!</b> Click on 'Continue' to proceed.</p>","0","","","","","","","","","","","","","",""
"","","","","","html-button-response","16","231429","0.0-12.0","76fzq44obg","13","1703","<p>Great job! You've completed the practice trials. Now you will begin the main task.</p>","0","","","","","","","","","","","","","",""
"","","","","","html-button-response","17","235914","0.0-13.0","76fzq44obg","13","4484","<p>In this block of trials, you will be asked to rate how much you associate each map with:</p > <p style = 'font-size:150%; font-weight: bold'>disturbing</p><br></br>","0","","","","","","","","","","","","","",""
"","","","","","html-slider-response","18","241102","0.0-14.0","76fzq44obg","13","NaN","<div style=""width:500px;"">
                            <p style=""font-size:50px; font-weight:bold;""
                            >disturbing</p>
                            <div style=""width:240px; margin: auto;"">
                                <img src=""images/R_D_S_44.png"" style= ""width:200px""alt=""img"">
                            </div>
                        </div>","18","","0","images/R_D_S_44.png","","","","disturbing","1","44","R","D","S","",""
"","","","","","html-slider-response","19","245023","0.0-15.0","76fzq44obg","13","NaN","<div style=""width:500px;"">
                            <p style=""font-size:50px; font-weight:bold;""
                            >disturbing</p>
                            <div style=""width:240px; margin: auto;"">
                                <img src=""images/B_L_S_13.png"" style= ""width:200px""alt=""img"">
                            </div>
                        </div>","-100","","0","images/B_L_S_13.png","","","","disturbing","1","13","B","L","S","",""
"","","","","","html-slider-response","20","247302","0.0-16.0","76fzq44obg","13","NaN","<div style=""width:500px;"">
                            <p style=""font-size:50px; font-weight:bold;""
                            >disturbing</p>
                            <div style=""width:240px; margin: auto;"">
                                <img src=""images/B_L_U_15.png"" style= ""width:200px""alt=""img"">
                            </div>
                        </div>","-102","","0","images/B_L_U_15.png","","","","disturbing","2","15","B","L","U","",""
"","","","","","html-slider-response","21","250324","0.0-17.0","76fzq44obg","13","NaN","<div style=""width:500px;"">
                            <p style=""font-size:50px; font-weight:bold;""
                            >disturbing</p>
                            <div style=""width:240px; margin: auto;"">
                                <img src=""images/R_L_U_41.png"" style= ""width:200px""alt=""img"">
                            </div>
                        </div>","55","","0","images/R_L_U_41.png","","","","disturbing","2","41","R","L","U","",""
"","","","","","html-slider-response","22","252623","0.0-18.0","76fzq44obg","13","NaN","<div style=""width:500px;"">
                            <p style=""font-size:50px; font-weight:bold;""
                            >disturbing</p>
                            <div style=""width:240px; margin: auto;"">
                                <img src=""images/B_D_S_23.png"" style= ""width:200px""alt=""img"">
                            </div>
                        </div>","-32","","0","images/B_D_S_23.png","","","","disturbing","1","23","B","D","S","",""
"","","","","","html-slider-response","23","255994","0.0-19.0","76fzq44obg","13","NaN","<div style=""width:500px;"">
                            <p style=""font-size:50px; font-weight:bold;""
                            >disturbing</p>
                            <div style=""width:240px; margin: auto;"">
                                <img src=""images/Y_L_S_27.png"" style= ""width:200px""alt=""img"">
                            </div>
                        </div>","-18","","0","images/Y_L_S_27.png","","","","disturbing","2","27","Y","L","S","",""
"","","","","","html-slider-response","24","257852","0.0-20.0","76fzq44obg","13","NaN","<div style=""width:500px;"">
                            <p style=""font-size:50px; font-weight:bold;""
                            >disturbing</p>
                            <div style=""width:240px; margin: auto;"">
                                <img src=""images/R_L_S_37.png"" style= ""width:200px""alt=""img"">
                            </div>
                        </div>","90","","0","images/R_L_S_37.png","","","","disturbing","1","37","R","L","S","",""
"","","","","","html-slider-response","25","260081","0.0-21.0","76fzq44obg","13","NaN","<div style=""width:500px;"">
                            <p style=""font-size:50px; font-weight:bold;""
                            >disturbing</p>
                            <div style=""width:240px; margin: auto;"">
                                <img src=""images/G_D_U_12.png"" style= ""width:200px""alt=""img"">
                            </div>
                        </div>","44","","0","images/G_D_U_12.png","","","","disturbing","2","12","G","D","U","",""
"","","","","","html-slider-response","26","264435","0.0-22.0","76fzq44obg","13","NaN","<div style=""width:500px;"">
                            <p style=""font-size:50px; font-weight:bold;""
                            >disturbing</p>
                            <div style=""width:240px; margin: auto;"">
                                <img src=""images/B_D_U_26.png"" style= ""width:200px""alt=""img"">
                            </div>
                        </div>","26","","0","images/B_D_U_26.png","","","","disturbing","2","26","B","D","U","",""
"","","","","","html-slider-response","27","266498","0.0-23.0","76fzq44obg","13","NaN","<div style=""width:500px;"">
                            <p style=""font-size:50px; font-weight:bold;""
                            >disturbing</p>
                            <div style=""width:240px; margin: auto;"">
                                <img src=""images/G_L_S_05.png"" style= ""width:200px""alt=""img"">
                            </div>
                        </div>","-86","","0","images/G_L_S_05.png","","","","disturbing","1","05","G","L","S","",""
"","","","","","html-slider-response","28","268660","0.0-24.0","76fzq44obg","13","NaN","<div style=""width:500px;"">
                            <p style=""font-size:50px; font-weight:bold;""
                            >disturbing</p>
                            <div style=""width:240px; margin: auto;"">
                                <img src=""images/R_D_S_44.png"" style= ""width:200px""alt=""img"">
                            </div>
                        </div>","76","","0","images/R_D_S_44.png","","","","disturbing","2","44","R","D","S","",""
"","","","","","html-slider-response","29","271670","0.0-25.0","76fzq44obg","13","NaN","<div style=""width:500px;"">
                            <p style=""font-size:50px; font-weight:bold;""
                            >disturbing</p>
                            <div style=""width:240px; margin: auto;"">
                                <img src=""images/Y_D_U_33.png"" style= ""width:200px""alt=""img"">
                            </div>
                        </div>","200","","0","images/Y_D_U_33.png","","","","disturbing","1","33","Y","D","U","",""
"","","","","","html-slider-response","30","273768","0.0-26.0","76fzq44obg","13","NaN","<div style=""width:500px;"">
                            <p style=""font-size:50px; font-weight:bold;""
                            >disturbing</p>
                            <div style=""width:240px; margin: auto;"">
                                <img src=""images/Y_L_U_28.png"" style= ""width:200px""alt=""img"">
                            </div>
                        </div>","38","","0","images/Y_L_U_28.png","","","","disturbing","1","28","Y","L","U","",""
"","","","","","html-slider-response","31","275481","0.0-27.0","76fzq44obg","13","NaN","<div style=""width:500px;"">
                            <p style=""font-size:50px; font-weight:bold;""
                            >disturbing</p>
                            <div style=""width:240px; margin: auto;"">
                                <img src=""images/G_L_U_07.png"" style= ""width:200px""alt=""img"">
                            </div>
                        </div>","-22","","0","images/G_L_U_07.png","","","","disturbing","2","07","G","L","U","",""
"","","","","","html-slider-response","32","277158","0.0-28.0","76fzq44obg","13","NaN","<div style=""width:500px;"">
                            <p style=""font-size:50px; font-weight:bold;""
                            >disturbing</p>
                            <div style=""width:240px; margin: auto;"">
                                <img src=""images/R_L_U_41.png"" style= ""width:200px""alt=""img"">
                            </div>
                        </div>","63","","0","images/R_L_U_41.png","","","","disturbing","1","41","R","L","U","",""
"","","","","","html-slider-response","33","278988","0.0-29.0","76fzq44obg","13","NaN","<div style=""width:500px;"">
                            <p style=""font-size:50px; font-weight:bold;""
                            >disturbing</p>
                            <div style=""width:240px; margin: auto;"">
                                <img src=""images/B_L_S_13.png"" style= ""width:200px""alt=""img"">
                            </div>
                        </div>","-90","","0","images/B_L_S_13.png","","","","disturbing","2","13","B","L","S","",""
"","","","","","html-slider-response","34","280863","0.0-30.0","76fzq44obg","13","NaN","<div style=""width:500px;"">
                            <p style=""font-size:50px; font-weight:bold;""
                            >disturbing</p>
                            <div style=""width:240px; margin: auto;"">
                                <img src=""images/B_D_S_23.png"" style= ""width:200px""alt=""img"">
                            </div>
                        </div>","-200","","0","images/B_D_S_23.png","","","","disturbing","2","23","B","D","S","",""
"","","","","","html-slider-response","35","282705","0.0-31.0","76fzq44obg","13","NaN","<div style=""width:500px;"">
                            <p style=""font-size:50px; font-weight:bold;""
                            >disturbing</p>
                            <div style=""width:240px; margin: auto;"">
                                <img src=""images/Y_D_U_33.png"" style= ""width:200px""alt=""img"">
                            </div>
                        </div>","200","","0","images/Y_D_U_33.png","","","","disturbing","2","33","Y","D","U","",""
"","","","","","html-slider-response","36","286043","0.0-32.0","76fzq44obg","13","NaN","<div style=""width:500px;"">
                            <p style=""font-size:50px; font-weight:bold;""
                            >disturbing</p>
                            <div style=""width:240px; margin: auto;"">
                                <img src=""images/B_L_U_15.png"" style= ""width:200px""alt=""img"">
                            </div>
                        </div>","-91","","0","images/B_L_U_15.png","","","","disturbing","1","15","B","L","U","",""
"","","","","","html-slider-response","37","288521","0.0-33.0","76fzq44obg","13","NaN","<div style=""width:500px;"">
                            <p style=""font-size:50px; font-weight:bold;""
                            >disturbing</p>
                            <div style=""width:240px; margin: auto;"">
                                <img src=""images/Y_D_S_30.png"" style= ""width:200px""alt=""img"">
                            </div>
                        </div>","92","","0","images/Y_D_S_30.png","","","","disturbing","1","30","Y","D","S","",""
"","","","","","html-slider-response","38","290319","0.0-34.0","76fzq44obg","13","NaN","<div style=""width:500px;"">
                            <p style=""font-size:50px; font-weight:bold;""
                            >disturbing</p>
                            <div style=""width:240px; margin: auto;"">
                                <img src=""images/R_D_U_02.png"" style= ""width:200px""alt=""img"">
                            </div>
                        </div>","125","","0","images/R_D_U_02.png","","","","disturbing","2","02","R","D","U","",""
"","","","","","html-slider-response","39","293395","0.0-35.0","76fzq44obg","13","NaN","<div style=""width:500px;"">
                            <p style=""font-size:50px; font-weight:bold;""
                            >disturbing</p>
                            <div style=""width:240px; margin: auto;"">
                                <img src=""images/G_L_U_07.png"" style= ""width:200px""alt=""img"">
                            </div>
                        </div>","-106","","0","images/G_L_U_07.png","","","","disturbing","1","07","G","L","U","",""
"","","","","","html-slider-response","40","296500","0.0-36.0","76fzq44obg","13","NaN","<div style=""width:500px;"">
                            <p style=""font-size:50px; font-weight:bold;""
                            >disturbing</p>
                            <div style=""width:240px; margin: auto;"">
                                <img src=""images/Y_L_S_27.png"" style= ""width:200px""alt=""img"">
                            </div>
                        </div>","-29","","0","images/Y_L_S_27.png","","","","disturbing","1","27","Y","L","S","",""
"","","","","","html-slider-response","41","299965","0.0-37.0","76fzq44obg","13","NaN","<div style=""width:500px;"">
                            <p style=""font-size:50px; font-weight:bold;""
                            >disturbing</p>
                            <div style=""width:240px; margin: auto;"">
                                <img src=""images/G_D_U_12.png"" style= ""width:200px""alt=""img"">
                            </div>
                        </div>","55","","0","images/G_D_U_12.png","","","","disturbing","1","12","G","D","U","",""
"","","","","","html-slider-response","42","301877","0.0-38.0","76fzq44obg","13","NaN","<div style=""width:500px;"">
                            <p style=""font-size:50px; font-weight:bold;""
                            >disturbing</p>
                            <div style=""width:240px; margin: auto;"">
                                <img src=""images/Y_L_U_28.png"" style= ""width:200px""alt=""img"">
                            </div>
                        </div>","92","","0","images/Y_L_U_28.png","","","","disturbing","2","28","Y","L","U","",""
"","","","","","html-slider-response","43","305044","0.0-39.0","76fzq44obg","13","NaN","<div style=""width:500px;"">
                            <p style=""font-size:50px; font-weight:bold;""
                            >disturbing</p>
                            <div style=""width:240px; margin: auto;"">
                                <img src=""images/G_D_S_10.png"" style= ""width:200px""alt=""img"">
                            </div>
                        </div>","31","","0","images/G_D_S_10.png","","","","disturbing","1","10","G","D","S","",""
"","","","","","html-slider-response","44","306668","0.0-40.0","76fzq44obg","13","NaN","<div style=""width:500px;"">
                            <p style=""font-size:50px; font-weight:bold;""
                            >disturbing</p>
                            <div style=""width:240px; margin: auto;"">
                                <img src=""images/G_L_S_05.png"" style= ""width:200px""alt=""img"">
                            </div>
                        </div>","51","","0","images/G_L_S_05.png","","","","disturbing","2","05","G","L","S","",""
"","","","","","html-slider-response","45","308561","0.0-41.0","76fzq44obg","13","NaN","<div style=""width:500px;"">
                            <p style=""font-size:50px; font-weight:bold;""
                            >disturbing</p>
                            <div style=""width:240px; margin: auto;"">
                                <img src=""images/B_D_U_26.png"" style= ""width:200px""alt=""img"">
                            </div>
                        </div>","-42","","0","images/B_D_U_26.png","","","","disturbing","1","26","B","D","U","",""
"","","","","","html-slider-response","46","311470","0.0-42.0","76fzq44obg","13","NaN","<div style=""width:500px;"">
                            <p style=""font-size:50px; font-weight:bold;""
                            >disturbing</p>
                            <div style=""width:240px; margin: auto;"">
                                <img src=""images/G_D_S_10.png"" style= ""width:200px""alt=""img"">
                            </div>
                        </div>","78","","0","images/G_D_S_10.png","","","","disturbing","2","10","G","D","S","",""
"","","","","","html-slider-response","47","313553","0.0-43.0","76fzq44obg","13","NaN","<div style=""width:500px;"">
                            <p style=""font-size:50px; font-weight:bold;""
                            >disturbing</p>
                            <div style=""width:240px; margin: auto;"">
                                <img src=""images/Y_D_S_30.png"" style= ""width:200px""alt=""img"">
                            </div>
                        </div>","110","","0","images/Y_D_S_30.png","","","","disturbing","2","30","Y","D","S","",""
"","","","","","html-slider-response","48","315402","0.0-44.0","76fzq44obg","13","NaN","<div style=""width:500px;"">
                            <p style=""font-size:50px; font-weight:bold;""
                            >disturbing</p>
                            <div style=""width:240px; margin: auto;"">
                                <img src=""images/R_D_U_02.png"" style= ""width:200px""alt=""img"">
                            </div>
                        </div>","118","","0","images/R_D_U_02.png","","","","disturbing","1","02","R","D","U","",""
"","","","","","html-slider-response","49","317261","0.0-45.0","76fzq44obg","13","NaN","<div style=""width:500px;"">
                            <p style=""font-size:50px; font-weight:bold;""
                            >disturbing</p>
                            <div style=""width:240px; margin: auto;"">
                                <img src=""images/R_L_S_37.png"" style= ""width:200px""alt=""img"">
                            </div>
                        </div>","154","","0","images/R_L_S_37.png","","","","disturbing","2","37","R","L","S","",""
"","","","","","html-button-response","50","319529","0.0-46.0","76fzq44obg","13","1766","<p>Great Job! You've finished block 1.<br></br> You have 7 block(s) left to go.<br></br></p>","0","","","","","","","","","","","","","",""
"","","","","","html-button-response","51","321954","0.0-47.0","76fzq44obg","13","2424","<p>In this block of trials, you will be asked to rate how much you associate each map with:</p > <p style = 'font-size:150%; font-weight: bold'>playful</p><br></br>","0","","","","","","","","","","","","","",""
"","","","","","html-slider-response","52","335619","0.0-48.0","76fzq44obg","13","NaN","<div style=""width:500px;"">
                            <p style=""font-size:50px; font-weight:bold;""
                            >playful</p>
                            <div style=""width:240px; margin: auto;"">
                                <img src=""images/G_L_U_07.png"" style= ""width:200px""alt=""img"">
                            </div>
                        </div>","59","","0","images/G_L_U_07.png","","","","playful","1","07","G","L","U","",""
"","","","","","html-slider-response","53","337298","0.0-49.0","76fzq44obg","13","NaN","<div style=""width:500px;"">
                            <p style=""font-size:50px; font-weight:bold;""
                            >playful</p>
                            <div style=""width:240px; margin: auto;"">
                                <img src=""images/R_L_S_37.png"" style= ""width:200px""alt=""img"">
                            </div>
                        </div>","78","","0","images/R_L_S_37.png","","","","playful","1","37","R","L","S","",""
"","","","","","html-slider-response","54","339147","0.0-50.0","76fzq44obg","13","NaN","<div style=""width:500px;"">
                            <p style=""font-size:50px; font-weight:bold;""
                            >playful</p>
                            <div style=""width:240px; margin: auto;"">
                                <img src=""images/B_D_U_26.png"" style= ""width:200px""alt=""img"">
                            </div>
                        </div>","-48","","0","images/B_D_U_26.png","","","","playful","2","26","B","D","U","",""
"","","","","","html-slider-response","55","340488","0.0-51.0","76fzq44obg","13","NaN","<div style=""width:500px;"">
                            <p style=""font-size:50px; font-weight:bold;""
                            >playful</p>
                            <div style=""width:240px; margin: auto;"">
                                <img src=""images/Y_L_S_27.png"" style= ""width:200px""alt=""img"">
                            </div>
                        </div>","58","","0","images/Y_L_S_27.png","","","","playful","2","27","Y","L","S","",""
"","","","","","html-slider-response","56","341872","0.0-52.0","76fzq44obg","13","NaN","<div style=""width:500px;"">
                            <p style=""font-size:50px; font-weight:bold;""
                            >playful</p>
                            <div style=""width:240px; margin: auto;"">
                                <img src=""images/R_D_U_02.png"" style= ""width:200px""alt=""img"">
                            </div>
                        </div>","110","","0","images/R_D_U_02.png","","","","playful","1","02","R","D","U","",""
"","","","","","html-slider-response","57","343213","0.0-53.0","76fzq44obg","13","NaN","<div style=""width:500px;"">
                            <p style=""font-size:50px; font-weight:bold;""
                            >playful</p>
                            <div style=""width:240px; margin: auto;"">
                                <img src=""images/R_L_U_41.png"" style= ""width:200px""alt=""img"">
                            </div>
                        </div>","78","","0","images/R_L_U_41.png","","","","playful","2","41","R","L","U","",""
"","","","","","html-slider-response","58","344806","0.0-54.0","76fzq44obg","13","NaN","<div style=""width:500px;"">
                            <p style=""font-size:50px; font-weight:bold;""
                            >playful</p>
                            <div style=""width:240px; margin: auto;"">
                                <img src=""images/Y_L_S_27.png"" style= ""width:200px""alt=""img"">
                            </div>
                        </div>","103","","0","images/Y_L_S_27.png","","","","playful","1","27","Y","L","S","",""
"","","","","","html-slider-response","59","346097","0.0-55.0","76fzq44obg","13","NaN","<div style=""width:500px;"">
                            <p style=""font-size:50px; font-weight:bold;""
                            >playful</p>
                            <div style=""width:240px; margin: auto;"">
                                <img src=""images/Y_D_U_33.png"" style= ""width:200px""alt=""img"">
                            </div>
                        </div>","-59","","0","images/Y_D_U_33.png","","","","playful","2","33","Y","D","U","",""
"","","","","","html-slider-response","60","347493","0.0-56.0","76fzq44obg","13","NaN","<div style=""width:500px;"">
                            <p style=""font-size:50px; font-weight:bold;""
                            >playful</p>
                            <div style=""width:240px; margin: auto;"">
                                <img src=""images/R_L_S_37.png"" style= ""width:200px""alt=""img"">
                            </div>
                        </div>","86","","0","images/R_L_S_37.png","","","","playful","2","37","R","L","S","",""
"","","","","","html-slider-response","61","348732","0.0-57.0","76fzq44obg","13","NaN","<div style=""width:500px;"">
                            <p style=""font-size:50px; font-weight:bold;""
                            >playful</p>
                            <div style=""width:240px; margin: auto;"">
                                <img src=""images/Y_D_S_30.png"" style= ""width:200px""alt=""img"">
                            </div>
                        </div>","-69","","0","images/Y_D_S_30.png","","","","playful","1","30","Y","D","S","",""
"","","","","","html-slider-response","62","350373","0.0-58.0","76fzq44obg","13","NaN","<div style=""width:500px;"">
                            <p style=""font-size:50px; font-weight:bold;""
                            >playful</p>
                            <div style=""width:240px; margin: auto;"">
                                <img src=""images/R_D_S_44.png"" style= ""width:200px""alt=""img"">
                            </div>
                        </div>","21","","0","images/R_D_S_44.png","","","","playful","1","44","R","D","S","",""
"","","","","","html-slider-response","63","352030","0.0-59.0","76fzq44obg","13","NaN","<div style=""width:500px;"">
                            <p style=""font-size:50px; font-weight:bold;""
                            >playful</p>
                            <div style=""width:240px; margin: auto;"">
                                <img src=""images/B_D_S_23.png"" style= ""width:200px""alt=""img"">
                            </div>
                        </div>","-84","","0","images/B_D_S_23.png","","","","playful","2","23","B","D","S","",""
"","","","","","html-slider-response","64","353722","0.0-60.0","76fzq44obg","13","NaN","<div style=""width:500px;"">
                            <p style=""font-size:50px; font-weight:bold;""
                            >playful</p>
                            <div style=""width:240px; margin: auto;"">
                                <img src=""images/Y_L_U_28.png"" style= ""width:200px""alt=""img"">
                            </div>
                        </div>","-35","","0","images/Y_L_U_28.png","","","","playful","2","28","Y","L","U","",""
"","","","","","html-slider-response","65","355314","0.0-61.0","76fzq44obg","13","NaN","<div style=""width:500px;"">
                            <p style=""font-size:50px; font-weight:bold;""
                            >playful</p>
                            <div style=""width:240px; margin: auto;"">
                                <img src=""images/G_L_U_07.png"" style= ""width:200px""alt=""img"">
                            </div>
                        </div>","92","","0","images/G_L_U_07.png","","","","playful","2","07","G","L","U","",""
"","","","","","html-slider-response","66","356602","0.0-62.0","76fzq44obg","13","NaN","<div style=""width:500px;"">
                            <p style=""font-size:50px; font-weight:bold;""
                            >playful</p>
                            <div style=""width:240px; margin: auto;"">
                                <img src=""images/G_D_S_10.png"" style= ""width:200px""alt=""img"">
                            </div>
                        </div>","-59","","0","images/G_D_S_10.png","","","","playful","1","10","G","D","S","",""
"","","","","","html-slider-response","67","358073","0.0-63.0","76fzq44obg","13","NaN","<div style=""width:500px;"">
                            <p style=""font-size:50px; font-weight:bold;""
                            >playful</p>
                            <div style=""width:240px; margin: auto;"">
                                <img src=""images/G_L_S_05.png"" style= ""width:200px""alt=""img"">
                            </div>
                        </div>","-60","","0","images/G_L_S_05.png","","","","playful","2","05","G","L","S","",""
"","","","","","html-slider-response","68","359697","0.0-64.0","76fzq44obg","13","NaN","<div style=""width:500px;"">
                            <p style=""font-size:50px; font-weight:bold;""
                            >playful</p>
                            <div style=""width:240px; margin: auto;"">
                                <img src=""images/R_D_U_02.png"" style= ""width:200px""alt=""img"">
                            </div>
                        </div>","22","","0","images/R_D_U_02.png","","","","playful","2","02","R","D","U","",""
"","","","","","html-slider-response","69","360956","0.0-65.0","76fzq44obg","13","NaN","<div style=""width:500px;"">
                            <p style=""font-size:50px; font-weight:bold;""
                            >playful</p>
                            <div style=""width:240px; margin: auto;"">
                                <img src=""images/R_L_U_41.png"" style= ""width:200px""alt=""img"">
                            </div>
                        </div>","110","","0","images/R_L_U_41.png","","","","playful","1","41","R","L","U","",""
"","","","","","html-slider-response","70","363994","0.0-66.0","76fzq44obg","13","NaN","<div style=""width:500px;"">
                            <p style=""font-size:50px; font-weight:bold;""
                            >playful</p>
                            <div style=""width:240px; margin: auto;"">
                                <img src=""images/G_D_U_12.png"" style= ""width:200px""alt=""img"">
                            </div>
                        </div>","-30","","0","images/G_D_U_12.png","","","","playful","1","12","G","D","U","",""
"","","","","","html-slider-response","71","365431","0.0-67.0","76fzq44obg","13","NaN","<div style=""width:500px;"">
                            <p style=""font-size:50px; font-weight:bold;""
                            >playful</p>
                            <div style=""width:240px; margin: auto;"">
                                <img src=""images/Y_D_U_33.png"" style= ""width:200px""alt=""img"">
                            </div>
                        </div>","-66","","0","images/Y_D_U_33.png","","","","playful","1","33","Y","D","U","",""
"","","","","","html-slider-response","72","367902","0.0-68.0","76fzq44obg","13","NaN","<div style=""width:500px;"">
                            <p style=""font-size:50px; font-weight:bold;""
                            >playful</p>
                            <div style=""width:240px; margin: auto;"">
                                <img src=""images/G_D_S_10.png"" style= ""width:200px""alt=""img"">
                            </div>
                        </div>","-73","","0","images/G_D_S_10.png","","","","playful","2","10","G","D","S","",""
"","","","","","html-slider-response","73","369316","0.0-69.0","76fzq44obg","13","NaN","<div style=""width:500px;"">
                            <p style=""font-size:50px; font-weight:bold;""
                            >playful</p>
                            <div style=""width:240px; margin: auto;"">
                                <img src=""images/B_L_S_13.png"" style= ""width:200px""alt=""img"">
                            </div>
                        </div>","64","","0","images/B_L_S_13.png","","","","playful","1","13","B","L","S","",""
"","","","","","html-slider-response","74","371096","0.0-70.0","76fzq44obg","13","NaN","<div style=""width:500px;"">
                            <p style=""font-size:50px; font-weight:bold;""
                            >playful</p>
                            <div style=""width:240px; margin: auto;"">
                                <img src=""images/Y_L_U_28.png"" style= ""width:200px""alt=""img"">
                            </div>
                        </div>","-30","","0","images/Y_L_U_28.png","","","","playful","1","28","Y","L","U","",""
"","","","","","html-slider-response","75","372772","0.0-71.0","76fzq44obg","13","NaN","<div style=""width:500px;"">
                            <p style=""font-size:50px; font-weight:bold;""
                            >playful</p>
                            <div style=""width:240px; margin: auto;"">
                                <img src=""images/B_D_S_23.png"" style= ""width:200px""alt=""img"">
                            </div>
                        </div>","54","","0","images/B_D_S_23.png","","","","playful","1","23","B","D","S","",""
"","","","","","html-slider-response","76","374001","0.0-72.0","76fzq44obg","13","NaN","<div style=""width:500px;"">
                            <p style=""font-size:50px; font-weight:bold;""
                            >playful</p>
                            <div style=""width:240px; margin: auto;"">
                                <img src=""images/B_L_U_15.png"" style= ""width:200px""alt=""img"">
                            </div>
                        </div>","103","","0","images/B_L_U_15.png","","","","playful","1","15","B","L","U","",""
"","","","","","html-slider-response","77","375447","0.0-73.0","76fzq44obg","13","NaN","<div style=""width:500px;"">
                            <p style=""font-size:50px; font-weight:bold;""
                            >playful</p>
                            <div style=""width:240px; margin: auto;"">
                                <img src=""images/R_D_S_44.png"" style= ""width:200px""alt=""img"">
                            </div>
                        </div>","71","","0","images/R_D_S_44.png","","","","playful","2","44","R","D","S","",""
"","","","","","html-slider-response","78","376951","0.0-74.0","76fzq44obg","13","NaN","<div style=""width:500px;"">
                            <p style=""font-size:50px; font-weight:bold;""
                            >playful</p>
                            <div style=""width:240px; margin: auto;"">
                                <img src=""images/B_L_S_13.png"" style= ""width:200px""alt=""img"">
                            </div>
                        </div>","74","","0","images/B_L_S_13.png","","","","playful","2","13","B","L","S","",""
"","","","","","html-slider-response","79","378573","0.0-75.0","76fzq44obg","13","NaN","<div style=""width:500px;"">
                            <p style=""font-size:50px; font-weight:bold;""
                            >playful</p>
                            <div style=""width:240px; margin: auto;"">
                                <img src=""images/G_D_U_12.png"" style= ""width:200px""alt=""img"">
                            </div>
                        </div>","-42","","0","images/G_D_U_12.png","","","","playful","2","12","G","D","U","",""
"","","","","","html-slider-response","80","380239","0.0-76.0","76fzq44obg","13","NaN","<div style=""width:500px;"">
                            <p style=""font-size:50px; font-weight:bold;""
                            >playful</p>
                            <div style=""width:240px; margin: auto;"">
                                <img src=""images/B_D_U_26.png"" style= ""width:200px""alt=""img"">
                            </div>
                        </div>","-95","","0","images/B_D_U_26.png","","","","playful","1","26","B","D","U","",""
"","","","","","html-slider-response","81","381581","0.0-77.0","76fzq44obg","13","NaN","<div style=""width:500px;"">
                            <p style=""font-size:50px; font-weight:bold;""
                            >playful</p>
                            <div style=""width:240px; margin: auto;"">
                                <img src=""images/Y_D_S_30.png"" style= ""width:200px""alt=""img"">
                            </div>
                        </div>","-37","","0","images/Y_D_S_30.png","","","","playful","2","30","Y","D","S","",""
"","","","","","html-slider-response","82","383784","0.0-78.0","76fzq44obg","13","NaN","<div style=""width:500px;"">
                            <p style=""font-size:50px; font-weight:bold;""
                            >playful</p>
                            <div style=""width:240px; margin: auto;"">
                                <img src=""images/G_L_S_05.png"" style= ""width:200px""alt=""img"">
                            </div>
                        </div>","50","","0","images/G_L_S_05.png","","","","playful","1","05","G","L","S","",""
"","","","","","html-slider-response","83","385297","0.0-79.0","76fzq44obg","13","NaN","<div style=""width:500px;"">
                            <p style=""font-size:50px; font-weight:bold;""
                            >playful</p>
                            <div style=""width:240px; margin: auto;"">
                                <img src=""images/B_L_U_15.png"" style= ""width:200px""alt=""img"">
                            </div>
                        </div>","-96","","0","images/B_L_U_15.png","","","","playful","2","15","B","L","U","",""
"","","","","","html-button-response","84","386630","0.0-80.0","76fzq44obg","13","830","<p>Great Job! You've finished block 2.<br></br> You have 6 block(s) left to go.<br></br></p>","0","","","","","","","","","","","","","",""
"","","","","","html-button-response","85","387629","0.0-81.0","76fzq44obg","13","998","<p>In this block of trials, you will be asked to rate how much you associate each map with:</p > <p style = 'font-size:150%; font-weight: bold'>calm</p><br></br>","0","","","","","","","","","","","","","",""
"","","","","","html-slider-response","86","389506","0.0-82.0","76fzq44obg","13","NaN","<div style=""width:500px;"">
                            <p style=""font-size:50px; font-weight:bold;""
                            >calm</p>
                            <div style=""width:240px; margin: auto;"">
                                <img src=""images/Y_L_U_28.png"" style= ""width:200px""alt=""img"">
                            </div>
                        </div>","-74","","0","images/Y_L_U_28.png","","","","calm","1","28","Y","L","U","",""
"","","","","","html-slider-response","87","391032","0.0-83.0","76fzq44obg","13","NaN","<div style=""width:500px;"">
                            <p style=""font-size:50px; font-weight:bold;""
                            >calm</p>
                            <div style=""width:240px; margin: auto;"">
                                <img src=""images/R_D_S_44.png"" style= ""width:200px""alt=""img"">
                            </div>
                        </div>","-98","","0","images/R_D_S_44.png","","","","calm","2","44","R","D","S","",""
"","","","","","html-slider-response","88","392598","0.0-84.0","76fzq44obg","13","NaN","<div style=""width:500px;"">
                            <p style=""font-size:50px; font-weight:bold;""
                            >calm</p>
                            <div style=""width:240px; margin: auto;"">
                                <img src=""images/B_L_S_13.png"" style= ""width:200px""alt=""img"">
                            </div>
                        </div>","200","","0","images/B_L_S_13.png","","","","calm","1","13","B","L","S","",""
"","","","","","html-slider-response","89","394335","0.0-85.0","76fzq44obg","13","NaN","<div style=""width:500px;"">
                            <p style=""font-size:50px; font-weight:bold;""
                            >calm</p>
                            <div style=""width:240px; margin: auto;"">
                                <img src=""images/G_D_U_12.png"" style= ""width:200px""alt=""img"">
                            </div>
                        </div>","44","","0","images/G_D_U_12.png","","","","calm","2","12","G","D","U","",""
"","","","","","html-slider-response","90","395881","0.0-86.0","76fzq44obg","13","NaN","<div style=""width:500px;"">
                            <p style=""font-size:50px; font-weight:bold;""
                            >calm</p>
                            <div style=""width:240px; margin: auto;"">
                                <img src=""images/B_D_S_23.png"" style= ""width:200px""alt=""img"">
                            </div>
                        </div>","139","","0","images/B_D_S_23.png","","","","calm","1","23","B","D","S","",""
"","","","","","html-slider-response","91","398240","0.0-87.0","76fzq44obg","13","NaN","<div style=""width:500px;"">
                            <p style=""font-size:50px; font-weight:bold;""
                            >calm</p>
                            <div style=""width:240px; margin: auto;"">
                                <img src=""images/Y_D_U_33.png"" style= ""width:200px""alt=""img"">
                            </div>
                        </div>","200","","0","images/Y_D_U_33.png","","","","calm","2","33","Y","D","U","",""
"","","","","","html-slider-response","92","399548","0.0-88.0","76fzq44obg","13","NaN","<div style=""width:500px;"">
                            <p style=""font-size:50px; font-weight:bold;""
                            >calm</p>
                            <div style=""width:240px; margin: auto;"">
                                <img src=""images/B_L_U_15.png"" style= ""width:200px""alt=""img"">
                            </div>
                        </div>","200","","0","images/B_L_U_15.png","","","","calm","2","15","B","L","U","",""
"","","","","","html-slider-response","93","401123","0.0-89.0","76fzq44obg","13","NaN","<div style=""width:500px;"">
                            <p style=""font-size:50px; font-weight:bold;""
                            >calm</p>
                            <div style=""width:240px; margin: auto;"">
                                <img src=""images/Y_D_S_30.png"" style= ""width:200px""alt=""img"">
                            </div>
                        </div>","-41","","0","images/Y_D_S_30.png","","","","calm","1","30","Y","D","S","",""
"","","","","","html-slider-response","94","402949","0.0-90.0","76fzq44obg","13","NaN","<div style=""width:500px;"">
                            <p style=""font-size:50px; font-weight:bold;""
                            >calm</p>
                            <div style=""width:240px; margin: auto;"">
                                <img src=""images/R_L_U_41.png"" style= ""width:200px""alt=""img"">
                            </div>
                        </div>","-94","","0","images/R_L_U_41.png","","","","calm","2","41","R","L","U","",""
"","","","","","html-slider-response","95","404411","0.0-91.0","76fzq44obg","13","NaN","<div style=""width:500px;"">
                            <p style=""font-size:50px; font-weight:bold;""
                            >calm</p>
                            <div style=""width:240px; margin: auto;"">
                                <img src=""images/Y_L_U_28.png"" style= ""width:200px""alt=""img"">
                            </div>
                        </div>","-94","","0","images/Y_L_U_28.png","","","","calm","2","28","Y","L","U","",""
"","","","","","html-slider-response","96","406098","0.0-92.0","76fzq44obg","13","NaN","<div style=""width:500px;"">
                            <p style=""font-size:50px; font-weight:bold;""
                            >calm</p>
                            <div style=""width:240px; margin: auto;"">
                                <img src=""images/G_D_S_10.png"" style= ""width:200px""alt=""img"">
                            </div>
                        </div>","114","","0","images/G_D_S_10.png","","","","calm","2","10","G","D","S","",""
"","","","","","html-slider-response","97","407572","0.0-93.0","76fzq44obg","13","NaN","<div style=""width:500px;"">
                            <p style=""font-size:50px; font-weight:bold;""
                            >calm</p>
                            <div style=""width:240px; margin: auto;"">
                                <img src=""images/G_L_U_07.png"" style= ""width:200px""alt=""img"">
                            </div>
                        </div>","96","","0","images/G_L_U_07.png","","","","calm","1","07","G","L","U","",""
"","","","","","html-slider-response","98","408969","0.0-94.0","76fzq44obg","13","NaN","<div style=""width:500px;"">
                            <p style=""font-size:50px; font-weight:bold;""
                            >calm</p>
                            <div style=""width:240px; margin: auto;"">
                                <img src=""images/B_L_U_15.png"" style= ""width:200px""alt=""img"">
                            </div>
                        </div>","89","","0","images/B_L_U_15.png","","","","calm","1","15","B","L","U","",""
"","","","","","html-slider-response","99","410777","0.0-95.0","76fzq44obg","13","NaN","<div style=""width:500px;"">
                            <p style=""font-size:50px; font-weight:bold;""
                            >calm</p>
                            <div style=""width:240px; margin: auto;"">
                                <img src=""images/B_D_U_26.png"" style= ""width:200px""alt=""img"">
                            </div>
                        </div>","119","","0","images/B_D_U_26.png","","","","calm","1","26","B","D","U","",""
"","","","","","html-slider-response","100","411742","0.0-96.0","76fzq44obg","13","NaN","<div style=""width:500px;"">
                            <p style=""font-size:50px; font-weight:bold;""
                            >calm</p>
                            <div style=""width:240px; margin: auto;"">
                                <img src=""images/B_D_S_23.png"" style= ""width:200px""alt=""img"">
                            </div>
                        </div>","16","","0","images/B_D_S_23.png","","","","calm","2","23","B","D","S","",""
"","","","","","html-slider-response","101","414559","0.0-97.0","76fzq44obg","13","NaN","<div style=""width:500px;"">
                            <p style=""font-size:50px; font-weight:bold;""
                            >calm</p>
                            <div style=""width:240px; margin: auto;"">
                                <img src=""images/G_L_U_07.png"" style= ""width:200px""alt=""img"">
                            </div>
                        </div>","150","","0","images/G_L_U_07.png","","","","calm","2","07","G","L","U","",""
"","","","","","html-slider-response","102","416499","0.0-98.0","76fzq44obg","13","NaN","<div style=""width:500px;"">
                            <p style=""font-size:50px; font-weight:bold;""
                            >calm</p>
                            <div style=""width:240px; margin: auto;"">
                                <img src=""images/R_L_S_37.png"" style= ""width:200px""alt=""img"">
                            </div>
                        </div>","-112","","0","images/R_L_S_37.png","","","","calm","1","37","R","L","S","",""
"","","","","","html-slider-response","103","420207","0.0-99.0","76fzq44obg","13","NaN","<div style=""width:500px;"">
                            <p style=""font-size:50px; font-weight:bold;""
                            >calm</p>
                            <div style=""width:240px; margin: auto;"">
                                <img src=""images/R_D_U_02.png"" style= ""width:200px""alt=""img"">
                            </div>
                        </div>","-106","","0","images/R_D_U_02.png","","","","calm","1","02","R","D","U","",""
"","","","","","html-slider-response","104","421776","0.0-100.0","76fzq44obg","13","NaN","<div style=""width:500px;"">
                            <p style=""font-size:50px; font-weight:bold;""
                            >calm</p>
                            <div style=""width:240px; margin: auto;"">
                                <img src=""images/G_L_S_05.png"" style= ""width:200px""alt=""img"">
                            </div>
                        </div>","87","","0","images/G_L_S_05.png","","","","calm","2","05","G","L","S","",""
"","","","","","html-slider-response","105","423281","0.0-101.0","76fzq44obg","13","NaN","<div style=""width:500px;"">
                            <p style=""font-size:50px; font-weight:bold;""
                            >calm</p>
                            <div style=""width:240px; margin: auto;"">
                                <img src=""images/Y_L_S_27.png"" style= ""width:200px""alt=""img"">
                            </div>
                        </div>","-82","","0","images/Y_L_S_27.png","","","","calm","2","27","Y","L","S","",""
"","","","","","html-slider-response","106","424776","0.0-102.0","76fzq44obg","13","NaN","<div style=""width:500px;"">
                            <p style=""font-size:50px; font-weight:bold;""
                            >calm</p>
                            <div style=""width:240px; margin: auto;"">
                                <img src=""images/B_D_U_26.png"" style= ""width:200px""alt=""img"">
                            </div>
                        </div>","74","","0","images/B_D_U_26.png","","","","calm","2","26","B","D","U","",""
"","","","","","html-slider-response","107","426157","0.0-103.0","76fzq44obg","13","NaN","<div style=""width:500px;"">
                            <p style=""font-size:50px; font-weight:bold;""
                            >calm</p>
                            <div style=""width:240px; margin: auto;"">
                                <img src=""images/R_D_S_44.png"" style= ""width:200px""alt=""img"">
                            </div>
                        </div>","-114","","0","images/R_D_S_44.png","","","","calm","1","44","R","D","S","",""
"","","","","","html-slider-response","108","428752","0.0-104.0","76fzq44obg","13","NaN","<div style=""width:500px;"">
                            <p style=""font-size:50px; font-weight:bold;""
                            >calm</p>
                            <div style=""width:240px; margin: auto;"">
                                <img src=""images/G_D_U_12.png"" style= ""width:200px""alt=""img"">
                            </div>
                        </div>","90","","0","images/G_D_U_12.png","","","","calm","1","12","G","D","U","",""
"","","","","","html-slider-response","109","430269","0.0-105.0","76fzq44obg","13","NaN","<div style=""width:500px;"">
                            <p style=""font-size:50px; font-weight:bold;""
                            >calm</p>
                            <div style=""width:240px; margin: auto;"">
                                <img src=""images/B_L_S_13.png"" style= ""width:200px""alt=""img"">
                            </div>
                        </div>","160","","0","images/B_L_S_13.png","","","","calm","2","13","B","L","S","",""
"","","","","","html-slider-response","110","431755","0.0-106.0","76fzq44obg","13","NaN","<div style=""width:500px;"">
                            <p style=""font-size:50px; font-weight:bold;""
                            >calm</p>
                            <div style=""width:240px; margin: auto;"">
                                <img src=""images/Y_D_U_33.png"" style= ""width:200px""alt=""img"">
                            </div>
                        </div>","-87","","0","images/Y_D_U_33.png","","","","calm","1","33","Y","D","U","",""
"","","","","","html-slider-response","111","433382","0.0-107.0","76fzq44obg","13","NaN","<div style=""width:500px;"">
                            <p style=""font-size:50px; font-weight:bold;""
                            >calm</p>
                            <div style=""width:240px; margin: auto;"">
                                <img src=""images/R_D_U_02.png"" style= ""width:200px""alt=""img"">
                            </div>
                        </div>","-124","","0","images/R_D_U_02.png","","","","calm","2","02","R","D","U","",""
"","","","","","html-slider-response","112","434811","0.0-108.0","76fzq44obg","13","NaN","<div style=""width:500px;"">
                            <p style=""font-size:50px; font-weight:bold;""
                            >calm</p>
                            <div style=""width:240px; margin: auto;"">
                                <img src=""images/Y_L_S_27.png"" style= ""width:200px""alt=""img"">
                            </div>
                        </div>","-98","","0","images/Y_L_S_27.png","","","","calm","1","27","Y","L","S","",""
"","","","","","html-slider-response","113","436610","0.0-109.0","76fzq44obg","13","NaN","<div style=""width:500px;"">
                            <p style=""font-size:50px; font-weight:bold;""
                            >calm</p>
                            <div style=""width:240px; margin: auto;"">
                                <img src=""images/G_D_S_10.png"" style= ""width:200px""alt=""img"">
                            </div>
                        </div>","-138","","0","images/G_D_S_10.png","","","","calm","1","10","G","D","S","",""
"","","","","","html-slider-response","114","438211","0.0-110.0","76fzq44obg","13","NaN","<div style=""width:500px;"">
                            <p style=""font-size:50px; font-weight:bold;""
                            >calm</p>
                            <div style=""width:240px; margin: auto;"">
                                <img src=""images/Y_D_S_30.png"" style= ""width:200px""alt=""img"">
                            </div>
                        </div>","-92","","0","images/Y_D_S_30.png","","","","calm","2","30","Y","D","S","",""
"","","","","","html-slider-response","115","439829","0.0-111.0","76fzq44obg","13","NaN","<div style=""width:500px;"">
                            <p style=""font-size:50px; font-weight:bold;""
                            >calm</p>
                            <div style=""width:240px; margin: auto;"">
                                <img src=""images/G_L_S_05.png"" style= ""width:200px""alt=""img"">
                            </div>
                        </div>","78","","0","images/G_L_S_05.png","","","","calm","1","05","G","L","S","",""
"","","","","","html-slider-response","116","441143","0.0-112.0","76fzq44obg","13","NaN","<div style=""width:500px;"">
                            <p style=""font-size:50px; font-weight:bold;""
                            >calm</p>
                            <div style=""width:240px; margin: auto;"">
                                <img src=""images/R_L_S_37.png"" style= ""width:200px""alt=""img"">
                            </div>
                        </div>","-109","","0","images/R_L_S_37.png","","","","calm","2","37","R","L","S","",""
"","","","","","html-slider-response","117","442528","0.0-113.0","76fzq44obg","13","NaN","<div style=""width:500px;"">
                            <p style=""font-size:50px; font-weight:bold;""
                            >calm</p>
                            <div style=""width:240px; margin: auto;"">
                                <img src=""images/R_L_U_41.png"" style= ""width:200px""alt=""img"">
                            </div>
                        </div>","-94","","0","images/R_L_U_41.png","","","","calm","1","41","R","L","U","",""
"","","","","","html-button-response","118","444654","0.0-114.0","76fzq44obg","13","1624","<p>Great Job! You've finished block 3.<br></br> You have 5 block(s) left to go.<br></br></p>","0","","","","","","","","","","","","","",""
"","","","","","html-button-response","119","445812","0.0-115.0","76fzq44obg","13","1157","<p>In this block of trials, you will be asked to rate how much you associate each map with:</p > <p style = 'font-size:150%; font-weight: bold'>exciting</p><br></br>","0","","","","","","","","","","","","","",""
"","","","","","html-slider-response","120","446885","0.0-116.0","76fzq44obg","13","NaN","<div style=""width:500px;"">
                            <p style=""font-size:50px; font-weight:bold;""
                            >exciting</p>
                            <div style=""width:240px; margin: auto;"">
                                <img src=""images/B_L_S_13.png"" style= ""width:200px""alt=""img"">
                            </div>
                        </div>","200","","0","images/B_L_S_13.png","","","","exciting","1","13","B","L","S","",""
"","","","","","html-slider-response","121","448335","0.0-117.0","76fzq44obg","13","NaN","<div style=""width:500px;"">
                            <p style=""font-size:50px; font-weight:bold;""
                            >exciting</p>
                            <div style=""width:240px; margin: auto;"">
                                <img src=""images/B_D_U_26.png"" style= ""width:200px""alt=""img"">
                            </div>
                        </div>","-75","","0","images/B_D_U_26.png","","","","exciting","2","26","B","D","U","",""
"","","","","","html-slider-response","122","449807","0.0-118.0","76fzq44obg","13","NaN","<div style=""width:500px;"">
                            <p style=""font-size:50px; font-weight:bold;""
                            >exciting</p>
                            <div style=""width:240px; margin: auto;"">
                                <img src=""images/B_D_S_23.png"" style= ""width:200px""alt=""img"">
                            </div>
                        </div>","66","","0","images/B_D_S_23.png","","","","exciting","1","23","B","D","S","",""
"","","","","","html-slider-response","123","451184","0.0-119.0","76fzq44obg","13","NaN","<div style=""width:500px;"">
                            <p style=""font-size:50px; font-weight:bold;""
                            >exciting</p>
                            <div style=""width:240px; margin: auto;"">
                                <img src=""images/R_L_U_41.png"" style= ""width:200px""alt=""img"">
                            </div>
                        </div>","153","","0","images/R_L_U_41.png","","","","exciting","1","41","R","L","U","",""
"","","","","","html-slider-response","124","452656","0.0-120.0","76fzq44obg","13","NaN","<div style=""width:500px;"">
                            <p style=""font-size:50px; font-weight:bold;""
                            >exciting</p>
                            <div style=""width:240px; margin: auto;"">
                                <img src=""images/Y_L_U_28.png"" style= ""width:200px""alt=""img"">
                            </div>
                        </div>","-100","","0","images/Y_L_U_28.png","","","","exciting","2","28","Y","L","U","",""
"","","","","","html-slider-response","125","454653","0.0-121.0","76fzq44obg","13","NaN","<div style=""width:500px;"">
                            <p style=""font-size:50px; font-weight:bold;""
                            >exciting</p>
                            <div style=""width:240px; margin: auto;"">
                                <img src=""images/Y_L_S_27.png"" style= ""width:200px""alt=""img"">
                            </div>
                        </div>","96","","0","images/Y_L_S_27.png","","","","exciting","1","27","Y","L","S","",""
"","","","","","html-slider-response","126","456848","0.0-122.0","76fzq44obg","13","NaN","<div style=""width:500px;"">
                            <p style=""font-size:50px; font-weight:bold;""
                            >exciting</p>
                            <div style=""width:240px; margin: auto;"">
                                <img src=""images/R_D_U_02.png"" style= ""width:200px""alt=""img"">
                            </div>
                        </div>","34","","0","images/R_D_U_02.png","","","","exciting","2","02","R","D","U","",""
"","","","","","html-slider-response","127","458865","0.0-123.0","76fzq44obg","13","NaN","<div style=""width:500px;"">
                            <p style=""font-size:50px; font-weight:bold;""
                            >exciting</p>
                            <div style=""width:240px; margin: auto;"">
                                <img src=""images/R_L_U_41.png"" style= ""width:200px""alt=""img"">
                            </div>
                        </div>","126","","0","images/R_L_U_41.png","","","","exciting","2","41","R","L","U","",""
"","","","","","html-slider-response","128","460923","0.0-124.0","76fzq44obg","13","NaN","<div style=""width:500px;"">
                            <p style=""font-size:50px; font-weight:bold;""
                            >exciting</p>
                            <div style=""width:240px; margin: auto;"">
                                <img src=""images/R_D_S_44.png"" style= ""width:200px""alt=""img"">
                            </div>
                        </div>","98","","0","images/R_D_S_44.png","","","","exciting","2","44","R","D","S","",""
"","","","","","html-slider-response","129","462489","0.0-125.0","76fzq44obg","13","NaN","<div style=""width:500px;"">
                            <p style=""font-size:50px; font-weight:bold;""
                            >exciting</p>
                            <div style=""width:240px; margin: auto;"">
                                <img src=""images/B_D_U_26.png"" style= ""width:200px""alt=""img"">
                            </div>
                        </div>","-98","","0","images/B_D_U_26.png","","","","exciting","1","26","B","D","U","",""
"","","","","","html-slider-response","130","464327","0.0-126.0","76fzq44obg","13","NaN","<div style=""width:500px;"">
                            <p style=""font-size:50px; font-weight:bold;""
                            >exciting</p>
                            <div style=""width:240px; margin: auto;"">
                                <img src=""images/G_D_S_10.png"" style= ""width:200px""alt=""img"">
                            </div>
                        </div>","-98","","0","images/G_D_S_10.png","","","","exciting","2","10","G","D","S","",""
"","","","","","html-slider-response","131","466239","0.0-127.0","76fzq44obg","13","NaN","<div style=""width:500px;"">
                            <p style=""font-size:50px; font-weight:bold;""
                            >exciting</p>
                            <div style=""width:240px; margin: auto;"">
                                <img src=""images/Y_D_U_33.png"" style= ""width:200px""alt=""img"">
                            </div>
                        </div>","-122","","0","images/Y_D_U_33.png","","","","exciting","1","33","Y","D","U","",""
"","","","","","html-slider-response","132","467760","0.0-128.0","76fzq44obg","13","NaN","<div style=""width:500px;"">
                            <p style=""font-size:50px; font-weight:bold;""
                            >exciting</p>
                            <div style=""width:240px; margin: auto;"">
                                <img src=""images/G_D_U_12.png"" style= ""width:200px""alt=""img"">
                            </div>
                        </div>","-101","","0","images/G_D_U_12.png","","","","exciting","1","12","G","D","U","",""
"","","","","","html-slider-response","133","469515","0.0-129.0","76fzq44obg","13","NaN","<div style=""width:500px;"">
                            <p style=""font-size:50px; font-weight:bold;""
                            >exciting</p>
                            <div style=""width:240px; margin: auto;"">
                                <img src=""images/G_D_S_10.png"" style= ""width:200px""alt=""img"">
                            </div>
                        </div>","58","","0","images/G_D_S_10.png","","","","exciting","1","10","G","D","S","",""
"","","","","","html-slider-response","134","471372","0.0-130.0","76fzq44obg","13","NaN","<div style=""width:500px;"">
                            <p style=""font-size:50px; font-weight:bold;""
                            >exciting</p>
                            <div style=""width:240px; margin: auto;"">
                                <img src=""images/R_L_S_37.png"" style= ""width:200px""alt=""img"">
                            </div>
                        </div>","108","","0","images/R_L_S_37.png","","","","exciting","2","37","R","L","S","",""
"","","","","","html-slider-response","135","473670","0.0-131.0","76fzq44obg","13","NaN","<div style=""width:500px;"">
                            <p style=""font-size:50px; font-weight:bold;""
                            >exciting</p>
                            <div style=""width:240px; margin: auto;"">
                                <img src=""images/B_L_S_13.png"" style= ""width:200px""alt=""img"">
                            </div>
                        </div>","94","","0","images/B_L_S_13.png","","","","exciting","2","13","B","L","S","",""
"","","","","","html-slider-response","136","474949","0.0-132.0","76fzq44obg","13","NaN","<div style=""width:500px;"">
                            <p style=""font-size:50px; font-weight:bold;""
                            >exciting</p>
                            <div style=""width:240px; margin: auto;"">
                                <img src=""images/B_L_U_15.png"" style= ""width:200px""alt=""img"">
                            </div>
                        </div>","33","","0","images/B_L_U_15.png","","","","exciting","1","15","B","L","U","",""
"","","","","","html-slider-response","137","476784","0.0-133.0","76fzq44obg","13","NaN","<div style=""width:500px;"">
                            <p style=""font-size:50px; font-weight:bold;""
                            >exciting</p>
                            <div style=""width:240px; margin: auto;"">
                                <img src=""images/G_L_S_05.png"" style= ""width:200px""alt=""img"">
                            </div>
                        </div>","150","","0","images/G_L_S_05.png","","","","exciting","1","05","G","L","S","",""
"","","","","","html-slider-response","138","478253","0.0-134.0","76fzq44obg","13","NaN","<div style=""width:500px;"">
                            <p style=""font-size:50px; font-weight:bold;""
                            >exciting</p>
                            <div style=""width:240px; margin: auto;"">
                                <img src=""images/G_L_U_07.png"" style= ""width:200px""alt=""img"">
                            </div>
                        </div>","10","","0","images/G_L_U_07.png","","","","exciting","2","07","G","L","U","",""
"","","","","","html-slider-response","139","480085","0.0-135.0","76fzq44obg","13","NaN","<div style=""width:500px;"">
                            <p style=""font-size:50px; font-weight:bold;""
                            >exciting</p>
                            <div style=""width:240px; margin: auto;"">
                                <img src=""images/G_L_U_07.png"" style= ""width:200px""alt=""img"">
                            </div>
                        </div>","105","","0","images/G_L_U_07.png","","","","exciting","1","07","G","L","U","",""
"","","","","","html-slider-response","140","481590","0.0-136.0","76fzq44obg","13","NaN","<div style=""width:500px;"">
                            <p style=""font-size:50px; font-weight:bold;""
                            >exciting</p>
                            <div style=""width:240px; margin: auto;"">
                                <img src=""images/G_D_U_12.png"" style= ""width:200px""alt=""img"">
                            </div>
                        </div>","-110","","0","images/G_D_U_12.png","","","","exciting","2","12","G","D","U","",""
"","","","","","html-slider-response","141","483673","0.0-137.0","76fzq44obg","13","NaN","<div style=""width:500px;"">
                            <p style=""font-size:50px; font-weight:bold;""
                            >exciting</p>
                            <div style=""width:240px; margin: auto;"">
                                <img src=""images/B_D_S_23.png"" style= ""width:200px""alt=""img"">
                            </div>
                        </div>","91","","0","images/B_D_S_23.png","","","","exciting","2","23","B","D","S","",""
"","","","","","html-slider-response","142","485273","0.0-138.0","76fzq44obg","13","NaN","<div style=""width:500px;"">
                            <p style=""font-size:50px; font-weight:bold;""
                            >exciting</p>
                            <div style=""width:240px; margin: auto;"">
                                <img src=""images/B_L_U_15.png"" style= ""width:200px""alt=""img"">
                            </div>
                        </div>","115","","0","images/B_L_U_15.png","","","","exciting","2","15","B","L","U","",""
"","","","","","html-slider-response","143","488628","0.0-139.0","76fzq44obg","13","NaN","<div style=""width:500px;"">
                            <p style=""font-size:50px; font-weight:bold;""
                            >exciting</p>
                            <div style=""width:240px; margin: auto;"">
                                <img src=""images/R_D_U_02.png"" style= ""width:200px""alt=""img"">
                            </div>
                        </div>","-67","","0","images/R_D_U_02.png","","","","exciting","1","02","R","D","U","",""
"","","","","","html-slider-response","144","490348","0.0-140.0","76fzq44obg","13","NaN","<div style=""width:500px;"">
                            <p style=""font-size:50px; font-weight:bold;""
                            >exciting</p>
                            <div style=""width:240px; margin: auto;"">
                                <img src=""images/Y_L_S_27.png"" style= ""width:200px""alt=""img"">
                            </div>
                        </div>","84","","0","images/Y_L_S_27.png","","","","exciting","2","27","Y","L","S","",""
"","","","","","html-slider-response","145","491819","0.0-141.0","76fzq44obg","13","NaN","<div style=""width:500px;"">
                            <p style=""font-size:50px; font-weight:bold;""
                            >exciting</p>
                            <div style=""width:240px; margin: auto;"">
                                <img src=""images/Y_L_U_28.png"" style= ""width:200px""alt=""img"">
                            </div>
                        </div>","50","","0","images/Y_L_U_28.png","","","","exciting","1","28","Y","L","U","",""
"","","","","","html-slider-response","146","493292","0.0-142.0","76fzq44obg","13","NaN","<div style=""width:500px;"">
                            <p style=""font-size:50px; font-weight:bold;""
                            >exciting</p>
                            <div style=""width:240px; margin: auto;"">
                                <img src=""images/Y_D_U_33.png"" style= ""width:200px""alt=""img"">
                            </div>
                        </div>","-166","","0","images/Y_D_U_33.png","","","","exciting","2","33","Y","D","U","",""
"","","","","","html-slider-response","147","494609","0.0-143.0","76fzq44obg","13","NaN","<div style=""width:500px;"">
                            <p style=""font-size:50px; font-weight:bold;""
                            >exciting</p>
                            <div style=""width:240px; margin: auto;"">
                                <img src=""images/Y_D_S_30.png"" style= ""width:200px""alt=""img"">
                            </div>
                        </div>","-200","","0","images/Y_D_S_30.png","","","","exciting","2","30","Y","D","S","",""
"","","","","","html-slider-response","148","496665","0.0-144.0","76fzq44obg","13","NaN","<div style=""width:500px;"">
                            <p style=""font-size:50px; font-weight:bold;""
                            >exciting</p>
                            <div style=""width:240px; margin: auto;"">
                                <img src=""images/G_L_S_05.png"" style= ""width:200px""alt=""img"">
                            </div>
                        </div>","38","","0","images/G_L_S_05.png","","","","exciting","2","05","G","L","S","",""
"","","","","","html-slider-response","149","497791","0.0-145.0","76fzq44obg","13","NaN","<div style=""width:500px;"">
                            <p style=""font-size:50px; font-weight:bold;""
                            >exciting</p>
                            <div style=""width:240px; margin: auto;"">
                                <img src=""images/R_L_S_37.png"" style= ""width:200px""alt=""img"">
                            </div>
                        </div>","48","","0","images/R_L_S_37.png","","","","exciting","1","37","R","L","S","",""
"","","","","","html-slider-response","150","499264","0.0-146.0","76fzq44obg","13","NaN","<div style=""width:500px;"">
                            <p style=""font-size:50px; font-weight:bold;""
                            >exciting</p>
                            <div style=""width:240px; margin: auto;"">
                                <img src=""images/Y_D_S_30.png"" style= ""width:200px""alt=""img"">
                            </div>
                        </div>","-124","","0","images/Y_D_S_30.png","","","","exciting","1","30","Y","D","S","",""
"","","","","","html-slider-response","151","500865","0.0-147.0","76fzq44obg","13","NaN","<div style=""width:500px;"">
                            <p style=""font-size:50px; font-weight:bold;""
                            >exciting</p>
                            <div style=""width:240px; margin: auto;"">
                                <img src=""images/R_D_S_44.png"" style= ""width:200px""alt=""img"">
                            </div>
                        </div>","98","","0","images/R_D_S_44.png","","","","exciting","1","44","R","D","S","",""
"","","","","","html-button-response","152","502146","0.0-148.0","76fzq44obg","13","779","<p>Great Job! You've finished block 4.<br></br> You have 4 block(s) left to go.<br></br></p>","0","","","","","","","","","","","","","",""
"","","","","","html-button-response","153","502892","0.0-149.0","76fzq44obg","13","745","<p>In this block of trials, you will be asked to rate how much you associate each map with:</p > <p style = 'font-size:150%; font-weight: bold'>negative</p><br></br>","0","","","","","","","","","","","","","",""
"","","","","","html-slider-response","154","504169","0.0-150.0","76fzq44obg","13","NaN","<div style=""width:500px;"">
                            <p style=""font-size:50px; font-weight:bold;""
                            >negative</p>
                            <div style=""width:240px; margin: auto;"">
                                <img src=""images/B_D_U_26.png"" style= ""width:200px""alt=""img"">
                            </div>
                        </div>","200","","0","images/B_D_U_26.png","","","","negative","2","26","B","D","U","",""
"","","","","","html-slider-response","155","506148","0.0-151.0","76fzq44obg","13","NaN","<div style=""width:500px;"">
                            <p style=""font-size:50px; font-weight:bold;""
                            >negative</p>
                            <div style=""width:240px; margin: auto;"">
                                <img src=""images/B_L_U_15.png"" style= ""width:200px""alt=""img"">
                            </div>
                        </div>","68","","0","images/B_L_U_15.png","","","","negative","1","15","B","L","U","",""
"","","","","","html-slider-response","156","507596","0.0-152.0","76fzq44obg","13","NaN","<div style=""width:500px;"">
                            <p style=""font-size:50px; font-weight:bold;""
                            >negative</p>
                            <div style=""width:240px; margin: auto;"">
                                <img src=""images/G_L_U_07.png"" style= ""width:200px""alt=""img"">
                            </div>
                        </div>","200","","0","images/G_L_U_07.png","","","","negative","2","07","G","L","U","",""
"","","","","","html-slider-response","157","509211","0.0-153.0","76fzq44obg","13","NaN","<div style=""width:500px;"">
                            <p style=""font-size:50px; font-weight:bold;""
                            >negative</p>
                            <div style=""width:240px; margin: auto;"">
                                <img src=""images/R_L_U_41.png"" style= ""width:200px""alt=""img"">
                            </div>
                        </div>","-46","","0","images/R_L_U_41.png","","","","negative","2","41","R","L","U","",""
"","","","","","html-slider-response","158","510745","0.0-154.0","76fzq44obg","13","NaN","<div style=""width:500px;"">
                            <p style=""font-size:50px; font-weight:bold;""
                            >negative</p>
                            <div style=""width:240px; margin: auto;"">
                                <img src=""images/G_D_U_12.png"" style= ""width:200px""alt=""img"">
                            </div>
                        </div>","10","","0","images/G_D_U_12.png","","","","negative","2","12","G","D","U","",""
"","","","","","html-slider-response","159","512014","0.0-155.0","76fzq44obg","13","NaN","<div style=""width:500px;"">
                            <p style=""font-size:50px; font-weight:bold;""
                            >negative</p>
                            <div style=""width:240px; margin: auto;"">
                                <img src=""images/G_D_U_12.png"" style= ""width:200px""alt=""img"">
                            </div>
                        </div>","200","","0","images/G_D_U_12.png","","","","negative","1","12","G","D","U","",""
"","","","","","html-slider-response","160","514510","0.0-156.0","76fzq44obg","13","NaN","<div style=""width:500px;"">
                            <p style=""font-size:50px; font-weight:bold;""
                            >negative</p>
                            <div style=""width:240px; margin: auto;"">
                                <img src=""images/B_D_S_23.png"" style= ""width:200px""alt=""img"">
                            </div>
                        </div>","200","","0","images/B_D_S_23.png","","","","negative","1","23","B","D","S","",""
"","","","","","html-slider-response","161","515860","0.0-157.0","76fzq44obg","13","NaN","<div style=""width:500px;"">
                            <p style=""font-size:50px; font-weight:bold;""
                            >negative</p>
                            <div style=""width:240px; margin: auto;"">
                                <img src=""images/Y_D_U_33.png"" style= ""width:200px""alt=""img"">
                            </div>
                        </div>","200","","0","images/Y_D_U_33.png","","","","negative","2","33","Y","D","U","",""
"","","","","","html-slider-response","162","517200","0.0-158.0","76fzq44obg","13","NaN","<div style=""width:500px;"">
                            <p style=""font-size:50px; font-weight:bold;""
                            >negative</p>
                            <div style=""width:240px; margin: auto;"">
                                <img src=""images/Y_D_S_30.png"" style= ""width:200px""alt=""img"">
                            </div>
                        </div>","200","","0","images/Y_D_S_30.png","","","","negative","2","30","Y","D","S","",""
"","","","","","html-slider-response","163","518726","0.0-159.0","76fzq44obg","13","NaN","<div style=""width:500px;"">
                            <p style=""font-size:50px; font-weight:bold;""
                            >negative</p>
                            <div style=""width:240px; margin: auto;"">
                                <img src=""images/B_D_S_23.png"" style= ""width:200px""alt=""img"">
                            </div>
                        </div>","62","","0","images/B_D_S_23.png","","","","negative","2","23","B","D","S","",""
"","","","","","html-slider-response","164","521765","0.0-160.0","76fzq44obg","13","NaN","<div style=""width:500px;"">
                            <p style=""font-size:50px; font-weight:bold;""
                            >negative</p>
                            <div style=""width:240px; margin: auto;"">
                                <img src=""images/G_L_S_05.png"" style= ""width:200px""alt=""img"">
                            </div>
                        </div>","-44","","0","images/G_L_S_05.png","","","","negative","1","05","G","L","S","",""
"","","","","","html-slider-response","165","523632","0.0-161.0","76fzq44obg","13","NaN","<div style=""width:500px;"">
                            <p style=""font-size:50px; font-weight:bold;""
                            >negative</p>
                            <div style=""width:240px; margin: auto;"">
                                <img src=""images/R_L_S_37.png"" style= ""width:200px""alt=""img"">
                            </div>
                        </div>","-94","","0","images/R_L_S_37.png","","","","negative","2","37","R","L","S","",""
"","","","","","html-slider-response","166","525652","0.0-162.0","76fzq44obg","13","NaN","<div style=""width:500px;"">
                            <p style=""font-size:50px; font-weight:bold;""
                            >negative</p>
                            <div style=""width:240px; margin: auto;"">
                                <img src=""images/Y_L_S_27.png"" style= ""width:200px""alt=""img"">
                            </div>
                        </div>","-125","","0","images/Y_L_S_27.png","","","","negative","1","27","Y","L","S","",""
"","","","","","html-slider-response","167","527573","0.0-163.0","76fzq44obg","13","NaN","<div style=""width:500px;"">
                            <p style=""font-size:50px; font-weight:bold;""
                            >negative</p>
                            <div style=""width:240px; margin: auto;"">
                                <img src=""images/R_D_U_02.png"" style= ""width:200px""alt=""img"">
                            </div>
                        </div>","123","","0","images/R_D_U_02.png","","","","negative","1","02","R","D","U","",""
"","","","","","html-slider-response","168","530023","0.0-164.0","76fzq44obg","13","NaN","<div style=""width:500px;"">
                            <p style=""font-size:50px; font-weight:bold;""
                            >negative</p>
                            <div style=""width:240px; margin: auto;"">
                                <img src=""images/R_L_S_37.png"" style= ""width:200px""alt=""img"">
                            </div>
                        </div>","-128","","0","images/R_L_S_37.png","","","","negative","1","37","R","L","S","",""
"","","","","","html-slider-response","169","531816","0.0-165.0","76fzq44obg","13","NaN","<div style=""width:500px;"">
                            <p style=""font-size:50px; font-weight:bold;""
                            >negative</p>
                            <div style=""width:240px; margin: auto;"">
                                <img src=""images/G_L_S_05.png"" style= ""width:200px""alt=""img"">
                            </div>
                        </div>","-49","","0","images/G_L_S_05.png","","","","negative","2","05","G","L","S","",""
"","","","","","html-slider-response","170","533586","0.0-166.0","76fzq44obg","13","NaN","<div style=""width:500px;"">
                            <p style=""font-size:50px; font-weight:bold;""
                            >negative</p>
                            <div style=""width:240px; margin: auto;"">
                                <img src=""images/B_L_U_15.png"" style= ""width:200px""alt=""img"">
                            </div>
                        </div>","-103","","0","images/B_L_U_15.png","","","","negative","2","15","B","L","U","",""
"","","","","","html-slider-response","171","536656","0.0-167.0","76fzq44obg","13","NaN","<div style=""width:500px;"">
                            <p style=""font-size:50px; font-weight:bold;""
                            >negative</p>
                            <div style=""width:240px; margin: auto;"">
                                <img src=""images/G_D_S_10.png"" style= ""width:200px""alt=""img"">
                            </div>
                        </div>","77","","0","images/G_D_S_10.png","","","","negative","1","10","G","D","S","",""
"","","","","","html-slider-response","172","538674","0.0-168.0","76fzq44obg","13","NaN","<div style=""width:500px;"">
                            <p style=""font-size:50px; font-weight:bold;""
                            >negative</p>
                            <div style=""width:240px; margin: auto;"">
                                <img src=""images/R_L_U_41.png"" style= ""width:200px""alt=""img"">
                            </div>
                        </div>","-106","","0","images/R_L_U_41.png","","","","negative","1","41","R","L","U","",""
"","","","","","html-slider-response","173","540478","0.0-169.0","76fzq44obg","13","NaN","<div style=""width:500px;"">
                            <p style=""font-size:50px; font-weight:bold;""
                            >negative</p>
                            <div style=""width:240px; margin: auto;"">
                                <img src=""images/B_D_U_26.png"" style= ""width:200px""alt=""img"">
                            </div>
                        </div>","129","","0","images/B_D_U_26.png","","","","negative","1","26","B","D","U","",""
"","","","","","html-slider-response","174","542294","0.0-170.0","76fzq44obg","13","NaN","<div style=""width:500px;"">
                            <p style=""font-size:50px; font-weight:bold;""
                            >negative</p>
                            <div style=""width:240px; margin: auto;"">
                                <img src=""images/Y_D_U_33.png"" style= ""width:200px""alt=""img"">
                            </div>
                        </div>","138","","0","images/Y_D_U_33.png","","","","negative","1","33","Y","D","U","",""
"","","","","","html-slider-response","175","543893","0.0-171.0","76fzq44obg","13","NaN","<div style=""width:500px;"">
                            <p style=""font-size:50px; font-weight:bold;""
                            >negative</p>
                            <div style=""width:240px; margin: auto;"">
                                <img src=""images/B_L_S_13.png"" style= ""width:200px""alt=""img"">
                            </div>
                        </div>","-95","","0","images/B_L_S_13.png","","","","negative","1","13","B","L","S","",""
"","","","","","html-slider-response","176","546028","0.0-172.0","76fzq44obg","13","NaN","<div style=""width:500px;"">
                            <p style=""font-size:50px; font-weight:bold;""
                            >negative</p>
                            <div style=""width:240px; margin: auto;"">
                                <img src=""images/Y_D_S_30.png"" style= ""width:200px""alt=""img"">
                            </div>
                        </div>","127","","0","images/Y_D_S_30.png","","","","negative","1","30","Y","D","S","",""
"","","","","","html-slider-response","177","547756","0.0-173.0","76fzq44obg","13","NaN","<div style=""width:500px;"">
                            <p style=""font-size:50px; font-weight:bold;""
                            >negative</p>
                            <div style=""width:240px; margin: auto;"">
                                <img src=""images/Y_L_U_28.png"" style= ""width:200px""alt=""img"">
                            </div>
                        </div>","135","","0","images/Y_L_U_28.png","","","","negative","2","28","Y","L","U","",""
"","","","","","html-slider-response","178","548975","0.0-174.0","76fzq44obg","13","NaN","<div style=""width:500px;"">
                            <p style=""font-size:50px; font-weight:bold;""
                            >negative</p>
                            <div style=""width:240px; margin: auto;"">
                                <img src=""images/G_D_S_10.png"" style= ""width:200px""alt=""img"">
                            </div>
                        </div>","200","","0","images/G_D_S_10.png","","","","negative","2","10","G","D","S","",""
"","","","","","html-slider-response","179","550510","0.0-175.0","76fzq44obg","13","NaN","<div style=""width:500px;"">
                            <p style=""font-size:50px; font-weight:bold;""
                            >negative</p>
                            <div style=""width:240px; margin: auto;"">
                                <img src=""images/G_L_U_07.png"" style= ""width:200px""alt=""img"">
                            </div>
                        </div>","-82","","0","images/G_L_U_07.png","","","","negative","1","07","G","L","U","",""
"","","","","","html-slider-response","180","551829","0.0-176.0","76fzq44obg","13","NaN","<div style=""width:500px;"">
                            <p style=""font-size:50px; font-weight:bold;""
                            >negative</p>
                            <div style=""width:240px; margin: auto;"">
                                <img src=""images/R_D_U_02.png"" style= ""width:200px""alt=""img"">
                            </div>
                        </div>","-90","","0","images/R_D_U_02.png","","","","negative","2","02","R","D","U","",""
"","","","","","html-slider-response","181","553282","0.0-177.0","76fzq44obg","13","NaN","<div style=""width:500px;"">
                            <p style=""font-size:50px; font-weight:bold;""
                            >negative</p>
                            <div style=""width:240px; margin: auto;"">
                                <img src=""images/R_D_S_44.png"" style= ""width:200px""alt=""img"">
                            </div>
                        </div>","-101","","0","images/R_D_S_44.png","","","","negative","1","44","R","D","S","",""
"","","","","","html-slider-response","182","554627","0.0-178.0","76fzq44obg","13","NaN","<div style=""width:500px;"">
                            <p style=""font-size:50px; font-weight:bold;""
                            >negative</p>
                            <div style=""width:240px; margin: auto;"">
                                <img src=""images/B_L_S_13.png"" style= ""width:200px""alt=""img"">
                            </div>
                        </div>","-136","","0","images/B_L_S_13.png","","","","negative","2","13","B","L","S","",""
"","","","","","html-slider-response","183","556074","0.0-179.0","76fzq44obg","13","NaN","<div style=""width:500px;"">
                            <p style=""font-size:50px; font-weight:bold;""
                            >negative</p>
                            <div style=""width:240px; margin: auto;"">
                                <img src=""images/Y_L_U_28.png"" style= ""width:200px""alt=""img"">
                            </div>
                        </div>","-105","","0","images/Y_L_U_28.png","","","","negative","1","28","Y","L","U","",""
"","","","","","html-slider-response","184","557369","0.0-180.0","76fzq44obg","13","NaN","<div style=""width:500px;"">
                            <p style=""font-size:50px; font-weight:bold;""
                            >negative</p>
                            <div style=""width:240px; margin: auto;"">
