"success","timeout","failed_images","failed_audio","failed_video","trial_type","trial_index","time_elapsed","internal_node_id","subject_id","condition_num","rt","stimulus","response","question_order","slider_start","image_path","practiceTrial","practiceTrialNum","correct","concept","repetition","map_id","hue","lightness","saturation","ishihara_plate","correct_response"
"true","false","[]","[]","[]","preload","0","251","0.0-0.0","7ma4azxsro","14","","","","","","","","","","","","","","","","",""
"","","","","","html-button-response","1","1813","0.0-1.0","7ma4azxsro","14","1559","Welcome to our experiment!<p>At the bottom of this screen, you will see a button that says ""Begin Experiment"".<br>Please only click that button when you are ready to complete the 25 minute experiment in one sitting.</p><p> Once you click that button, it will not be possible to restart the experiment.","0","","","","","","","","","","","","","",""
"true","","","","","fullscreen","2","4520","0.0-2.0","7ma4azxsro","14","1693","","","","","","","","","","","","","","","",""
"","","","","","survey-multi-select","3","14083","0.0-3.0","7ma4azxsro","14","9557","","{""Consent"":[""<strong>I consent</strong>""]}","[0]","","","","","","","","","","","","",""
"","","","","","html-button-response","4","20744","0.0-4.0","7ma4azxsro","14","6660","Welcome! <p> This experiment involves two parts: demographic information, followed by the experimental task.<p> It will take about 25 minutes to complete both parts.","0","","","","","","","","","","","","","",""
"","","","","","survey-text","5","36987","0.0-5.0","7ma4azxsro","14","16239","","{""Age"":""19"",""Gender"":""female"",""Race/ethnicity"":""Asian"",""Languages"":""Hmong, English""}","","","","","","","","","","","","","",""
"","","","","","html-slider-response","6","114938","0.0-6.0","7ma4azxsro","14","77948","
                            <div style='text-align:left; font-size:20px; line-height:25px; width: 1400px;'>
                                During this experiment you will be asked to rate how much you associate maps with                    different concepts.<br> Below, you can see some examples of the maps you will be asked to rate. Next to the maps
                    is the list of concepts.<br>You will be asked                    to rate how much you associate each map with each concept on a scale from 'not at all' to 'very much' like the
                    one below. <br><br>
                    Now, please look at the list of concepts and maps. For each concept, think about the map you associate 'very
                    much' with the concept.<br>                     When you see that map during the experiment, please rate it near the 'very much' endpoint of the
                    scale.<br>Now, please think about which map you associate 'not at all'                     with each concept. When you see that map during the experiment, please rate it near the 'not at all' endpoint
                    of the scale.<br>
                    Please use the full range of the scale. That is, if a map is somewhat associated with the concept, you would
                    click partway between the middle point and right side of the scale.                    You will be asked to rate each map for a given concept before moving on to the next concept.<br><br>Press the
                    'Continue' button for instructions on how to use the slider.                    <br><br>
                </div>

                <div style=""width: 500px; margin: 0 auto;"">
                    <!-- Centered text paragraphs -->
                    <div style=""text-align: center; width: 500px;"">
                        <p style=""font-size:25px; line-height:18px;"">calm</p>
                        <p style=""font-size:25px; line-height:18px;"">exciting</p>
                        <p style=""font-size:25px;line-height:18px;"">positive</p>
                        <p style=""font-size:25px;line-height:18px;"">negative</p>
                        <p style=""font-size:25px;line-height:18px;"">serious</p>
                        <p style=""font-size:25px;line-height:18px;"">playful</p>
                        <p style=""font-size:25px;line-height:18px;"">trustworthy</p>
                        <p style=""font-size:25px;line-height:18px;"">disturbing</p>
                    </div>

                    <!-- Grid section -->
                   <div style=""display: flex; justify-content: center; padding-top: 15px;"">
                    <div style=""display: grid; grid-template-columns: repeat(8, 80px); grid-gap: 5px; width: auto;"">
                        <img src=""images/G_L_S_07.png"" alt=""map"" style=""width: 100%;""><img src=""images/Y_D_S_33.png"" alt=""map"" style=""width: 100%;""><img src=""images/Y_L_U_30.png"" alt=""map"" style=""width: 100%;""><img src=""images/G_D_S_12.png"" alt=""map"" style=""width: 100%;""><img src=""images/B_D_U_27.png"" alt=""map"" style=""width: 100%;""><img src=""images/Y_D_U_37.png"" alt=""map"" style=""width: 100%;""><img src=""images/B_D_S_26.png"" alt=""map"" style=""width: 100%;""><img src=""images/G_D_U_13.png"" alt=""map"" style=""width: 100%;""><img src=""images/B_L_U_23.png"" alt=""map"" style=""width: 100%;""><img src=""images/R_L_S_41.png"" alt=""map"" style=""width: 100%;""><img src=""images/G_L_U_10.png"" alt=""map"" style=""width: 100%;""><img src=""images/R_L_U_44.png"" alt=""map"" style=""width: 100%;""><img src=""images/Y_L_S_28.png"" alt=""map"" style=""width: 100%;""><img src=""images/B_L_S_15.png"" alt=""map"" style=""width: 100%;""><img src=""images/R_D_S_02.png"" alt=""map"" style=""width: 100%;""><img src=""images/R_D_U_05.png"" alt=""map"" style=""width: 100%;"">
                    </div>
                </div>

                    <!-- Clear floats -->
                    <div style=""clear: both;""></div>
                </div>
                            ","179","","0","maps_anchoring.png","true","","","","","","","","","",""
"","","","","","html-button-response","7","116238","0.0-7.0","7ma4azxsro","14","1298","<div style=""width:800px;""><p style=""text-align:left"">To move the slider, click and drag your cursor to the location of the scale where you would like to make your rating and then let go. When you let go of the slider, your response will be recorded and the next trial will begin. <br>
                    We are interested in your initial impressions of each map for the given concept, so please go with your first intuition. <br>
                    Before you begin the experiment, there will be four training trials for you to practice using the scale. <br>
                     When you are ready to start the training trials, please click ""Continue"".</p><br></div>","0","","","","","","","","","","","","","",""
"","","","","","html-slider-response","8","120516","0.0-8.0-0.0","7ma4azxsro","14","NaN","<div style=""width:500px;"">
                                    <p style=""font-size:25px;"">Please move the slider all the way to the <br> right endpoint of the scale</p>

                                    </div>
                                </div>","200","","0","","true","0","true","","","","","","","",""
"","","","","","html-button-response","9","121868","0.0-8.0-1.0","7ma4azxsro","14","850","<p align='center'><b>Good job!</b> Click on 'Continue' to proceed.</p>","0","","","","","","","","","","","","","",""
"","","","","","html-slider-response","10","123794","0.0-9.0-0.0","7ma4azxsro","14","NaN","<div style=""width:500px;"">
                                    <p style=""font-size:25px;"">Please move the slider all the way to the <br> left endpoint of the scale</p>

                                    </div>
                                </div>","-200","","0","","true","1","true","","","","","","","",""
"","","","","","html-button-response","11","124970","0.0-9.0-1.0","7ma4azxsro","14","666","<p align='center'><b>Good job!</b> Click on 'Continue' to proceed.</p>","0","","","","","","","","","","","","","",""
"","","","","","html-slider-response","12","129761","0.0-10.0-0.0","7ma4azxsro","14","NaN","<div style=""width:500px;"">
                                    <p style=""font-size:25px;"">Please move the slider halfway between the center and right endpoint of the scale</p>

                                    </div>
                                </div>","92","","0","","true","2","true","","","","","","","",""
"","","","","","html-button-response","13","131027","0.0-10.0-1.0","7ma4azxsro","14","752","<p align='center'><b>Good job!</b> Click on 'Continue' to proceed.</p>","0","","","","","","","","","","","","","",""
"","","","","","html-slider-response","14","132166","0.0-11.0-0.0","7ma4azxsro","14","NaN","<div style=""width:500px;"">
                                    <p style=""font-size:25px;"">Please move the slider halfway between the center and left endpoint of the scale</p>

                                    </div>
                                </div>","-115","","0","","true","3","false","","","","","","","",""
"","","","","","html-button-response","15","133230","0.0-11.0-1.0","7ma4azxsro","14","551","<p align='center'><b>Not quite!</b> The slider was not placed near the instructed located. Click on 'Continue' to try again. </p>","0","","","","","","","","","","","","","",""
"","","","","","html-slider-response","16","138372","0.0-11.1-0.1","7ma4azxsro","14","NaN","<div style=""width:500px;"">
                                    <p style=""font-size:25px;"">Please move the slider halfway between the center and left endpoint of the scale</p>

                                    </div>
                                </div>","-97","","0","","true","3","true","","","","","","","",""
"","","","","","html-button-response","17","139623","0.0-11.1-1.1","7ma4azxsro","14","733","<p align='center'><b>Good job!</b> Click on 'Continue' to proceed.</p>","0","","","","","","","","","","","","","",""
"","","","","","html-button-response","18","140502","0.0-12.0","7ma4azxsro","14","879","<p>Great job! You've completed the practice trials. Now you will begin the main task.</p>","0","","","","","","","","","","","","","",""
"","","","","","html-button-response","19","142181","0.0-13.0","7ma4azxsro","14","1677","<p>In this block of trials, you will be asked to rate how much you associate each map with:</p > <p style = 'font-size:150%; font-weight: bold'>calm</p><br></br>","0","","","","","","","","","","","","","",""
"","","","","","html-slider-response","20","145425","0.0-14.0","7ma4azxsro","14","NaN","<div style=""width:500px;"">
                            <p style=""font-size:50px; font-weight:bold;""
                            >calm</p>
                            <div style=""width:240px; margin: auto;"">
                                <img src=""images/B_D_S_26.png"" style= ""width:200px""alt=""img"">
                            </div>
                        </div>","-46","","0","images/B_D_S_26.png","","","","calm","1","26","B","D","S","",""
"","","","","","html-slider-response","21","147514","0.0-15.0","7ma4azxsro","14","NaN","<div style=""width:500px;"">
                            <p style=""font-size:50px; font-weight:bold;""
                            >calm</p>
                            <div style=""width:240px; margin: auto;"">
                                <img src=""images/R_D_S_02.png"" style= ""width:200px""alt=""img"">
                            </div>
                        </div>","-41","","0","images/R_D_S_02.png","","","","calm","1","02","R","D","S","",""
"","","","","","html-slider-response","22","149605","0.0-16.0","7ma4azxsro","14","NaN","<div style=""width:500px;"">
                            <p style=""font-size:50px; font-weight:bold;""
                            >calm</p>
                            <div style=""width:240px; margin: auto;"">
                                <img src=""images/B_L_S_15.png"" style= ""width:200px""alt=""img"">
                            </div>
                        </div>","-83","","0","images/B_L_S_15.png","","","","calm","2","15","B","L","S","",""
"","","","","","html-slider-response","23","152033","0.0-17.0","7ma4azxsro","14","NaN","<div style=""width:500px;"">
                            <p style=""font-size:50px; font-weight:bold;""
                            >calm</p>
                            <div style=""width:240px; margin: auto;"">
                                <img src=""images/R_D_S_02.png"" style= ""width:200px""alt=""img"">
                            </div>
                        </div>","3","","0","images/R_D_S_02.png","","","","calm","2","02","R","D","S","",""
"","","","","","html-slider-response","24","154459","0.0-18.0","7ma4azxsro","14","NaN","<div style=""width:500px;"">
                            <p style=""font-size:50px; font-weight:bold;""
                            >calm</p>
                            <div style=""width:240px; margin: auto;"">
                                <img src=""images/R_L_U_44.png"" style= ""width:200px""alt=""img"">
                            </div>
                        </div>","32","","0","images/R_L_U_44.png","","","","calm","1","44","R","L","U","",""
"","","","","","html-slider-response","25","157114","0.0-19.0","7ma4azxsro","14","NaN","<div style=""width:500px;"">
                            <p style=""font-size:50px; font-weight:bold;""
                            >calm</p>
                            <div style=""width:240px; margin: auto;"">
                                <img src=""images/G_D_U_13.png"" style= ""width:200px""alt=""img"">
                            </div>
                        </div>","97","","0","images/G_D_U_13.png","","","","calm","1","13","G","D","U","",""
"","","","","","html-slider-response","26","159066","0.0-20.0","7ma4azxsro","14","NaN","<div style=""width:500px;"">
                            <p style=""font-size:50px; font-weight:bold;""
                            >calm</p>
                            <div style=""width:240px; margin: auto;"">
                                <img src=""images/B_D_U_27.png"" style= ""width:200px""alt=""img"">
                            </div>
                        </div>","82","","0","images/B_D_U_27.png","","","","calm","1","27","B","D","U","",""
"","","","","","html-slider-response","27","161014","0.0-21.0","7ma4azxsro","14","NaN","<div style=""width:500px;"">
                            <p style=""font-size:50px; font-weight:bold;""
                            >calm</p>
                            <div style=""width:240px; margin: auto;"">
                                <img src=""images/R_L_S_41.png"" style= ""width:200px""alt=""img"">
                            </div>
                        </div>","-89","","0","images/R_L_S_41.png","","","","calm","1","41","R","L","S","",""
"","","","","","html-slider-response","28","163114","0.0-22.0","7ma4azxsro","14","NaN","<div style=""width:500px;"">
                            <p style=""font-size:50px; font-weight:bold;""
                            >calm</p>
                            <div style=""width:240px; margin: auto;"">
                                <img src=""images/Y_D_S_33.png"" style= ""width:200px""alt=""img"">
                            </div>
                        </div>","15","","0","images/Y_D_S_33.png","","","","calm","1","33","Y","D","S","",""
"","","","","","html-slider-response","29","164673","0.0-23.0","7ma4azxsro","14","NaN","<div style=""width:500px;"">
                            <p style=""font-size:50px; font-weight:bold;""
                            >calm</p>
                            <div style=""width:240px; margin: auto;"">
                                <img src=""images/B_L_U_23.png"" style= ""width:200px""alt=""img"">
                            </div>
                        </div>","-89","","0","images/B_L_U_23.png","","","","calm","1","23","B","L","U","",""
"","","","","","html-slider-response","30","166700","0.0-24.0","7ma4azxsro","14","NaN","<div style=""width:500px;"">
                            <p style=""font-size:50px; font-weight:bold;""
                            >calm</p>
                            <div style=""width:240px; margin: auto;"">
                                <img src=""images/Y_D_U_37.png"" style= ""width:200px""alt=""img"">
                            </div>
                        </div>","27","","0","images/Y_D_U_37.png","","","","calm","1","37","Y","D","U","",""
"","","","","","html-slider-response","31","168607","0.0-25.0","7ma4azxsro","14","NaN","<div style=""width:500px;"">
                            <p style=""font-size:50px; font-weight:bold;""
                            >calm</p>
                            <div style=""width:240px; margin: auto;"">
                                <img src=""images/G_D_S_12.png"" style= ""width:200px""alt=""img"">
                            </div>
                        </div>","-21","","0","images/G_D_S_12.png","","","","calm","1","12","G","D","S","",""
"","","","","","html-slider-response","32","170790","0.0-26.0","7ma4azxsro","14","NaN","<div style=""width:500px;"">
                            <p style=""font-size:50px; font-weight:bold;""
                            >calm</p>
                            <div style=""width:240px; margin: auto;"">
                                <img src=""images/R_D_U_05.png"" style= ""width:200px""alt=""img"">
                            </div>
                        </div>","-12","","0","images/R_D_U_05.png","","","","calm","2","05","R","D","U","",""
"","","","","","html-slider-response","33","171469","0.0-27.0","7ma4azxsro","14","NaN","<div style=""width:500px;"">
                            <p style=""font-size:50px; font-weight:bold;""
                            >calm</p>
                            <div style=""width:240px; margin: auto;"">
                                <img src=""images/B_D_S_26.png"" style= ""width:200px""alt=""img"">
                            </div>
                        </div>","41","","0","images/B_D_S_26.png","","","","calm","2","26","B","D","S","",""
"","","","","","html-slider-response","34","173030","0.0-28.0","7ma4azxsro","14","NaN","<div style=""width:500px;"">
                            <p style=""font-size:50px; font-weight:bold;""
                            >calm</p>
                            <div style=""width:240px; margin: auto;"">
                                <img src=""images/G_L_U_10.png"" style= ""width:200px""alt=""img"">
                            </div>
                        </div>","-33","","0","images/G_L_U_10.png","","","","calm","2","10","G","L","U","",""
"","","","","","html-slider-response","35","174452","0.0-29.0","7ma4azxsro","14","NaN","<div style=""width:500px;"">
                            <p style=""font-size:50px; font-weight:bold;""
                            >calm</p>
                            <div style=""width:240px; margin: auto;"">
                                <img src=""images/Y_L_U_30.png"" style= ""width:200px""alt=""img"">
                            </div>
                        </div>","-59","","0","images/Y_L_U_30.png","","","","calm","2","30","Y","L","U","",""
"","","","","","html-slider-response","36","177094","0.0-30.0","7ma4azxsro","14","NaN","<div style=""width:500px;"">
                            <p style=""font-size:50px; font-weight:bold;""
                            >calm</p>
                            <div style=""width:240px; margin: auto;"">
                                <img src=""images/B_L_U_23.png"" style= ""width:200px""alt=""img"">
                            </div>
                        </div>","-85","","0","images/B_L_U_23.png","","","","calm","2","23","B","L","U","",""
"","","","","","html-slider-response","37","178998","0.0-31.0","7ma4azxsro","14","NaN","<div style=""width:500px;"">
                            <p style=""font-size:50px; font-weight:bold;""
                            >calm</p>
                            <div style=""width:240px; margin: auto;"">
                                <img src=""images/R_D_U_05.png"" style= ""width:200px""alt=""img"">
                            </div>
                        </div>","2","","0","images/R_D_U_05.png","","","","calm","1","05","R","D","U","",""
"","","","","","html-slider-response","38","180432","0.0-32.0","7ma4azxsro","14","NaN","<div style=""width:500px;"">
                            <p style=""font-size:50px; font-weight:bold;""
                            >calm</p>
                            <div style=""width:240px; margin: auto;"">
                                <img src=""images/Y_L_S_28.png"" style= ""width:200px""alt=""img"">
                            </div>
                        </div>","-53","","0","images/Y_L_S_28.png","","","","calm","1","28","Y","L","S","",""
"","","","","","html-slider-response","39","182739","0.0-33.0","7ma4azxsro","14","NaN","<div style=""width:500px;"">
                            <p style=""font-size:50px; font-weight:bold;""
                            >calm</p>
                            <div style=""width:240px; margin: auto;"">
                                <img src=""images/G_D_S_12.png"" style= ""width:200px""alt=""img"">
                            </div>
                        </div>","10","","0","images/G_D_S_12.png","","","","calm","2","12","G","D","S","",""
"","","","","","html-slider-response","40","184115","0.0-34.0","7ma4azxsro","14","NaN","<div style=""width:500px;"">
                            <p style=""font-size:50px; font-weight:bold;""
                            >calm</p>
                            <div style=""width:240px; margin: auto;"">
                                <img src=""images/R_L_U_44.png"" style= ""width:200px""alt=""img"">
                            </div>
                        </div>","-60","","0","images/R_L_U_44.png","","","","calm","2","44","R","L","U","",""
"","","","","","html-slider-response","41","185332","0.0-35.0","7ma4azxsro","14","NaN","<div style=""width:500px;"">
                            <p style=""font-size:50px; font-weight:bold;""
                            >calm</p>
                            <div style=""width:240px; margin: auto;"">
                                <img src=""images/G_L_U_10.png"" style= ""width:200px""alt=""img"">
                            </div>
                        </div>","-65","","0","images/G_L_U_10.png","","","","calm","1","10","G","L","U","",""
"","","","","","html-slider-response","42","186276","0.0-36.0","7ma4azxsro","14","NaN","<div style=""width:500px;"">
                            <p style=""font-size:50px; font-weight:bold;""
                            >calm</p>
                            <div style=""width:240px; margin: auto;"">
                                <img src=""images/Y_D_U_37.png"" style= ""width:200px""alt=""img"">
                            </div>
                        </div>","-65","","0","images/Y_D_U_37.png","","","","calm","2","37","Y","D","U","",""
"","","","","","html-slider-response","43","187395","0.0-37.0","7ma4azxsro","14","NaN","<div style=""width:500px;"">
                            <p style=""font-size:50px; font-weight:bold;""
                            >calm</p>
                            <div style=""width:240px; margin: auto;"">
                                <img src=""images/G_L_S_07.png"" style= ""width:200px""alt=""img"">
                            </div>
                        </div>","-61","","0","images/G_L_S_07.png","","","","calm","2","07","G","L","S","",""
"","","","","","html-slider-response","44","189218","0.0-38.0","7ma4azxsro","14","NaN","<div style=""width:500px;"">
                            <p style=""font-size:50px; font-weight:bold;""
                            >calm</p>
                            <div style=""width:240px; margin: auto;"">
                                <img src=""images/G_D_U_13.png"" style= ""width:200px""alt=""img"">
                            </div>
                        </div>","30","","0","images/G_D_U_13.png","","","","calm","2","13","G","D","U","",""
"","","","","","html-slider-response","45","190866","0.0-39.0","7ma4azxsro","14","NaN","<div style=""width:500px;"">
                            <p style=""font-size:50px; font-weight:bold;""
                            >calm</p>
                            <div style=""width:240px; margin: auto;"">
                                <img src=""images/B_L_S_15.png"" style= ""width:200px""alt=""img"">
                            </div>
                        </div>","-141","","0","images/B_L_S_15.png","","","","calm","1","15","B","L","S","",""
"","","","","","html-slider-response","46","192204","0.0-40.0","7ma4azxsro","14","NaN","<div style=""width:500px;"">
                            <p style=""font-size:50px; font-weight:bold;""
                            >calm</p>
                            <div style=""width:240px; margin: auto;"">
                                <img src=""images/Y_L_U_30.png"" style= ""width:200px""alt=""img"">
                            </div>
                        </div>","-40","","0","images/Y_L_U_30.png","","","","calm","1","30","Y","L","U","",""
"","","","","","html-slider-response","47","193578","0.0-41.0","7ma4azxsro","14","NaN","<div style=""width:500px;"">
                            <p style=""font-size:50px; font-weight:bold;""
                            >calm</p>
                            <div style=""width:240px; margin: auto;"">
                                <img src=""images/Y_L_S_28.png"" style= ""width:200px""alt=""img"">
                            </div>
                        </div>","-75","","0","images/Y_L_S_28.png","","","","calm","2","28","Y","L","S","",""
"","","","","","html-slider-response","48","329340","0.0-42.0","7ma4azxsro","14","NaN","<div style=""width:500px;"">
                            <p style=""font-size:50px; font-weight:bold;""
                            >calm</p>
                            <div style=""width:240px; margin: auto;"">
                                <img src=""images/R_L_S_41.png"" style= ""width:200px""alt=""img"">
                            </div>
                        </div>","-106","","0","images/R_L_S_41.png","","","","calm","2","41","R","L","S","",""
"","","","","","html-slider-response","49","331483","0.0-43.0","7ma4azxsro","14","NaN","<div style=""width:500px;"">
                            <p style=""font-size:50px; font-weight:bold;""
                            >calm</p>
                            <div style=""width:240px; margin: auto;"">
                                <img src=""images/Y_D_S_33.png"" style= ""width:200px""alt=""img"">
                            </div>
                        </div>","-12","","0","images/Y_D_S_33.png","","","","calm","2","33","Y","D","S","",""
"","","","","","html-slider-response","50","356089","0.0-44.0","7ma4azxsro","14","NaN","<div style=""width:500px;"">
                            <p style=""font-size:50px; font-weight:bold;""
                            >calm</p>
                            <div style=""width:240px; margin: auto;"">
                                <img src=""images/B_D_U_27.png"" style= ""width:200px""alt=""img"">
                            </div>
                        </div>","8","","0","images/B_D_U_27.png","","","","calm","2","27","B","D","U","",""
"","","","","","html-slider-response","51","358075","0.0-45.0","7ma4azxsro","14","NaN","<div style=""width:500px;"">
                            <p style=""font-size:50px; font-weight:bold;""
                            >calm</p>
                            <div style=""width:240px; margin: auto;"">
                                <img src=""images/G_L_S_07.png"" style= ""width:200px""alt=""img"">
                            </div>
                        </div>","-102","","0","images/G_L_S_07.png","","","","calm","1","07","G","L","S","",""
"","","","","","html-button-response","52","359672","0.0-46.0","7ma4azxsro","14","1080","<p>Great Job! You've finished block 1.<br></br> You have 7 block(s) left to go.<br></br></p>","0","","","","","","","","","","","","","",""
"","","","","","html-button-response","53","360689","0.0-47.0","7ma4azxsro","14","1015","<p>In this block of trials, you will be asked to rate how much you associate each map with:</p > <p style = 'font-size:150%; font-weight: bold'>disturbing</p><br></br>","0","","","","","","","","","","","","","",""
"","","","","","html-slider-response","54","362906","0.0-48.0","7ma4azxsro","14","NaN","<div style=""width:500px;"">
                            <p style=""font-size:50px; font-weight:bold;""
                            >disturbing</p>
                            <div style=""width:240px; margin: auto;"">
                                <img src=""images/B_D_S_26.png"" style= ""width:200px""alt=""img"">
                            </div>
                        </div>","-17","","0","images/B_D_S_26.png","","","","disturbing","2","26","B","D","S","",""
"","","","","","html-slider-response","55","365042","0.0-49.0","7ma4azxsro","14","NaN","<div style=""width:500px;"">
                            <p style=""font-size:50px; font-weight:bold;""
                            >disturbing</p>
                            <div style=""width:240px; margin: auto;"">
                                <img src=""images/R_D_S_02.png"" style= ""width:200px""alt=""img"">
                            </div>
                        </div>","-8","","0","images/R_D_S_02.png","","","","disturbing","1","02","R","D","S","",""
"","","","","","html-slider-response","56","366833","0.0-50.0","7ma4azxsro","14","NaN","<div style=""width:500px;"">
                            <p style=""font-size:50px; font-weight:bold;""
                            >disturbing</p>
                            <div style=""width:240px; margin: auto;"">
                                <img src=""images/Y_D_U_37.png"" style= ""width:200px""alt=""img"">
                            </div>
                        </div>","36","","0","images/Y_D_U_37.png","","","","disturbing","1","37","Y","D","U","",""
"","","","","","html-slider-response","57","368232","0.0-51.0","7ma4azxsro","14","NaN","<div style=""width:500px;"">
                            <p style=""font-size:50px; font-weight:bold;""
                            >disturbing</p>
                            <div style=""width:240px; margin: auto;"">
                                <img src=""images/G_L_U_10.png"" style= ""width:200px""alt=""img"">
                            </div>
                        </div>","-28","","0","images/G_L_U_10.png","","","","disturbing","1","10","G","L","U","",""
"","","","","","html-slider-response","58","369651","0.0-52.0","7ma4azxsro","14","NaN","<div style=""width:500px;"">
                            <p style=""font-size:50px; font-weight:bold;""
                            >disturbing</p>
                            <div style=""width:240px; margin: auto;"">
                                <img src=""images/B_L_S_15.png"" style= ""width:200px""alt=""img"">
                            </div>
                        </div>","-59","","0","images/B_L_S_15.png","","","","disturbing","1","15","B","L","S","",""
"","","","","","html-slider-response","59","371424","0.0-53.0","7ma4azxsro","14","NaN","<div style=""width:500px;"">
                            <p style=""font-size:50px; font-weight:bold;""
                            >disturbing</p>
                            <div style=""width:240px; margin: auto;"">
                                <img src=""images/Y_L_S_28.png"" style= ""width:200px""alt=""img"">
                            </div>
                        </div>","35","","0","images/Y_L_S_28.png","","","","disturbing","2","28","Y","L","S","",""
"","","","","","html-slider-response","60","373054","0.0-54.0","7ma4azxsro","14","NaN","<div style=""width:500px;"">
                            <p style=""font-size:50px; font-weight:bold;""
                            >disturbing</p>
                            <div style=""width:240px; margin: auto;"">
                                <img src=""images/G_D_S_12.png"" style= ""width:200px""alt=""img"">
                            </div>
                        </div>","9","","0","images/G_D_S_12.png","","","","disturbing","1","12","G","D","S","",""
"","","","","","html-slider-response","61","374303","0.0-55.0","7ma4azxsro","14","NaN","<div style=""width:500px;"">
                            <p style=""font-size:50px; font-weight:bold;""
                            >disturbing</p>
                            <div style=""width:240px; margin: auto;"">
                                <img src=""images/R_L_S_41.png"" style= ""width:200px""alt=""img"">
                            </div>
                        </div>","-84","","0","images/R_L_S_41.png","","","","disturbing","1","41","R","L","S","",""
"","","","","","html-slider-response","62","376039","0.0-56.0","7ma4azxsro","14","NaN","<div style=""width:500px;"">
                            <p style=""font-size:50px; font-weight:bold;""
                            >disturbing</p>
                            <div style=""width:240px; margin: auto;"">
                                <img src=""images/B_L_U_23.png"" style= ""width:200px""alt=""img"">
                            </div>
                        </div>","-2","","0","images/B_L_U_23.png","","","","disturbing","1","23","B","L","U","",""
"","","","","","html-slider-response","63","377676","0.0-57.0","7ma4azxsro","14","NaN","<div style=""width:500px;"">
                            <p style=""font-size:50px; font-weight:bold;""
                            >disturbing</p>
                            <div style=""width:240px; margin: auto;"">
                                <img src=""images/B_L_S_15.png"" style= ""width:200px""alt=""img"">
                            </div>
                        </div>","-147","","0","images/B_L_S_15.png","","","","disturbing","2","15","B","L","S","",""
"","","","","","html-slider-response","64","379541","0.0-58.0","7ma4azxsro","14","NaN","<div style=""width:500px;"">
                            <p style=""font-size:50px; font-weight:bold;""
                            >disturbing</p>
                            <div style=""width:240px; margin: auto;"">
                                <img src=""images/R_D_S_02.png"" style= ""width:200px""alt=""img"">
                            </div>
                        </div>","-21","","0","images/R_D_S_02.png","","","","disturbing","2","02","R","D","S","",""
"","","","","","html-slider-response","65","381204","0.0-59.0","7ma4azxsro","14","NaN","<div style=""width:500px;"">
                            <p style=""font-size:50px; font-weight:bold;""
                            >disturbing</p>
                            <div style=""width:240px; margin: auto;"">
                                <img src=""images/R_L_U_44.png"" style= ""width:200px""alt=""img"">
                            </div>
                        </div>","9","","0","images/R_L_U_44.png","","","","disturbing","2","44","R","L","U","",""
"","","","","","html-slider-response","66","382616","0.0-60.0","7ma4azxsro","14","NaN","<div style=""width:500px;"">
                            <p style=""font-size:50px; font-weight:bold;""
                            >disturbing</p>
                            <div style=""width:240px; margin: auto;"">
                                <img src=""images/G_D_U_13.png"" style= ""width:200px""alt=""img"">
                            </div>
                        </div>","37","","0","images/G_D_U_13.png","","","","disturbing","1","13","G","D","U","",""
"","","","","","html-slider-response","67","384525","0.0-61.0","7ma4azxsro","14","NaN","<div style=""width:500px;"">
                            <p style=""font-size:50px; font-weight:bold;""
                            >disturbing</p>
                            <div style=""width:240px; margin: auto;"">
                                <img src=""images/B_L_U_23.png"" style= ""width:200px""alt=""img"">
                            </div>
                        </div>","-18","","0","images/B_L_U_23.png","","","","disturbing","2","23","B","L","U","",""
"","","","","","html-slider-response","68","386109","0.0-62.0","7ma4azxsro","14","NaN","<div style=""width:500px;"">
                            <p style=""font-size:50px; font-weight:bold;""
                            >disturbing</p>
                            <div style=""width:240px; margin: auto;"">
                                <img src=""images/Y_L_S_28.png"" style= ""width:200px""alt=""img"">
                            </div>
                        </div>","52","","0","images/Y_L_S_28.png","","","","disturbing","1","28","Y","L","S","",""
"","","","","","html-slider-response","69","387406","0.0-63.0","7ma4azxsro","14","NaN","<div style=""width:500px;"">
                            <p style=""font-size:50px; font-weight:bold;""
                            >disturbing</p>
                            <div style=""width:240px; margin: auto;"">
                                <img src=""images/R_D_U_05.png"" style= ""width:200px""alt=""img"">
                            </div>
                        </div>","11","","0","images/R_D_U_05.png","","","","disturbing","2","05","R","D","U","",""
"","","","","","html-slider-response","70","389090","0.0-64.0","7ma4azxsro","14","NaN","<div style=""width:500px;"">
                            <p style=""font-size:50px; font-weight:bold;""
                            >disturbing</p>
                            <div style=""width:240px; margin: auto;"">
                                <img src=""images/Y_D_S_33.png"" style= ""width:200px""alt=""img"">
                            </div>
                        </div>","23","","0","images/Y_D_S_33.png","","","","disturbing","2","33","Y","D","S","",""
"","","","","","html-slider-response","71","390509","0.0-65.0","7ma4azxsro","14","NaN","<div style=""width:500px;"">
                            <p style=""font-size:50px; font-weight:bold;""
                            >disturbing</p>
                            <div style=""width:240px; margin: auto;"">
                                <img src=""images/Y_D_U_37.png"" style= ""width:200px""alt=""img"">
                            </div>
                        </div>","62","","0","images/Y_D_U_37.png","","","","disturbing","2","37","Y","D","U","",""
"","","","","","html-slider-response","72","392306","0.0-66.0","7ma4azxsro","14","NaN","<div style=""width:500px;"">
                            <p style=""font-size:50px; font-weight:bold;""
                            >disturbing</p>
                            <div style=""width:240px; margin: auto;"">
                                <img src=""images/G_D_S_12.png"" style= ""width:200px""alt=""img"">
                            </div>
                        </div>","-13","","0","images/G_D_S_12.png","","","","disturbing","2","12","G","D","S","",""
"","","","","","html-slider-response","73","393899","0.0-67.0","7ma4azxsro","14","NaN","<div style=""width:500px;"">
                            <p style=""font-size:50px; font-weight:bold;""
                            >disturbing</p>
                            <div style=""width:240px; margin: auto;"">
                                <img src=""images/B_D_U_27.png"" style= ""width:200px""alt=""img"">
                            </div>
                        </div>","23","","0","images/B_D_U_27.png","","","","disturbing","1","27","B","D","U","",""
"","","","","","html-slider-response","74","395640","0.0-68.0","7ma4azxsro","14","NaN","<div style=""width:500px;"">
                            <p style=""font-size:50px; font-weight:bold;""
                            >disturbing</p>
                            <div style=""width:240px; margin: auto;"">
                                <img src=""images/G_D_U_13.png"" style= ""width:200px""alt=""img"">
                            </div>
                        </div>","3","","0","images/G_D_U_13.png","","","","disturbing","2","13","G","D","U","",""
"","","","","","html-slider-response","75","397094","0.0-69.0","7ma4azxsro","14","NaN","<div style=""width:500px;"">
                            <p style=""font-size:50px; font-weight:bold;""
                            >disturbing</p>
                            <div style=""width:240px; margin: auto;"">
                                <img src=""images/G_L_S_07.png"" style= ""width:200px""alt=""img"">
                            </div>
                        </div>","-85","","0","images/G_L_S_07.png","","","","disturbing","2","07","G","L","S","",""
"","","","","","html-slider-response","76","398299","0.0-70.0","7ma4azxsro","14","NaN","<div style=""width:500px;"">
                            <p style=""font-size:50px; font-weight:bold;""
                            >disturbing</p>
                            <div style=""width:240px; margin: auto;"">
                                <img src=""images/G_L_S_07.png"" style= ""width:200px""alt=""img"">
                            </div>
                        </div>","-21","","0","images/G_L_S_07.png","","","","disturbing","1","07","G","L","S","",""
"","","","","","html-slider-response","77","399707","0.0-71.0","7ma4azxsro","14","NaN","<div style=""width:500px;"">
                            <p style=""font-size:50px; font-weight:bold;""
                            >disturbing</p>
                            <div style=""width:240px; margin: auto;"">
                                <img src=""images/R_D_U_05.png"" style= ""width:200px""alt=""img"">
                            </div>
                        </div>","5","","0","images/R_D_U_05.png","","","","disturbing","1","05","R","D","U","",""
"","","","","","html-slider-response","78","401122","0.0-72.0","7ma4azxsro","14","NaN","<div style=""width:500px;"">
                            <p style=""font-size:50px; font-weight:bold;""
                            >disturbing</p>
                            <div style=""width:240px; margin: auto;"">
                                <img src=""images/R_L_S_41.png"" style= ""width:200px""alt=""img"">
                            </div>
                        </div>","-63","","0","images/R_L_S_41.png","","","","disturbing","2","41","R","L","S","",""
"","","","","","html-slider-response","79","402284","0.0-73.0","7ma4azxsro","14","NaN","<div style=""width:500px;"">
                            <p style=""font-size:50px; font-weight:bold;""
                            >disturbing</p>
                            <div style=""width:240px; margin: auto;"">
                                <img src=""images/Y_L_U_30.png"" style= ""width:200px""alt=""img"">
                            </div>
                        </div>","-31","","0","images/Y_L_U_30.png","","","","disturbing","2","30","Y","L","U","",""
"","","","","","html-slider-response","80","403574","0.0-74.0","7ma4azxsro","14","NaN","<div style=""width:500px;"">
                            <p style=""font-size:50px; font-weight:bold;""
                            >disturbing</p>
                            <div style=""width:240px; margin: auto;"">
                                <img src=""images/G_L_U_10.png"" style= ""width:200px""alt=""img"">
                            </div>
                        </div>","-17","","0","images/G_L_U_10.png","","","","disturbing","2","10","G","L","U","",""
"","","","","","html-slider-response","81","404833","0.0-75.0","7ma4azxsro","14","NaN","<div style=""width:500px;"">
                            <p style=""font-size:50px; font-weight:bold;""
                            >disturbing</p>
                            <div style=""width:240px; margin: auto;"">
                                <img src=""images/R_L_U_44.png"" style= ""width:200px""alt=""img"">
                            </div>
                        </div>","-64","","0","images/R_L_U_44.png","","","","disturbing","1","44","R","L","U","",""
"","","","","","html-slider-response","82","406622","0.0-76.0","7ma4azxsro","14","NaN","<div style=""width:500px;"">
                            <p style=""font-size:50px; font-weight:bold;""
                            >disturbing</p>
                            <div style=""width:240px; margin: auto;"">
                                <img src=""images/Y_D_S_33.png"" style= ""width:200px""alt=""img"">
                            </div>
                        </div>","-34","","0","images/Y_D_S_33.png","","","","disturbing","1","33","Y","D","S","",""
"","","","","","html-slider-response","83","408049","0.0-77.0","7ma4azxsro","14","NaN","<div style=""width:500px;"">
                            <p style=""font-size:50px; font-weight:bold;""
                            >disturbing</p>
                            <div style=""width:240px; margin: auto;"">
                                <img src=""images/B_D_S_26.png"" style= ""width:200px""alt=""img"">
                            </div>
                        </div>","-75","","0","images/B_D_S_26.png","","","","disturbing","1","26","B","D","S","",""
"","","","","","html-slider-response","84","409677","0.0-78.0","7ma4azxsro","14","NaN","<div style=""width:500px;"">
                            <p style=""font-size:50px; font-weight:bold;""
                            >disturbing</p>
                            <div style=""width:240px; margin: auto;"">
                                <img src=""images/B_D_U_27.png"" style= ""width:200px""alt=""img"">
                            </div>
                        </div>","-16","","0","images/B_D_U_27.png","","","","disturbing","2","27","B","D","U","",""
"","","","","","html-slider-response","85","410954","0.0-79.0","7ma4azxsro","14","NaN","<div style=""width:500px;"">
                            <p style=""font-size:50px; font-weight:bold;""
                            >disturbing</p>
                            <div style=""width:240px; margin: auto;"">
                                <img src=""images/Y_L_U_30.png"" style= ""width:200px""alt=""img"">
                            </div>
                        </div>","-50","","0","images/Y_L_U_30.png","","","","disturbing","1","30","Y","L","U","",""
"","","","","","html-button-response","86","412461","0.0-80.0","7ma4azxsro","14","1001","<p>Great Job! You've finished block 2.<br></br> You have 6 block(s) left to go.<br></br></p>","0","","","","","","","","","","","","","",""
"","","","","","html-button-response","87","413274","0.0-81.0","7ma4azxsro","14","811","<p>In this block of trials, you will be asked to rate how much you associate each map with:</p > <p style = 'font-size:150%; font-weight: bold'>negative</p><br></br>","0","","","","","","","","","","","","","",""
"","","","","","html-slider-response","88","414435","0.0-82.0","7ma4azxsro","14","NaN","<div style=""width:500px;"">
                            <p style=""font-size:50px; font-weight:bold;""
                            >negative</p>
                            <div style=""width:240px; margin: auto;"">
                                <img src=""images/Y_L_S_28.png"" style= ""width:200px""alt=""img"">
                            </div>
                        </div>","35","","0","images/Y_L_S_28.png","","","","negative","2","28","Y","L","S","",""
"","","","","","html-slider-response","89","415851","0.0-83.0","7ma4azxsro","14","NaN","<div style=""width:500px;"">
                            <p style=""font-size:50px; font-weight:bold;""
                            >negative</p>
                            <div style=""width:240px; margin: auto;"">
                                <img src=""images/B_L_U_23.png"" style= ""width:200px""alt=""img"">
                            </div>
                        </div>","-22","","0","images/B_L_U_23.png","","","","negative","2","23","B","L","U","",""
"","","","","","html-slider-response","90","417164","0.0-84.0","7ma4azxsro","14","NaN","<div style=""width:500px;"">
                            <p style=""font-size:50px; font-weight:bold;""
                            >negative</p>
                            <div style=""width:240px; margin: auto;"">
                                <img src=""images/G_L_S_07.png"" style= ""width:200px""alt=""img"">
                            </div>
                        </div>","-37","","0","images/G_L_S_07.png","","","","negative","2","07","G","L","S","",""
"","","","","","html-slider-response","91","418451","0.0-85.0","7ma4azxsro","14","NaN","<div style=""width:500px;"">
                            <p style=""font-size:50px; font-weight:bold;""
                            >negative</p>
                            <div style=""width:240px; margin: auto;"">
                                <img src=""images/B_L_U_23.png"" style= ""width:200px""alt=""img"">
                            </div>
                        </div>","-21","","0","images/B_L_U_23.png","","","","negative","1","23","B","L","U","",""
"","","","","","html-slider-response","92","419722","0.0-86.0","7ma4azxsro","14","NaN","<div style=""width:500px;"">
                            <p style=""font-size:50px; font-weight:bold;""
                            >negative</p>
                            <div style=""width:240px; margin: auto;"">
                                <img src=""images/B_D_S_26.png"" style= ""width:200px""alt=""img"">
                            </div>
                        </div>","-68","","0","images/B_D_S_26.png","","","","negative","2","26","B","D","S","",""
"","","","","","html-slider-response","93","420984","0.0-87.0","7ma4azxsro","14","NaN","<div style=""width:500px;"">
                            <p style=""font-size:50px; font-weight:bold;""
                            >negative</p>
                            <div style=""width:240px; margin: auto;"">
                                <img src=""images/G_L_S_07.png"" style= ""width:200px""alt=""img"">
                            </div>
                        </div>","-85","","0","images/G_L_S_07.png","","","","negative","1","07","G","L","S","",""
"","","","","","html-slider-response","94","422117","0.0-88.0","7ma4azxsro","14","NaN","<div style=""width:500px;"">
                            <p style=""font-size:50px; font-weight:bold;""
                            >negative</p>
                            <div style=""width:240px; margin: auto;"">
                                <img src=""images/R_L_S_41.png"" style= ""width:200px""alt=""img"">
                            </div>
                        </div>","-85","","0","images/R_L_S_41.png","","","","negative","1","41","R","L","S","",""
"","","","","","html-slider-response","95","423830","0.0-89.0","7ma4azxsro","14","NaN","<div style=""width:500px;"">
                            <p style=""font-size:50px; font-weight:bold;""
                            >negative</p>
                            <div style=""width:240px; margin: auto;"">
                                <img src=""images/Y_D_S_33.png"" style= ""width:200px""alt=""img"">
                            </div>
                        </div>","-20","","0","images/Y_D_S_33.png","","","","negative","1","33","Y","D","S","",""
"","","","","","html-slider-response","96","426433","0.0-90.0","7ma4azxsro","14","NaN","<div style=""width:500px;"">
                            <p style=""font-size:50px; font-weight:bold;""
                            >negative</p>
                            <div style=""width:240px; margin: auto;"">
                                <img src=""images/B_L_S_15.png"" style= ""width:200px""alt=""img"">
                            </div>
                        </div>","63","","0","images/B_L_S_15.png","","","","negative","2","15","B","L","S","",""
"","","","","","html-slider-response","97","427767","0.0-91.0","7ma4azxsro","14","NaN","<div style=""width:500px;"">
                            <p style=""font-size:50px; font-weight:bold;""
                            >negative</p>
                            <div style=""width:240px; margin: auto;"">
                                <img src=""images/R_L_S_41.png"" style= ""width:200px""alt=""img"">
                            </div>
                        </div>","19","","0","images/R_L_S_41.png","","","","negative","2","41","R","L","S","",""
"","","","","","html-slider-response","98","429541","0.0-92.0","7ma4azxsro","14","NaN","<div style=""width:500px;"">
                            <p style=""font-size:50px; font-weight:bold;""
                            >negative</p>
                            <div style=""width:240px; margin: auto;"">
                                <img src=""images/B_D_U_27.png"" style= ""width:200px""alt=""img"">
                            </div>
                        </div>","55","","0","images/B_D_U_27.png","","","","negative","1","27","B","D","U","",""
"","","","","","html-slider-response","99","431277","0.0-93.0","7ma4azxsro","14","NaN","<div style=""width:500px;"">
                            <p style=""font-size:50px; font-weight:bold;""
                            >negative</p>
                            <div style=""width:240px; margin: auto;"">
                                <img src=""images/R_L_U_44.png"" style= ""width:200px""alt=""img"">
                            </div>
                        </div>","64","","0","images/R_L_U_44.png","","","","negative","2","44","R","L","U","",""
"","","","","","html-slider-response","100","432613","0.0-94.0","7ma4azxsro","14","NaN","<div style=""width:500px;"">
                            <p style=""font-size:50px; font-weight:bold;""
                            >negative</p>
                            <div style=""width:240px; margin: auto;"">
                                <img src=""images/R_L_U_44.png"" style= ""width:200px""alt=""img"">
                            </div>
                        </div>","52","","0","images/R_L_U_44.png","","","","negative","1","44","R","L","U","",""
"","","","","","html-slider-response","101","434206","0.0-95.0","7ma4azxsro","14","NaN","<div style=""width:500px;"">
                            <p style=""font-size:50px; font-weight:bold;""
                            >negative</p>
                            <div style=""width:240px; margin: auto;"">
                                <img src=""images/B_L_S_15.png"" style= ""width:200px""alt=""img"">
                            </div>
                        </div>","-131","","0","images/B_L_S_15.png","","","","negative","1","15","B","L","S","",""
"","","","","","html-slider-response","102","436090","0.0-96.0","7ma4azxsro","14","NaN","<div style=""width:500px;"">
                            <p style=""font-size:50px; font-weight:bold;""
                            >negative</p>
                            <div style=""width:240px; margin: auto;"">
                                <img src=""images/Y_D_U_37.png"" style= ""width:200px""alt=""img"">
                            </div>
                        </div>","116","","0","images/Y_D_U_37.png","","","","negative","1","37","Y","D","U","",""
"","","","","","html-slider-response","103","437628","0.0-97.0","7ma4azxsro","14","NaN","<div style=""width:500px;"">
                            <p style=""font-size:50px; font-weight:bold;""
                            >negative</p>
                            <div style=""width:240px; margin: auto;"">
                                <img src=""images/Y_L_S_28.png"" style= ""width:200px""alt=""img"">
                            </div>
                        </div>","71","","0","images/Y_L_S_28.png","","","","negative","1","28","Y","L","S","",""
"","","","","","html-slider-response","104","438947","0.0-98.0","7ma4azxsro","14","NaN","<div style=""width:500px;"">
                            <p style=""font-size:50px; font-weight:bold;""
                            >negative</p>
                            <div style=""width:240px; margin: auto;"">
                                <img src=""images/Y_L_U_30.png"" style= ""width:200px""alt=""img"">
                            </div>
                        </div>","75","","0","images/Y_L_U_30.png","","","","negative","2","30","Y","L","U","",""
"","","","","","html-slider-response","105","440296","0.0-99.0","7ma4azxsro","14","NaN","<div style=""width:500px;"">
                            <p style=""font-size:50px; font-weight:bold;""
                            >negative</p>
                            <div style=""width:240px; margin: auto;"">
                                <img src=""images/R_D_S_02.png"" style= ""width:200px""alt=""img"">
                            </div>
                        </div>","54","","0","images/R_D_S_02.png","","","","negative","1","02","R","D","S","",""
"","","","","","html-slider-response","106","441680","0.0-100.0","7ma4azxsro","14","NaN","<div style=""width:500px;"">
                            <p style=""font-size:50px; font-weight:bold;""
                            >negative</p>
                            <div style=""width:240px; margin: auto;"">
                                <img src=""images/Y_D_S_33.png"" style= ""width:200px""alt=""img"">
                            </div>
                        </div>","87","","0","images/Y_D_S_33.png","","","","negative","2","33","Y","D","S","",""
"","","","","","html-slider-response","107","442831","0.0-101.0","7ma4azxsro","14","NaN","<div style=""width:500px;"">
                            <p style=""font-size:50px; font-weight:bold;""
                            >negative</p>
                            <div style=""width:240px; margin: auto;"">
                                <img src=""images/G_L_U_10.png"" style= ""width:200px""alt=""img"">
                            </div>
                        </div>","87","","0","images/G_L_U_10.png","","","","negative","1","10","G","L","U","",""
"","","","","","html-slider-response","108","444083","0.0-102.0","7ma4azxsro","14","NaN","<div style=""width:500px;"">
                            <p style=""font-size:50px; font-weight:bold;""
                            >negative</p>
                            <div style=""width:240px; margin: auto;"">
                                <img src=""images/G_L_U_10.png"" style= ""width:200px""alt=""img"">
                            </div>
                        </div>","87","","0","images/G_L_U_10.png","","","","negative","2","10","G","L","U","",""
"","","","","","html-slider-response","109","445734","0.0-103.0","7ma4azxsro","14","NaN","<div style=""width:500px;"">
                            <p style=""font-size:50px; font-weight:bold;""
                            >negative</p>
                            <div style=""width:240px; margin: auto;"">
                                <img src=""images/G_D_U_13.png"" style= ""width:200px""alt=""img"">
                            </div>
                        </div>","38","","0","images/G_D_U_13.png","","","","negative","2","13","G","D","U","",""
"","","","","","html-slider-response","110","447187","0.0-104.0","7ma4azxsro","14","NaN","<div style=""width:500px;"">
                            <p style=""font-size:50px; font-weight:bold;""
                            >negative</p>
                            <div style=""width:240px; margin: auto;"">
                                <img src=""images/R_D_U_05.png"" style= ""width:200px""alt=""img"">
                            </div>
                        </div>","67","","0","images/R_D_U_05.png","","","","negative","2","05","R","D","U","",""
"","","","","","html-slider-response","111","448452","0.0-105.0","7ma4azxsro","14","NaN","<div style=""width:500px;"">
                            <p style=""font-size:50px; font-weight:bold;""
                            >negative</p>
                            <div style=""width:240px; margin: auto;"">
                                <img src=""images/G_D_S_12.png"" style= ""width:200px""alt=""img"">
                            </div>
                        </div>","67","","0","images/G_D_S_12.png","","","","negative","1","12","G","D","S","",""
"","","","","","html-slider-response","112","449743","0.0-106.0","7ma4azxsro","14","NaN","<div style=""width:500px;"">
                            <p style=""font-size:50px; font-weight:bold;""
                            >negative</p>
                            <div style=""width:240px; margin: auto;"">
                                <img src=""images/Y_L_U_30.png"" style= ""width:200px""alt=""img"">
                            </div>
                        </div>","67","","0","images/Y_L_U_30.png","","","","negative","1","30","Y","L","U","",""
"","","","","","html-slider-response","113","451326","0.0-107.0","7ma4azxsro","14","NaN","<div style=""width:500px;"">
                            <p style=""font-size:50px; font-weight:bold;""
                            >negative</p>
                            <div style=""width:240px; margin: auto;"">
                                <img src=""images/B_D_S_26.png"" style= ""width:200px""alt=""img"">
                            </div>
                        </div>","67","","0","images/B_D_S_26.png","","","","negative","1","26","B","D","S","",""
"","","","","","html-slider-response","114","452751","0.0-108.0","7ma4azxsro","14","NaN","<div style=""width:500px;"">
                            <p style=""font-size:50px; font-weight:bold;""
                            >negative</p>
                            <div style=""width:240px; margin: auto;"">
                                <img src=""images/G_D_S_12.png"" style= ""width:200px""alt=""img"">
                            </div>
                        </div>","67","","0","images/G_D_S_12.png","","","","negative","2","12","G","D","S","",""
"","","","","","html-slider-response","115","453942","0.0-109.0","7ma4azxsro","14","NaN","<div style=""width:500px;"">
                            <p style=""font-size:50px; font-weight:bold;""
                            >negative</p>
                            <div style=""width:240px; margin: auto;"">
                                <img src=""images/G_D_U_13.png"" style= ""width:200px""alt=""img"">
                            </div>
                        </div>","67","","0","images/G_D_U_13.png","","","","negative","1","13","G","D","U","",""
"","","","","","html-slider-response","116","455207","0.0-110.0","7ma4azxsro","14","NaN","<div style=""width:500px;"">
                            <p style=""font-size:50px; font-weight:bold;""
                            >negative</p>
                            <div style=""width:240px; margin: auto;"">
                                <img src=""images/R_D_U_05.png"" style= ""width:200px""alt=""img"">
                            </div>
                        </div>","67","","0","images/R_D_U_05.png","","","","negative","1","05","R","D","U","",""
"","","","","","html-slider-response","117","456339","0.0-111.0","7ma4azxsro","14","NaN","<div style=""width:500px;"">
                            <p style=""font-size:50px; font-weight:bold;""
                            >negative</p>
                            <div style=""width:240px; margin: auto;"">
                                <img src=""images/Y_D_U_37.png"" style= ""width:200px""alt=""img"">
                            </div>
                        </div>","65","","0","images/Y_D_U_37.png","","","","negative","2","37","Y","D","U","",""
"","","","","","html-slider-response","118","457539","0.0-112.0","7ma4azxsro","14","NaN","<div style=""width:500px;"">
                            <p style=""font-size:50px; font-weight:bold;""
                            >negative</p>
                            <div style=""width:240px; margin: auto;"">
                                <img src=""images/R_D_S_02.png"" style= ""width:200px""alt=""img"">
                            </div>
                        </div>","65","","0","images/R_D_S_02.png","","","","negative","2","02","R","D","S","",""
"","","","","","html-slider-response","119","458717","0.0-113.0","7ma4azxsro","14","NaN","<div style=""width:500px;"">
                            <p style=""font-size:50px; font-weight:bold;""
                            >negative</p>
                            <div style=""width:240px; margin: auto;"">
                                <img src=""images/B_D_U_27.png"" style= ""width:200px""alt=""img"">
                            </div>
                        </div>","63","","0","images/B_D_U_27.png","","","","negative","2","27","B","D","U","",""
"","","","","","html-button-response","120","460091","0.0-114.0","7ma4azxsro","14","866","<p>Great Job! You've finished block 3.<br></br> You have 5 block(s) left to go.<br></br></p>","0","","","","","","","","","","","","","",""
"","","","","","html-button-response","121","460851","0.0-115.0","7ma4azxsro","14","759","<p>In this block of trials, you will be asked to rate how much you associate each map with:</p > <p style = 'font-size:150%; font-weight: bold'>playful</p><br></br>","0","","","","","","","","","","","","","",""
"","","","","","html-slider-response","122","462667","0.0-116.0","7ma4azxsro","14","NaN","<div style=""width:500px;"">
                            <p style=""font-size:50px; font-weight:bold;""
                            >playful</p>
                            <div style=""width:240px; margin: auto;"">
                                <img src=""images/Y_D_U_37.png"" style= ""width:200px""alt=""img"">
                            </div>
                        </div>","-155","","0","images/Y_D_U_37.png","","","","playful","2","37","Y","D","U","",""
"","","","","","html-slider-response","123","464497","0.0-117.0","7ma4azxsro","14","NaN","<div style=""width:500px;"">
                            <p style=""font-size:50px; font-weight:bold;""
                            >playful</p>
                            <div style=""width:240px; margin: auto;"">
                                <img src=""images/G_L_S_07.png"" style= ""width:200px""alt=""img"">
                            </div>
                        </div>","113","","0","images/G_L_S_07.png","","","","playful","2","07","G","L","S","",""
"","","","","","html-slider-response","124","465792","0.0-118.0","7ma4azxsro","14","NaN","<div style=""width:500px;"">
                            <p style=""font-size:50px; font-weight:bold;""
                            >playful</p>
                            <div style=""width:240px; margin: auto;"">
                                <img src=""images/R_D_U_05.png"" style= ""width:200px""alt=""img"">
                            </div>
                        </div>","-65","","0","images/R_D_U_05.png","","","","playful","2","05","R","D","U","",""
"","","","","","html-slider-response","125","467601","0.0-119.0","7ma4azxsro","14","NaN","<div style=""width:500px;"">
                            <p style=""font-size:50px; font-weight:bold;""
                            >playful</p>
                            <div style=""width:240px; margin: auto;"">
                                <img src=""images/B_L_S_15.png"" style= ""width:200px""alt=""img"">
                            </div>
                        </div>","174","","0","images/B_L_S_15.png","","","","playful","2","15","B","L","S","",""
"","","","","","html-slider-response","126","469101","0.0-120.0","7ma4azxsro","14","NaN","<div style=""width:500px;"">
                            <p style=""font-size:50px; font-weight:bold;""
                            >playful</p>
                            <div style=""width:240px; margin: auto;"">
                                <img src=""images/B_D_S_26.png"" style= ""width:200px""alt=""img"">
                            </div>
                        </div>","11","","0","images/B_D_S_26.png","","","","playful","1","26","B","D","S","",""
"","","","","","html-slider-response","127","470113","0.0-121.0","7ma4azxsro","14","NaN","<div style=""width:500px;"">
                            <p style=""font-size:50px; font-weight:bold;""
                            >playful</p>
                            <div style=""width:240px; margin: auto;"">
                                <img src=""images/Y_D_U_37.png"" style= ""width:200px""alt=""img"">
                            </div>
                        </div>","-41","","0","images/Y_D_U_37.png","","","","playful","1","37","Y","D","U","",""
"","","","","","html-slider-response","128","471654","0.0-122.0","7ma4azxsro","14","NaN","<div style=""width:500px;"">
                            <p style=""font-size:50px; font-weight:bold;""
                            >playful</p>
                            <div style=""width:240px; margin: auto;"">
                                <img src=""images/R_L_U_44.png"" style= ""width:200px""alt=""img"">
                            </div>
                        </div>","-25","","0","images/R_L_U_44.png","","","","playful","1","44","R","L","U","",""
"","","","","","html-slider-response","129","472970","0.0-123.0","7ma4azxsro","14","NaN","<div style=""width:500px;"">
                            <p style=""font-size:50px; font-weight:bold;""
                            >playful</p>
                            <div style=""width:240px; margin: auto;"">
                                <img src=""images/Y_D_S_33.png"" style= ""width:200px""alt=""img"">
                            </div>
                        </div>","-88","","0","images/Y_D_S_33.png","","","","playful","2","33","Y","D","S","",""
"","","","","","html-slider-response","130","479278","0.0-124.0","7ma4azxsro","14","NaN","<div style=""width:500px;"">
                            <p style=""font-size:50px; font-weight:bold;""
                            >playful</p>
                            <div style=""width:240px; margin: auto;"">
                                <img src=""images/B_D_U_27.png"" style= ""width:200px""alt=""img"">
                            </div>
                        </div>","-55","","0","images/B_D_U_27.png","","","","playful","2","27","B","D","U","",""
"","","","","","html-slider-response","131","480486","0.0-125.0","7ma4azxsro","14","NaN","<div style=""width:500px;"">
                            <p style=""font-size:50px; font-weight:bold;""
                            >playful</p>
                            <div style=""width:240px; margin: auto;"">
                                <img src=""images/R_L_U_44.png"" style= ""width:200px""alt=""img"">
                            </div>
                        </div>","-69","","0","images/R_L_U_44.png","","","","playful","2","44","R","L","U","",""
"","","","","","html-slider-response","132","481586","0.0-126.0","7ma4azxsro","14","NaN","<div style=""width:500px;"">
                            <p style=""font-size:50px; font-weight:bold;""
                            >playful</p>
                            <div style=""width:240px; margin: auto;"">
                                <img src=""images/Y_L_S_28.png"" style= ""width:200px""alt=""img"">
                            </div>
                        </div>","-69","","0","images/Y_L_S_28.png","","","","playful","2","28","Y","L","S","",""
"","","","","","html-slider-response","133","482686","0.0-127.0","7ma4azxsro","14","NaN","<div style=""width:500px;"">
                            <p style=""font-size:50px; font-weight:bold;""
                            >playful</p>
                            <div style=""width:240px; margin: auto;"">
                                <img src=""images/Y_D_S_33.png"" style= ""width:200px""alt=""img"">
                            </div>
                        </div>","-36","","0","images/Y_D_S_33.png","","","","playful","1","33","Y","D","S","",""
"","","","","","html-slider-response","134","483884","0.0-128.0","7ma4azxsro","14","NaN","<div style=""width:500px;"">
                            <p style=""font-size:50px; font-weight:bold;""
                            >playful</p>
                            <div style=""width:240px; margin: auto;"">
                                <img src=""images/R_D_S_02.png"" style= ""width:200px""alt=""img"">
                            </div>
                        </div>","-67","","0","images/R_D_S_02.png","","","","playful","1","02","R","D","S","",""
"","","","","","html-slider-response","135","485438","0.0-129.0","7ma4azxsro","14","NaN","<div style=""width:500px;"">
                            <p style=""font-size:50px; font-weight:bold;""
                            >playful</p>
                            <div style=""width:240px; margin: auto;"">
                                <img src=""images/G_L_S_07.png"" style= ""width:200px""alt=""img"">
                            </div>
                        </div>","17","","0","images/G_L_S_07.png","","","","playful","1","07","G","L","S","",""
"","","","","","html-slider-response","136","487026","0.0-130.0","7ma4azxsro","14","NaN","<div style=""width:500px;"">
                            <p style=""font-size:50px; font-weight:bold;""
                            >playful</p>
                            <div style=""width:240px; margin: auto;"">
                                <img src=""images/B_L_S_15.png"" style= ""width:200px""alt=""img"">
                            </div>
                        </div>","161","","0","images/B_L_S_15.png","","","","playful","1","15","B","L","S","",""
"","","","","","html-slider-response","137","489486","0.0-131.0","7ma4azxsro","14","NaN","<div style=""width:500px;"">
                            <p style=""font-size:50px; font-weight:bold;""
                            >playful</p>
                            <div style=""width:240px; margin: auto;"">
                                <img src=""images/B_L_U_23.png"" style= ""width:200px""alt=""img"">
                            </div>
                        </div>","17","","0","images/B_L_U_23.png","","","","playful","2","23","B","L","U","",""
"","","","","","html-slider-response","138","491003","0.0-132.0","7ma4azxsro","14","NaN","<div style=""width:500px;"">
                            <p style=""font-size:50px; font-weight:bold;""
                            >playful</p>
                            <div style=""width:240px; margin: auto;"">
                                <img src=""images/R_L_S_41.png"" style= ""width:200px""alt=""img"">
                            </div>
                        </div>","106","","0","images/R_L_S_41.png","","","","playful","2","41","R","L","S","",""
"","","","","","html-slider-response","139","492276","0.0-133.0","7ma4azxsro","14","NaN","<div style=""width:500px;"">
                            <p style=""font-size:50px; font-weight:bold;""
                            >playful</p>
                            <div style=""width:240px; margin: auto;"">
                                <img src=""images/G_L_U_10.png"" style= ""width:200px""alt=""img"">
                            </div>
                        </div>","-8","","0","images/G_L_U_10.png","","","","playful","2","10","G","L","U","",""
"","","","","","html-slider-response","140","493588","0.0-134.0","7ma4azxsro","14","NaN","<div style=""width:500px;"">
                            <p style=""font-size:50px; font-weight:bold;""
                            >playful</p>
                            <div style=""width:240px; margin: auto;"">
                                <img src=""images/G_D_U_13.png"" style= ""width:200px""alt=""img"">
                            </div>
                        </div>","-49","","0","images/G_D_U_13.png","","","","playful","1","13","G","D","U","",""
"","","","","","html-slider-response","141","494810","0.0-135.0","7ma4azxsro","14","NaN","<div style=""width:500px;"">
                            <p style=""font-size:50px; font-weight:bold;""
                            >playful</p>
                            <div style=""width:240px; margin: auto;"">
                                <img src=""images/Y_L_U_30.png"" style= ""width:200px""alt=""img"">
                            </div>
                        </div>","-123","","0","images/Y_L_U_30.png","","","","playful","1","30","Y","L","U","",""
"","","","","","html-slider-response","142","495968","0.0-136.0","7ma4azxsro","14","NaN","<div style=""width:500px;"">
                            <p style=""font-size:50px; font-weight:bold;""
                            >playful</p>
                            <div style=""width:240px; margin: auto;"">
                                <img src=""images/R_D_U_05.png"" style= ""width:200px""alt=""img"">
                            </div>
                        </div>","-99","","0","images/R_D_U_05.png","","","","playful","1","05","R","D","U","",""
"","","","","","html-slider-response","143","497047","0.0-137.0","7ma4azxsro","14","NaN","<div style=""width:500px;"">
                            <p style=""font-size:50px; font-weight:bold;""
                            >playful</p>
                            <div style=""width:240px; margin: auto;"">
                                <img src=""images/Y_L_S_28.png"" style= ""width:200px""alt=""img"">
                            </div>
                        </div>","-37","","0","images/Y_L_S_28.png","","","","playful","1","28","Y","L","S","",""
"","","","","","html-slider-response","144","498493","0.0-138.0","7ma4azxsro","14","NaN","<div style=""width:500px;"">
                            <p style=""font-size:50px; font-weight:bold;""
                            >playful</p>
                            <div style=""width:240px; margin: auto;"">
                                <img src=""images/R_L_S_41.png"" style= ""width:200px""alt=""img"">
                            </div>
                        </div>","33","","0","images/R_L_S_41.png","","","","playful","1","41","R","L","S","",""
"","","","","","html-slider-response","145","499701","0.0-139.0","7ma4azxsro","14","NaN","<div style=""width:500px;"">
                            <p style=""font-size:50px; font-weight:bold;""
                            >playful</p>
                            <div style=""width:240px; margin: auto;"">
                                <img src=""images/G_D_S_12.png"" style= ""width:200px""alt=""img"">
                            </div>
                        </div>","-33","","0","images/G_D_S_12.png","","","","playful","2","12","G","D","S","",""
"","","","","","html-slider-response","146","501039","0.0-140.0","7ma4azxsro","14","NaN","<div style=""width:500px;"">
                            <p style=""font-size:50px; font-weight:bold;""
                            >playful</p>
                            <div style=""width:240px; margin: auto;"">
                                <img src=""images/G_D_U_13.png"" style= ""width:200px""alt=""img"">
                            </div>
                        </div>","-74","","0","images/G_D_U_13.png","","","","playful","2","13","G","D","U","",""
"","","","","","html-slider-response","147","502813","0.0-141.0","7ma4azxsro","14","NaN","<div style=""width:500px;"">
                            <p style=""font-size:50px; font-weight:bold;""
                            >playful</p>
                            <div style=""width:240px; margin: auto;"">
                                <img src=""images/G_L_U_10.png"" style= ""width:200px""alt=""img"">
                            </div>
                        </div>","82","","0","images/G_L_U_10.png","","","","playful","1","10","G","L","U","",""
"","","","","","html-slider-response","148","504169","0.0-142.0","7ma4azxsro","14","NaN","<div style=""width:500px;"">
                            <p style=""font-size:50px; font-weight:bold;""
                            >playful</p>
                            <div style=""width:240px; margin: auto;"">
                                <img src=""images/B_D_U_27.png"" style= ""width:200px""alt=""img"">
                            </div>
                        </div>","-41","","0","images/B_D_U_27.png","","","","playful","1","27","B","D","U","",""
"","","","","","html-slider-response","149","505536","0.0-143.0","7ma4azxsro","14","NaN","<div style=""width:500px;"">
                            <p style=""font-size:50px; font-weight:bold;""
                            >playful</p>
                            <div style=""width:240px; margin: auto;"">
                                <img src=""images/B_D_S_26.png"" style= ""width:200px""alt=""img"">
                            </div>
                        </div>","-28","","0","images/B_D_S_26.png","","","","playful","2","26","B","D","S","",""
"","","","","","html-slider-response","150","507130","0.0-144.0","7ma4azxsro","14","NaN","<div style=""width:500px;"">
                            <p style=""font-size:50px; font-weight:bold;""
                            >playful</p>
                            <div style=""width:240px; margin: auto;"">
                                <img src=""images/B_L_U_23.png"" style= ""width:200px""alt=""img"">
                            </div>
                        </div>","-12","","0","images/B_L_U_23.png","","","","playful","1","23","B","L","U","",""
"","","","","","html-slider-response","151","508425","0.0-145.0","7ma4azxsro","14","NaN","<div style=""width:500px;"">
                            <p style=""font-size:50px; font-weight:bold;""
                            >playful</p>
                            <div style=""width:240px; margin: auto;"">
                                <img src=""images/R_D_S_02.png"" style= ""width:200px""alt=""img"">
                            </div>
                        </div>","-58","","0","images/R_D_S_02.png","","","","playful","2","02","R","D","S","",""
"","","","","","html-slider-response","152","509863","0.0-146.0","7ma4azxsro","14","NaN","<div style=""width:500px;"">
                            <p style=""font-size:50px; font-weight:bold;""
                            >playful</p>
                            <div style=""width:240px; margin: auto;"">
                                <img src=""images/Y_L_U_30.png"" style= ""width:200px""alt=""img"">
                            </div>
                        </div>","-89","","0","images/Y_L_U_30.png","","","","playful","2","30","Y","L","U","",""
"","","","","","html-slider-response","153","511072","0.0-147.0","7ma4azxsro","14","NaN","<div style=""width:500px;"">
                            <p style=""font-size:50px; font-weight:bold;""
                            >playful</p>
                            <div style=""width:240px; margin: auto;"">
                                <img src=""images/G_D_S_12.png"" style= ""width:200px""alt=""img"">
                            </div>
                        </div>","-111","","0","images/G_D_S_12.png","","","","playful","1","12","G","D","S","",""
"","","","","","html-button-response","154","512315","0.0-148.0","7ma4azxsro","14","737","<p>Great Job! You've finished block 4.<br></br> You have 4 block(s) left to go.<br></br></p>","0","","","","","","","","","","","","","",""
"","","","","","html-button-response","155","512915","0.0-149.0","7ma4azxsro","14","598","<p>In this block of trials, you will be asked to rate how much you associate each map with:</p > <p style = 'font-size:150%; font-weight: bold'>exciting</p><br></br>","0","","","","","","","","","","","","","",""
"","","","","","html-slider-response","156","514113","0.0-150.0","7ma4azxsro","14","NaN","<div style=""width:500px;"">
                            <p style=""font-size:50px; font-weight:bold;""
                            >exciting</p>
                            <div style=""width:240px; margin: auto;"">
                                <img src=""images/Y_D_U_37.png"" style= ""width:200px""alt=""img"">
                            </div>
                        </div>","-182","","0","images/Y_D_U_37.png","","","","exciting","2","37","Y","D","U","",""
"","","","","","html-slider-response","157","515911","0.0-151.0","7ma4azxsro","14","NaN","<div style=""width:500px;"">
                            <p style=""font-size:50px; font-weight:bold;""
                            >exciting</p>
                            <div style=""width:240px; margin: auto;"">
                                <img src=""images/R_D_S_02.png"" style= ""width:200px""alt=""img"">
                            </div>
                        </div>","8","","0","images/R_D_S_02.png","","","","exciting","2","02","R","D","S","",""
"","","","","","html-slider-response","158","517153","0.0-152.0","7ma4azxsro","14","NaN","<div style=""width:500px;"">
                            <p style=""font-size:50px; font-weight:bold;""
                            >exciting</p>
                            <div style=""width:240px; margin: auto;"">
                                <img src=""images/G_D_U_13.png"" style= ""width:200px""alt=""img"">
                            </div>
                        </div>","-86","","0","images/G_D_U_13.png","","","","exciting","2","13","G","D","U","",""
"","","","","","html-slider-response","159","518326","0.0-153.0","7ma4azxsro","14","NaN","<div style=""width:500px;"">
                            <p style=""font-size:50px; font-weight:bold;""
                            >exciting</p>
                            <div style=""width:240px; margin: auto;"">
                                <img src=""images/R_L_U_44.png"" style= ""width:200px""alt=""img"">
                            </div>
                        </div>","-25","","0","images/R_L_U_44.png","","","","exciting","1","44","R","L","U","",""
"","","","","","html-slider-response","160","519411","0.0-154.0","7ma4azxsro","14","NaN","<div style=""width:500px;"">
                            <p style=""font-size:50px; font-weight:bold;""
                            >exciting</p>
                            <div style=""width:240px; margin: auto;"">
                                <img src=""images/R_L_S_41.png"" style= ""width:200px""alt=""img"">
                            </div>
                        </div>","-62","","0","images/R_L_S_41.png","","","","exciting","1","41","R","L","S","",""
"","","","","","html-slider-response","161","520564","0.0-155.0","7ma4azxsro","14","NaN","<div style=""width:500px;"">
                            <p style=""font-size:50px; font-weight:bold;""
                            >exciting</p>
                            <div style=""width:240px; margin: auto;"">
                                <img src=""images/Y_L_U_30.png"" style= ""width:200px""alt=""img"">
                            </div>
                        </div>","-15","","0","images/Y_L_U_30.png","","","","exciting","2","30","Y","L","U","",""
"","","","","","html-slider-response","162","522027","0.0-156.0","7ma4azxsro","14","NaN","<div style=""width:500px;"">
                            <p style=""font-size:50px; font-weight:bold;""
                            >exciting</p>
                            <div style=""width:240px; margin: auto;"">
                                <img src=""images/B_D_S_26.png"" style= ""width:200px""alt=""img"">
                            </div>
                        </div>","87","","0","images/B_D_S_26.png","","","","exciting","2","26","B","D","S","",""
"","","","","","html-slider-response","163","523335","0.0-157.0","7ma4azxsro","14","NaN","<div style=""width:500px;"">
                            <p style=""font-size:50px; font-weight:bold;""
                            >exciting</p>
                            <div style=""width:240px; margin: auto;"">
                                <img src=""images/B_L_U_23.png"" style= ""width:200px""alt=""img"">
                            </div>
                        </div>","65","","0","images/B_L_U_23.png","","","","exciting","1","23","B","L","U","",""
"","","","","","html-slider-response","164","524797","0.0-158.0","7ma4azxsro","14","NaN","<div style=""width:500px;"">
                            <p style=""font-size:50px; font-weight:bold;""
                            >exciting</p>
                            <div style=""width:240px; margin: auto;"">
                                <img src=""images/R_D_S_02.png"" style= ""width:200px""alt=""img"">
                            </div>
                        </div>","-47","","0","images/R_D_S_02.png","","","","exciting","1","02","R","D","S","",""
"","","","","","html-slider-response","165","525978","0.0-159.0","7ma4azxsro","14","NaN","<div style=""width:500px;"">
                            <p style=""font-size:50px; font-weight:bold;""
                            >exciting</p>
                            <div style=""width:240px; margin: auto;"">
                                <img src=""images/G_D_S_12.png"" style= ""width:200px""alt=""img"">
                            </div>
                        </div>","-47","","0","images/G_D_S_12.png","","","","exciting","2","12","G","D","S","",""
"","","","","","html-slider-response","166","527230","0.0-160.0","7ma4azxsro","14","NaN","<div style=""width:500px;"">
                            <p style=""font-size:50px; font-weight:bold;""
                            >exciting</p>
                            <div style=""width:240px; margin: auto;"">
                                <img src=""images/Y_L_S_28.png"" style= ""width:200px""alt=""img"">
                            </div>
                        </div>","-18","","0","images/Y_L_S_28.png","","","","exciting","2","28","Y","L","S","",""
"","","","","","html-slider-response","167","529243","0.0-161.0","7ma4azxsro","14","NaN","<div style=""width:500px;"">
                            <p style=""font-size:50px; font-weight:bold;""
                            >exciting</p>
                            <div style=""width:240px; margin: auto;"">
                                <img src=""images/B_D_S_26.png"" style= ""width:200px""alt=""img"">
                            </div>
                        </div>","15","","0","images/B_D_S_26.png","","","","exciting","1","26","B","D","S","",""
"","","","","","html-slider-response","168","530664","0.0-162.0","7ma4azxsro","14","NaN","<div style=""width:500px;"">
                            <p style=""font-size:50px; font-weight:bold;""
                            >exciting</p>
                            <div style=""width:240px; margin: auto;"">
                                <img src=""images/G_D_U_13.png"" style= ""width:200px""alt=""img"">
                            </div>
                        </div>","-71","","0","images/G_D_U_13.png","","","","exciting","1","13","G","D","U","",""
"","","","","","html-slider-response","169","531966","0.0-163.0","7ma4azxsro","14","NaN","<div style=""width:500px;"">
                            <p style=""font-size:50px; font-weight:bold;""
                            >exciting</p>
                            <div style=""width:240px; margin: auto;"">
                                <img src=""images/G_D_S_12.png"" style= ""width:200px""alt=""img"">
                            </div>
                        </div>","-63","","0","images/G_D_S_12.png","","","","exciting","1","12","G","D","S","",""
"","","","","","html-slider-response","170","534063","0.0-164.0","7ma4azxsro","14","NaN","<div style=""width:500px;"">
                            <p style=""font-size:50px; font-weight:bold;""
                            >exciting</p>
                            <div style=""width:240px; margin: auto;"">
                                <img src=""images/B_L_S_15.png"" style= ""width:200px""alt=""img"">
                            </div>
                        </div>","175","","0","images/B_L_S_15.png","","","","exciting","2","15","B","L","S","",""
"","","","","","html-slider-response","171","536224","0.0-165.0","7ma4azxsro","14","NaN","<div style=""width:500px;"">
                            <p style=""font-size:50px; font-weight:bold;""
                            >exciting</p>
                            <div style=""width:240px; margin: auto;"">
                                <img src=""images/Y_L_S_28.png"" style= ""width:200px""alt=""img"">
                            </div>
                        </div>","-105","","0","images/Y_L_S_28.png","","","","exciting","1","28","Y","L","S","",""
"","","","","","html-slider-response","172","537671","0.0-166.0","7ma4azxsro","14","NaN","<div style=""width:500px;"">
                            <p style=""font-size:50px; font-weight:bold;""
                            >exciting</p>
                            <div style=""width:240px; margin: auto;"">
                                <img src=""images/B_D_U_27.png"" style= ""width:200px""alt=""img"">
                            </div>
                        </div>","-38","","0","images/B_D_U_27.png","","","","exciting","1","27","B","D","U","",""
"","","","","","html-slider-response","173","539015","0.0-167.0","7ma4azxsro","14","NaN","<div style=""width:500px;"">
                            <p style=""font-size:50px; font-weight:bold;""
                            >exciting</p>
                            <div style=""width:240px; margin: auto;"">
                                <img src=""images/Y_D_S_33.png"" style= ""width:200px""alt=""img"">
                            </div>
                        </div>","-70","","0","images/Y_D_S_33.png","","","","exciting","2","33","Y","D","S","",""
"","","","","","html-slider-response","174","540318","0.0-168.0","7ma4azxsro","14","NaN","<div style=""width:500px;"">
                            <p style=""font-size:50px; font-weight:bold;""
                            >exciting</p>
                            <div style=""width:240px; margin: auto;"">
                                <img src=""images/R_D_U_05.png"" style= ""width:200px""alt=""img"">
                            </div>
                        </div>","-65","","0","images/R_D_U_05.png","","","","exciting","2","05","R","D","U","",""
"","","","","","html-slider-response","175","542037","0.0-169.0","7ma4azxsro","14","NaN","<div style=""width:500px;"">
                            <p style=""font-size:50px; font-weight:bold;""
                            >exciting</p>
                            <div style=""width:240px; margin: auto;"">
                                <img src=""images/Y_D_U_37.png"" style= ""width:200px""alt=""img"">
                            </div>
                        </div>","-143","","0","images/Y_D_U_37.png","","","","exciting","1","37","Y","D","U","",""
"","","","","","html-slider-response","176","543686","0.0-170.0","7ma4azxsro","14","NaN","<div style=""width:500px;"">
                            <p style=""font-size:50px; font-weight:bold;""
                            >exciting</p>
                            <div style=""width:240px; margin: auto;"">
                                <img src=""images/G_L_S_07.png"" style= ""width:200px""alt=""img"">
                            </div>
                        </div>","19","","0","images/G_L_S_07.png","","","","exciting","1","07","G","L","S","",""
"","","","","","html-slider-response","177","563589","0.0-171.0","7ma4azxsro","14","NaN","<div style=""width:500px;"">
                            <p style=""font-size:50px; font-weight:bold;""
                            >exciting</p>
                            <div style=""width:240px; margin: auto;"">
                                <img src=""images/R_L_S_41.png"" style= ""width:200px""alt=""img"">
                            </div>
                        </div>","147","","0","images/R_L_S_41.png","","","","exciting","2","41","R","L","S","",""
"","","","","","html-slider-response","178","565113","0.0-172.0","7ma4azxsro","14","NaN","<div style=""width:500px;"">
                            <p style=""font-size:50px; font-weight:bold;""
                            >exciting</p>
                            <div style=""width:240px; margin: auto;"">
                                <img src=""images/B_L_U_23.png"" style= ""width:200px""alt=""img"">
                            </div>
                        </div>","67","","0","images/B_L_U_23.png","","","","exciting","2","23","B","L","U","",""
"","","","","","html-slider-response","179","566574","0.0-173.0","7ma4azxsro","14","NaN","<div style=""width:500px;"">
                            <p style=""font-size:50px; font-weight:bold;""
                            >exciting</p>
                            <div style=""width:240px; margin: auto;"">
                                <img src=""images/G_L_S_07.png"" style= ""width:200px""alt=""img"">
                            </div>
                        </div>","60","","0","images/G_L_S_07.png","","","","exciting","2","07","G","L","S","",""
"","","","","","html-slider-response","180","568061","0.0-174.0","7ma4azxsro","14","NaN","<div style=""width:500px;"">
                            <p style=""font-size:50px; font-weight:bold;""
                            >exciting</p>
                            <div style=""width:240px; margin: auto;"">
                                <img src=""images/Y_D_S_33.png"" style= ""width:200px""alt=""img"">
                            </div>
                        </div>","-134","","0","images/Y_D_S_33.png","","","","exciting","1","33","Y","D","S","",""
"","","","","","html-slider-response","181","569322","0.0-175.0","7ma4azxsro","14","NaN","<div style=""width:500px;"">
                            <p style=""font-size:50px; font-weight:bold;""
                            >exciting</p>
                            <div style=""width:240px; margin: auto;"">
                                <img src=""images/R_L_U_44.png"" style= ""width:200px""alt=""img"">
                            </div>
                        </div>","-31","","0","images/R_L_U_44.png","","","","exciting","2","44","R","L","U","",""
"","","","","","html-slider-response","182","570497","0.0-176.0","7ma4azxsro","14","NaN","<div style=""width:500px;"">
                            <p style=""font-size:50px; font-weight:bold;""
                            >exciting</p>
                            <div style=""width:240px; margin: auto;"">
                                <img src=""images/R_D_U_05.png"" style= ""width:200px""alt=""img"">
                            </div>
                        </div>","-46","","0","images/R_D_U_05.png","","","","exciting","1","05","R","D","U","",""
"","","","","","html-slider-response","183","571804","0.0-177.0","7ma4azxsro","14","NaN","<div style=""width:500px;"">
                            <p style=""font-size:50px; font-weight:bold;""
                            >exciting</p>
                            <div style=""width:240px; margin: auto;"">
                                <img src=""images/Y_L_U_30.png"" style= ""width:200px""alt=""img"">
                            </div>
                        </div>","-46","","0","images/Y_L_U_30.png","","","","exciting","1","30","Y","L","U","",""
"","","","","","html-slider-response","184","573152","0.0-178.0","7ma4azxsro","14","NaN","<div style=""width:500px;"">
                            <p style=""font-size:50px; font-weight:bold;""
                            >exciting</p>
                            <div style=""width:240px; margin: auto;"">
                                <img src=""images/B_D_U_27.png"" style= ""width:200px""alt=""img"">
                            </div>
                        </div>","-73","","0","images/B_D_U_27.png","","","","exciting","2","27","B","D","U","",""
"","","","","","html-slider-response","185","575104","0.0-179.0","7ma4azxsro","14","NaN","<div style=""width:500px;"">
                            <p style=""font-size:50px; font-weight:bold;""
                            >exciting</p>
                            <div style=""width:240px; margin: auto;"">
