"success","timeout","failed_images","failed_audio","failed_video","trial_type","trial_index","time_elapsed","internal_node_id","subject_id","condition_num","rt","stimulus","response","question_order","slider_start","image_path","practiceTrial","practiceTrialNum","correct","concept","repetition","map_id","hue","lightness","saturation","ishihara_plate","correct_response"
"true","false","[]","[]","[]","preload","0","1052","0.0-0.0","8ax9pq34af","12","","","","","","","","","","","","","","","","",""
"","","","","","html-button-response","1","3319","0.0-1.0","8ax9pq34af","12","2265","Welcome to our experiment!<p>At the bottom of this screen, you will see a button that says ""Begin Experiment"".<br>Please only click that button when you are ready to complete the 25 minute experiment in one sitting.</p><p> Once you click that button, it will not be possible to restart the experiment.","0","","","","","","","","","","","","","",""
"true","","","","","fullscreen","2","5671","0.0-2.0","8ax9pq34af","12","1349","","","","","","","","","","","","","","","",""
"","","","","","survey-multi-select","3","11268","0.0-3.0","8ax9pq34af","12","5592","","{""Consent"":[""<strong>I consent</strong>""]}","[0]","","","","","","","","","","","","",""
"","","","","","html-button-response","4","12370","0.0-4.0","8ax9pq34af","12","1101","Welcome! <p> This experiment involves two parts: demographic information, followed by the experimental task.<p> It will take about 25 minutes to complete both parts.","0","","","","","","","","","","","","","",""
"","","","","","survey-text","5","22779","0.0-5.0","8ax9pq34af","12","10402","","{""Age"":""19"",""Gender"":""Female"",""Race/ethnicity"":""White"",""Languages"":""English""}","","","","","","","","","","","","","",""
"","","","","","html-slider-response","6","27864","0.0-6.0","8ax9pq34af","12","5083","
                            <div style='text-align:left; font-size:20px; line-height:25px; width: 1400px;'>
                                During this experiment you will be asked to rate how much you associate maps with                    different concepts.<br> Below, you can see some examples of the maps you will be asked to rate. Next to the maps
                    is the list of concepts.<br>You will be asked                    to rate how much you associate each map with each concept on a scale from 'not at all' to 'very much' like the
                    one below. <br><br>
                    Now, please look at the list of concepts and maps. For each concept, think about the map you associate 'very
                    much' with the concept.<br>                     When you see that map during the experiment, please rate it near the 'very much' endpoint of the
                    scale.<br>Now, please think about which map you associate 'not at all'                     with each concept. When you see that map during the experiment, please rate it near the 'not at all' endpoint
                    of the scale.<br>
                    Please use the full range of the scale. That is, if a map is somewhat associated with the concept, you would
                    click partway between the middle point and right side of the scale.                    You will be asked to rate each map for a given concept before moving on to the next concept.<br><br>Press the
                    'Continue' button for instructions on how to use the slider.                    <br><br>
                </div>

                <div style=""width: 500px; margin: 0 auto;"">
                    <!-- Centered text paragraphs -->
                    <div style=""text-align: center; width: 500px;"">
                        <p style=""font-size:25px; line-height:18px;"">calm</p>
                        <p style=""font-size:25px; line-height:18px;"">exciting</p>
                        <p style=""font-size:25px;line-height:18px;"">positive</p>
                        <p style=""font-size:25px;line-height:18px;"">negative</p>
                        <p style=""font-size:25px;line-height:18px;"">serious</p>
                        <p style=""font-size:25px;line-height:18px;"">playful</p>
                        <p style=""font-size:25px;line-height:18px;"">trustworthy</p>
                        <p style=""font-size:25px;line-height:18px;"">disturbing</p>
                    </div>

                    <!-- Grid section -->
                   <div style=""display: flex; justify-content: center; padding-top: 15px;"">
                    <div style=""display: grid; grid-template-columns: repeat(8, 80px); grid-gap: 5px; width: auto;"">
                        <img src=""images/G_L_U_05.png"" alt=""map"" style=""width: 100%;""><img src=""images/R_D_S_41.png"" alt=""map"" style=""width: 100%;""><img src=""images/B_D_S_15.png"" alt=""map"" style=""width: 100%;""><img src=""images/R_L_S_33.png"" alt=""map"" style=""width: 100%;""><img src=""images/Y_D_U_30.png"" alt=""map"" style=""width: 100%;""><img src=""images/B_D_U_23.png"" alt=""map"" style=""width: 100%;""><img src=""images/Y_D_S_28.png"" alt=""map"" style=""width: 100%;""><img src=""images/G_D_S_07.png"" alt=""map"" style=""width: 100%;""><img src=""images/Y_L_U_27.png"" alt=""map"" style=""width: 100%;""><img src=""images/B_L_S_12.png"" alt=""map"" style=""width: 100%;""><img src=""images/G_D_U_10.png"" alt=""map"" style=""width: 100%;""><img src=""images/B_L_U_13.png"" alt=""map"" style=""width: 100%;""><img src=""images/R_L_U_37.png"" alt=""map"" style=""width: 100%;""><img src=""images/Y_L_S_26.png"" alt=""map"" style=""width: 100%;""><img src=""images/R_D_U_44.png"" alt=""map"" style=""width: 100%;""><img src=""images/G_L_S_02.png"" alt=""map"" style=""width: 100%;"">
                    </div>
                </div>

                    <!-- Clear floats -->
                    <div style=""clear: both;""></div>
                </div>
                            ","null","","0","maps_anchoring.png","true","","","","","","","","","",""
"","","","","","html-button-response","7","30254","0.0-7.0","8ax9pq34af","12","2389","<div style=""width:800px;""><p style=""text-align:left"">To move the slider, click and drag your cursor to the location of the scale where you would like to make your rating and then let go. When you let go of the slider, your response will be recorded and the next trial will begin. <br>
                    We are interested in your initial impressions of each map for the given concept, so please go with your first intuition. <br>
                    Before you begin the experiment, there will be four training trials for you to practice using the scale. <br>
                     When you are ready to start the training trials, please click ""Continue"".</p><br></div>","0","","","","","","","","","","","","","",""
"","","","","","html-slider-response","8","33180","0.0-8.0-0.0","8ax9pq34af","12","NaN","<div style=""width:500px;"">
                                    <p style=""font-size:25px;"">Please move the slider all the way to the <br> right endpoint of the scale</p>

                                    </div>
                                </div>","200","","0","","true","0","true","","","","","","","",""
"","","","","","html-button-response","9","34784","0.0-8.0-1.0","8ax9pq34af","12","1100","<p align='center'><b>Good job!</b> Click on 'Continue' to proceed.</p>","0","","","","","","","","","","","","","",""
"","","","","","html-slider-response","10","36816","0.0-9.0-0.0","8ax9pq34af","12","NaN","<div style=""width:500px;"">
                                    <p style=""font-size:25px;"">Please move the slider all the way to the <br> left endpoint of the scale</p>

                                    </div>
                                </div>","-200","","0","","true","1","true","","","","","","","",""
"","","","","","html-button-response","11","38145","0.0-9.0-1.0","8ax9pq34af","12","826","<p align='center'><b>Good job!</b> Click on 'Continue' to proceed.</p>","0","","","","","","","","","","","","","",""
"","","","","","html-slider-response","12","48595","0.0-10.0-0.0","8ax9pq34af","12","NaN","<div style=""width:500px;"">
                                    <p style=""font-size:25px;"">Please move the slider halfway between the center and right endpoint of the scale</p>

                                    </div>
                                </div>","108","","0","","true","2","true","","","","","","","",""
"","","","","","html-button-response","13","49976","0.0-10.0-1.0","8ax9pq34af","12","879","<p align='center'><b>Good job!</b> Click on 'Continue' to proceed.</p>","0","","","","","","","","","","","","","",""
"","","","","","html-slider-response","14","51967","0.0-11.0-0.0","8ax9pq34af","12","NaN","<div style=""width:500px;"">
                                    <p style=""font-size:25px;"">Please move the slider halfway between the center and left endpoint of the scale</p>

                                    </div>
                                </div>","-108","","0","","true","3","true","","","","","","","",""
"","","","","","html-button-response","15","53295","0.0-11.0-1.0","8ax9pq34af","12","827","<p align='center'><b>Good job!</b> Click on 'Continue' to proceed.</p>","0","","","","","","","","","","","","","",""
"","","","","","html-button-response","16","54086","0.0-12.0","8ax9pq34af","12","790","<p>Great job! You've completed the practice trials. Now you will begin the main task.</p>","0","","","","","","","","","","","","","",""
"","","","","","html-button-response","17","56705","0.0-13.0","8ax9pq34af","12","2617","<p>In this block of trials, you will be asked to rate how much you associate each map with:</p > <p style = 'font-size:150%; font-weight: bold'>disturbing</p><br></br>","0","","","","","","","","","","","","","",""
"","","","","","html-slider-response","18","59203","0.0-14.0","8ax9pq34af","12","NaN","<div style=""width:500px;"">
                            <p style=""font-size:50px; font-weight:bold;""
                            >disturbing</p>
                            <div style=""width:240px; margin: auto;"">
                                <img src=""images/B_L_U_13.png"" style= ""width:200px""alt=""img"">
                            </div>
                        </div>","-200","","0","images/B_L_U_13.png","","","","disturbing","2","13","B","L","U","",""
"","","","","","html-slider-response","19","61781","0.0-15.0","8ax9pq34af","12","NaN","<div style=""width:500px;"">
                            <p style=""font-size:50px; font-weight:bold;""
                            >disturbing</p>
                            <div style=""width:240px; margin: auto;"">
                                <img src=""images/R_D_S_41.png"" style= ""width:200px""alt=""img"">
                            </div>
                        </div>","-25","","0","images/R_D_S_41.png","","","","disturbing","2","41","R","D","S","",""
"","","","","","html-slider-response","20","64458","0.0-16.0","8ax9pq34af","12","NaN","<div style=""width:500px;"">
                            <p style=""font-size:50px; font-weight:bold;""
                            >disturbing</p>
                            <div style=""width:240px; margin: auto;"">
                                <img src=""images/R_L_S_33.png"" style= ""width:200px""alt=""img"">
                            </div>
                        </div>","-125","","0","images/R_L_S_33.png","","","","disturbing","2","33","R","L","S","",""
"","","","","","html-slider-response","21","67258","0.0-17.0","8ax9pq34af","12","NaN","<div style=""width:500px;"">
                            <p style=""font-size:50px; font-weight:bold;""
                            >disturbing</p>
                            <div style=""width:240px; margin: auto;"">
                                <img src=""images/G_L_S_02.png"" style= ""width:200px""alt=""img"">
                            </div>
                        </div>","-180","","0","images/G_L_S_02.png","","","","disturbing","1","02","G","L","S","",""
"","","","","","html-slider-response","22","71960","0.0-18.0","8ax9pq34af","12","NaN","<div style=""width:500px;"">
                            <p style=""font-size:50px; font-weight:bold;""
                            >disturbing</p>
                            <div style=""width:240px; margin: auto;"">
                                <img src=""images/B_D_S_15.png"" style= ""width:200px""alt=""img"">
                            </div>
                        </div>","30","","0","images/B_D_S_15.png","","","","disturbing","1","15","B","D","S","",""
"","","","","","html-slider-response","23","74467","0.0-19.0","8ax9pq34af","12","NaN","<div style=""width:500px;"">
                            <p style=""font-size:50px; font-weight:bold;""
                            >disturbing</p>
                            <div style=""width:240px; margin: auto;"">
                                <img src=""images/G_L_S_02.png"" style= ""width:200px""alt=""img"">
                            </div>
                        </div>","79","","0","images/G_L_S_02.png","","","","disturbing","2","02","G","L","S","",""
"","","","","","html-slider-response","24","76680","0.0-20.0","8ax9pq34af","12","NaN","<div style=""width:500px;"">
                            <p style=""font-size:50px; font-weight:bold;""
                            >disturbing</p>
                            <div style=""width:240px; margin: auto;"">
                                <img src=""images/B_L_S_12.png"" style= ""width:200px""alt=""img"">
                            </div>
                        </div>","-25","","0","images/B_L_S_12.png","","","","disturbing","2","12","B","L","S","",""
"","","","","","html-slider-response","25","78633","0.0-21.0","8ax9pq34af","12","NaN","<div style=""width:500px;"">
                            <p style=""font-size:50px; font-weight:bold;""
                            >disturbing</p>
                            <div style=""width:240px; margin: auto;"">
                                <img src=""images/G_L_U_05.png"" style= ""width:200px""alt=""img"">
                            </div>
                        </div>","-200","","0","images/G_L_U_05.png","","","","disturbing","1","05","G","L","U","",""
"","","","","","html-slider-response","26","81433","0.0-22.0","8ax9pq34af","12","NaN","<div style=""width:500px;"">
                            <p style=""font-size:50px; font-weight:bold;""
                            >disturbing</p>
                            <div style=""width:240px; margin: auto;"">
                                <img src=""images/Y_D_S_28.png"" style= ""width:200px""alt=""img"">
                            </div>
                        </div>","200","","0","images/Y_D_S_28.png","","","","disturbing","2","28","Y","D","S","",""
"","","","","","html-slider-response","27","83797","0.0-23.0","8ax9pq34af","12","NaN","<div style=""width:500px;"">
                            <p style=""font-size:50px; font-weight:bold;""
                            >disturbing</p>
                            <div style=""width:240px; margin: auto;"">
                                <img src=""images/R_D_U_44.png"" style= ""width:200px""alt=""img"">
                            </div>
                        </div>","176","","0","images/R_D_U_44.png","","","","disturbing","1","44","R","D","U","",""
"","","","","","html-slider-response","28","85900","0.0-24.0","8ax9pq34af","12","NaN","<div style=""width:500px;"">
                            <p style=""font-size:50px; font-weight:bold;""
                            >disturbing</p>
                            <div style=""width:240px; margin: auto;"">
                                <img src=""images/Y_D_S_28.png"" style= ""width:200px""alt=""img"">
                            </div>
                        </div>","200","","0","images/Y_D_S_28.png","","","","disturbing","1","28","Y","D","S","",""
"","","","","","html-slider-response","29","89753","0.0-25.0","8ax9pq34af","12","NaN","<div style=""width:500px;"">
                            <p style=""font-size:50px; font-weight:bold;""
                            >disturbing</p>
                            <div style=""width:240px; margin: auto;"">
                                <img src=""images/B_D_U_23.png"" style= ""width:200px""alt=""img"">
                            </div>
                        </div>","-168","","0","images/B_D_U_23.png","","","","disturbing","1","23","B","D","U","",""
"","","","","","html-slider-response","30","92416","0.0-26.0","8ax9pq34af","12","NaN","<div style=""width:500px;"">
                            <p style=""font-size:50px; font-weight:bold;""
                            >disturbing</p>
                            <div style=""width:240px; margin: auto;"">
                                <img src=""images/R_L_U_37.png"" style= ""width:200px""alt=""img"">
                            </div>
                        </div>","-98","","0","images/R_L_U_37.png","","","","disturbing","2","37","R","L","U","",""
"","","","","","html-slider-response","31","94042","0.0-27.0","8ax9pq34af","12","NaN","<div style=""width:500px;"">
                            <p style=""font-size:50px; font-weight:bold;""
                            >disturbing</p>
                            <div style=""width:240px; margin: auto;"">
                                <img src=""images/R_L_U_37.png"" style= ""width:200px""alt=""img"">
                            </div>
                        </div>","-144","","0","images/R_L_U_37.png","","","","disturbing","1","37","R","L","U","",""
"","","","","","html-slider-response","32","96909","0.0-28.0","8ax9pq34af","12","NaN","<div style=""width:500px;"">
                            <p style=""font-size:50px; font-weight:bold;""
                            >disturbing</p>
                            <div style=""width:240px; margin: auto;"">
                                <img src=""images/R_D_S_41.png"" style= ""width:200px""alt=""img"">
                            </div>
                        </div>","76","","0","images/R_D_S_41.png","","","","disturbing","1","41","R","D","S","",""
"","","","","","html-slider-response","33","98985","0.0-29.0","8ax9pq34af","12","NaN","<div style=""width:500px;"">
                            <p style=""font-size:50px; font-weight:bold;""
                            >disturbing</p>
                            <div style=""width:240px; margin: auto;"">
                                <img src=""images/B_D_S_15.png"" style= ""width:200px""alt=""img"">
                            </div>
                        </div>","-200","","0","images/B_D_S_15.png","","","","disturbing","2","15","B","D","S","",""
"","","","","","html-slider-response","34","100772","0.0-30.0","8ax9pq34af","12","NaN","<div style=""width:500px;"">
                            <p style=""font-size:50px; font-weight:bold;""
                            >disturbing</p>
                            <div style=""width:240px; margin: auto;"">
                                <img src=""images/Y_D_U_30.png"" style= ""width:200px""alt=""img"">
                            </div>
                        </div>","200","","0","images/Y_D_U_30.png","","","","disturbing","1","30","Y","D","U","",""
"","","","","","html-slider-response","35","103242","0.0-31.0","8ax9pq34af","12","NaN","<div style=""width:500px;"">
                            <p style=""font-size:50px; font-weight:bold;""
                            >disturbing</p>
                            <div style=""width:240px; margin: auto;"">
                                <img src=""images/R_L_S_33.png"" style= ""width:200px""alt=""img"">
                            </div>
                        </div>","-139","","0","images/R_L_S_33.png","","","","disturbing","1","33","R","L","S","",""
"","","","","","html-slider-response","36","105145","0.0-32.0","8ax9pq34af","12","NaN","<div style=""width:500px;"">
                            <p style=""font-size:50px; font-weight:bold;""
                            >disturbing</p>
                            <div style=""width:240px; margin: auto;"">
                                <img src=""images/B_D_U_23.png"" style= ""width:200px""alt=""img"">
                            </div>
                        </div>","-76","","0","images/B_D_U_23.png","","","","disturbing","2","23","B","D","U","",""
"","","","","","html-slider-response","37","107600","0.0-33.0","8ax9pq34af","12","NaN","<div style=""width:500px;"">
                            <p style=""font-size:50px; font-weight:bold;""
                            >disturbing</p>
                            <div style=""width:240px; margin: auto;"">
                                <img src=""images/R_D_U_44.png"" style= ""width:200px""alt=""img"">
                            </div>
                        </div>","117","","0","images/R_D_U_44.png","","","","disturbing","2","44","R","D","U","",""
"","","","","","html-slider-response","38","109123","0.0-34.0","8ax9pq34af","12","NaN","<div style=""width:500px;"">
                            <p style=""font-size:50px; font-weight:bold;""
                            >disturbing</p>
                            <div style=""width:240px; margin: auto;"">
                                <img src=""images/Y_L_S_26.png"" style= ""width:200px""alt=""img"">
                            </div>
                        </div>","200","","0","images/Y_L_S_26.png","","","","disturbing","1","26","Y","L","S","",""
"","","","","","html-slider-response","39","111150","0.0-35.0","8ax9pq34af","12","NaN","<div style=""width:500px;"">
                            <p style=""font-size:50px; font-weight:bold;""
                            >disturbing</p>
                            <div style=""width:240px; margin: auto;"">
                                <img src=""images/B_L_S_12.png"" style= ""width:200px""alt=""img"">
                            </div>
                        </div>","-200","","0","images/B_L_S_12.png","","","","disturbing","1","12","B","L","S","",""
"","","","","","html-slider-response","40","112994","0.0-36.0","8ax9pq34af","12","NaN","<div style=""width:500px;"">
                            <p style=""font-size:50px; font-weight:bold;""
                            >disturbing</p>
                            <div style=""width:240px; margin: auto;"">
                                <img src=""images/Y_L_U_27.png"" style= ""width:200px""alt=""img"">
                            </div>
                        </div>","200","","0","images/Y_L_U_27.png","","","","disturbing","2","27","Y","L","U","",""
"","","","","","html-slider-response","41","115242","0.0-37.0","8ax9pq34af","12","NaN","<div style=""width:500px;"">
                            <p style=""font-size:50px; font-weight:bold;""
                            >disturbing</p>
                            <div style=""width:240px; margin: auto;"">
                                <img src=""images/G_D_S_07.png"" style= ""width:200px""alt=""img"">
                            </div>
                        </div>","90","","0","images/G_D_S_07.png","","","","disturbing","1","07","G","D","S","",""
"","","","","","html-slider-response","42","116643","0.0-38.0","8ax9pq34af","12","NaN","<div style=""width:500px;"">
                            <p style=""font-size:50px; font-weight:bold;""
                            >disturbing</p>
                            <div style=""width:240px; margin: auto;"">
                                <img src=""images/Y_L_S_26.png"" style= ""width:200px""alt=""img"">
                            </div>
                        </div>","200","","0","images/Y_L_S_26.png","","","","disturbing","2","26","Y","L","S","",""
"","","","","","html-slider-response","43","118555","0.0-39.0","8ax9pq34af","12","NaN","<div style=""width:500px;"">
                            <p style=""font-size:50px; font-weight:bold;""
                            >disturbing</p>
                            <div style=""width:240px; margin: auto;"">
                                <img src=""images/G_L_U_05.png"" style= ""width:200px""alt=""img"">
                            </div>
                        </div>","-200","","0","images/G_L_U_05.png","","","","disturbing","2","05","G","L","U","",""
"","","","","","html-slider-response","44","120192","0.0-40.0","8ax9pq34af","12","NaN","<div style=""width:500px;"">
                            <p style=""font-size:50px; font-weight:bold;""
                            >disturbing</p>
                            <div style=""width:240px; margin: auto;"">
                                <img src=""images/Y_D_U_30.png"" style= ""width:200px""alt=""img"">
                            </div>
                        </div>","200","","0","images/Y_D_U_30.png","","","","disturbing","2","30","Y","D","U","",""
"","","","","","html-slider-response","45","121832","0.0-41.0","8ax9pq34af","12","NaN","<div style=""width:500px;"">
                            <p style=""font-size:50px; font-weight:bold;""
                            >disturbing</p>
                            <div style=""width:240px; margin: auto;"">
                                <img src=""images/Y_L_U_27.png"" style= ""width:200px""alt=""img"">
                            </div>
                        </div>","200","","0","images/Y_L_U_27.png","","","","disturbing","1","27","Y","L","U","",""
"","","","","","html-slider-response","46","123653","0.0-42.0","8ax9pq34af","12","NaN","<div style=""width:500px;"">
                            <p style=""font-size:50px; font-weight:bold;""
                            >disturbing</p>
                            <div style=""width:240px; margin: auto;"">
                                <img src=""images/B_L_U_13.png"" style= ""width:200px""alt=""img"">
                            </div>
                        </div>","-200","","0","images/B_L_U_13.png","","","","disturbing","1","13","B","L","U","",""
"","","","","","html-slider-response","47","125464","0.0-43.0","8ax9pq34af","12","NaN","<div style=""width:500px;"">
                            <p style=""font-size:50px; font-weight:bold;""
                            >disturbing</p>
                            <div style=""width:240px; margin: auto;"">
                                <img src=""images/G_D_S_07.png"" style= ""width:200px""alt=""img"">
                            </div>
                        </div>","25","","0","images/G_D_S_07.png","","","","disturbing","2","07","G","D","S","",""
"","","","","","html-slider-response","48","127301","0.0-44.0","8ax9pq34af","12","NaN","<div style=""width:500px;"">
                            <p style=""font-size:50px; font-weight:bold;""
                            >disturbing</p>
                            <div style=""width:240px; margin: auto;"">
                                <img src=""images/G_D_U_10.png"" style= ""width:200px""alt=""img"">
                            </div>
                        </div>","-200","","0","images/G_D_U_10.png","","","","disturbing","1","10","G","D","U","",""
"","","","","","html-slider-response","49","129005","0.0-45.0","8ax9pq34af","12","NaN","<div style=""width:500px;"">
                            <p style=""font-size:50px; font-weight:bold;""
                            >disturbing</p>
                            <div style=""width:240px; margin: auto;"">
                                <img src=""images/G_D_U_10.png"" style= ""width:200px""alt=""img"">
                            </div>
                        </div>","-200","","0","images/G_D_U_10.png","","","","disturbing","2","10","G","D","U","",""
"","","","","","html-button-response","50","130675","0.0-46.0","8ax9pq34af","12","1167","<p>Great Job! You've finished block 1.<br></br> You have 7 block(s) left to go.<br></br></p>","0","","","","","","","","","","","","","",""
"","","","","","html-button-response","51","132742","0.0-47.0","8ax9pq34af","12","2066","<p>In this block of trials, you will be asked to rate how much you associate each map with:</p > <p style = 'font-size:150%; font-weight: bold'>serious</p><br></br>","0","","","","","","","","","","","","","",""
"","","","","","html-slider-response","52","134342","0.0-48.0","8ax9pq34af","12","NaN","<div style=""width:500px;"">
                            <p style=""font-size:50px; font-weight:bold;""
                            >serious</p>
                            <div style=""width:240px; margin: auto;"">
                                <img src=""images/G_D_S_07.png"" style= ""width:200px""alt=""img"">
                            </div>
                        </div>","94","","0","images/G_D_S_07.png","","","","serious","2","07","G","D","S","",""
"","","","","","html-slider-response","53","136065","0.0-49.0","8ax9pq34af","12","NaN","<div style=""width:500px;"">
                            <p style=""font-size:50px; font-weight:bold;""
                            >serious</p>
                            <div style=""width:240px; margin: auto;"">
                                <img src=""images/B_D_S_15.png"" style= ""width:200px""alt=""img"">
                            </div>
                        </div>","200","","0","images/B_D_S_15.png","","","","serious","1","15","B","D","S","",""
"","","","","","html-slider-response","54","137858","0.0-50.0","8ax9pq34af","12","NaN","<div style=""width:500px;"">
                            <p style=""font-size:50px; font-weight:bold;""
                            >serious</p>
                            <div style=""width:240px; margin: auto;"">
                                <img src=""images/R_D_U_44.png"" style= ""width:200px""alt=""img"">
                            </div>
                        </div>","200","","0","images/R_D_U_44.png","","","","serious","2","44","R","D","U","",""
"","","","","","html-slider-response","55","139777","0.0-51.0","8ax9pq34af","12","NaN","<div style=""width:500px;"">
                            <p style=""font-size:50px; font-weight:bold;""
                            >serious</p>
                            <div style=""width:240px; margin: auto;"">
                                <img src=""images/G_L_S_02.png"" style= ""width:200px""alt=""img"">
                            </div>
                        </div>","11","","0","images/G_L_S_02.png","","","","serious","1","02","G","L","S","",""
"","","","","","html-slider-response","56","141904","0.0-52.0","8ax9pq34af","12","NaN","<div style=""width:500px;"">
                            <p style=""font-size:50px; font-weight:bold;""
                            >serious</p>
                            <div style=""width:240px; margin: auto;"">
                                <img src=""images/R_D_S_41.png"" style= ""width:200px""alt=""img"">
                            </div>
                        </div>","16","","0","images/R_D_S_41.png","","","","serious","2","41","R","D","S","",""
"","","","","","html-slider-response","57","143377","0.0-53.0","8ax9pq34af","12","NaN","<div style=""width:500px;"">
                            <p style=""font-size:50px; font-weight:bold;""
                            >serious</p>
                            <div style=""width:240px; margin: auto;"">
                                <img src=""images/G_L_U_05.png"" style= ""width:200px""alt=""img"">
                            </div>
                        </div>","-200","","0","images/G_L_U_05.png","","","","serious","2","05","G","L","U","",""
"","","","","","html-slider-response","58","145264","0.0-54.0","8ax9pq34af","12","NaN","<div style=""width:500px;"">
                            <p style=""font-size:50px; font-weight:bold;""
                            >serious</p>
                            <div style=""width:240px; margin: auto;"">
                                <img src=""images/B_L_S_12.png"" style= ""width:200px""alt=""img"">
                            </div>
                        </div>","-200","","0","images/B_L_S_12.png","","","","serious","2","12","B","L","S","",""
"","","","","","html-slider-response","59","148789","0.0-55.0","8ax9pq34af","12","NaN","<div style=""width:500px;"">
                            <p style=""font-size:50px; font-weight:bold;""
                            >serious</p>
                            <div style=""width:240px; margin: auto;"">
                                <img src=""images/Y_L_S_26.png"" style= ""width:200px""alt=""img"">
                            </div>
                        </div>","26","","0","images/Y_L_S_26.png","","","","serious","2","26","Y","L","S","",""
"","","","","","html-slider-response","60","150213","0.0-56.0","8ax9pq34af","12","NaN","<div style=""width:500px;"">
                            <p style=""font-size:50px; font-weight:bold;""
                            >serious</p>
                            <div style=""width:240px; margin: auto;"">
                                <img src=""images/B_L_U_13.png"" style= ""width:200px""alt=""img"">
                            </div>
                        </div>","-200","","0","images/B_L_U_13.png","","","","serious","2","13","B","L","U","",""
"","","","","","html-slider-response","61","151648","0.0-57.0","8ax9pq34af","12","NaN","<div style=""width:500px;"">
                            <p style=""font-size:50px; font-weight:bold;""
                            >serious</p>
                            <div style=""width:240px; margin: auto;"">
                                <img src=""images/R_L_S_33.png"" style= ""width:200px""alt=""img"">
                            </div>
                        </div>","-200","","0","images/R_L_S_33.png","","","","serious","2","33","R","L","S","",""
"","","","","","html-slider-response","62","153435","0.0-58.0","8ax9pq34af","12","NaN","<div style=""width:500px;"">
                            <p style=""font-size:50px; font-weight:bold;""
                            >serious</p>
                            <div style=""width:240px; margin: auto;"">
                                <img src=""images/B_D_U_23.png"" style= ""width:200px""alt=""img"">
                            </div>
                        </div>","200","","0","images/B_D_U_23.png","","","","serious","1","23","B","D","U","",""
"","","","","","html-slider-response","63","155006","0.0-59.0","8ax9pq34af","12","NaN","<div style=""width:500px;"">
                            <p style=""font-size:50px; font-weight:bold;""
                            >serious</p>
                            <div style=""width:240px; margin: auto;"">
                                <img src=""images/B_D_U_23.png"" style= ""width:200px""alt=""img"">
                            </div>
                        </div>","200","","0","images/B_D_U_23.png","","","","serious","2","23","B","D","U","",""
"","","","","","html-slider-response","64","157298","0.0-60.0","8ax9pq34af","12","NaN","<div style=""width:500px;"">
                            <p style=""font-size:50px; font-weight:bold;""
                            >serious</p>
                            <div style=""width:240px; margin: auto;"">
                                <img src=""images/Y_D_U_30.png"" style= ""width:200px""alt=""img"">
                            </div>
                        </div>","200","","0","images/Y_D_U_30.png","","","","serious","1","30","Y","D","U","",""
"","","","","","html-slider-response","65","158944","0.0-61.0","8ax9pq34af","12","NaN","<div style=""width:500px;"">
                            <p style=""font-size:50px; font-weight:bold;""
                            >serious</p>
                            <div style=""width:240px; margin: auto;"">
                                <img src=""images/Y_D_S_28.png"" style= ""width:200px""alt=""img"">
                            </div>
                        </div>","200","","0","images/Y_D_S_28.png","","","","serious","2","28","Y","D","S","",""
"","","","","","html-slider-response","66","160731","0.0-62.0","8ax9pq34af","12","NaN","<div style=""width:500px;"">
                            <p style=""font-size:50px; font-weight:bold;""
                            >serious</p>
                            <div style=""width:240px; margin: auto;"">
                                <img src=""images/R_L_S_33.png"" style= ""width:200px""alt=""img"">
                            </div>
                        </div>","-200","","0","images/R_L_S_33.png","","","","serious","1","33","R","L","S","",""
"","","","","","html-slider-response","67","163209","0.0-63.0","8ax9pq34af","12","NaN","<div style=""width:500px;"">
                            <p style=""font-size:50px; font-weight:bold;""
                            >serious</p>
                            <div style=""width:240px; margin: auto;"">
                                <img src=""images/R_D_S_41.png"" style= ""width:200px""alt=""img"">
                            </div>
                        </div>","28","","0","images/R_D_S_41.png","","","","serious","1","41","R","D","S","",""
"","","","","","html-slider-response","68","164850","0.0-64.0","8ax9pq34af","12","NaN","<div style=""width:500px;"">
                            <p style=""font-size:50px; font-weight:bold;""
                            >serious</p>
                            <div style=""width:240px; margin: auto;"">
                                <img src=""images/R_L_U_37.png"" style= ""width:200px""alt=""img"">
                            </div>
                        </div>","-200","","0","images/R_L_U_37.png","","","","serious","1","37","R","L","U","",""
"","","","","","html-slider-response","69","167267","0.0-65.0","8ax9pq34af","12","NaN","<div style=""width:500px;"">
                            <p style=""font-size:50px; font-weight:bold;""
                            >serious</p>
                            <div style=""width:240px; margin: auto;"">
                                <img src=""images/G_D_S_07.png"" style= ""width:200px""alt=""img"">
                            </div>
                        </div>","87","","0","images/G_D_S_07.png","","","","serious","1","07","G","D","S","",""
"","","","","","html-slider-response","70","168666","0.0-66.0","8ax9pq34af","12","NaN","<div style=""width:500px;"">
                            <p style=""font-size:50px; font-weight:bold;""
                            >serious</p>
                            <div style=""width:240px; margin: auto;"">
                                <img src=""images/G_L_U_05.png"" style= ""width:200px""alt=""img"">
                            </div>
                        </div>","-200","","0","images/G_L_U_05.png","","","","serious","1","05","G","L","U","",""
"","","","","","html-slider-response","71","170276","0.0-67.0","8ax9pq34af","12","NaN","<div style=""width:500px;"">
                            <p style=""font-size:50px; font-weight:bold;""
                            >serious</p>
                            <div style=""width:240px; margin: auto;"">
                                <img src=""images/B_L_U_13.png"" style= ""width:200px""alt=""img"">
                            </div>
                        </div>","-200","","0","images/B_L_U_13.png","","","","serious","1","13","B","L","U","",""
"","","","","","html-slider-response","72","172130","0.0-68.0","8ax9pq34af","12","NaN","<div style=""width:500px;"">
                            <p style=""font-size:50px; font-weight:bold;""
                            >serious</p>
                            <div style=""width:240px; margin: auto;"">
                                <img src=""images/Y_D_U_30.png"" style= ""width:200px""alt=""img"">
                            </div>
                        </div>","182","","0","images/Y_D_U_30.png","","","","serious","2","30","Y","D","U","",""
"","","","","","html-slider-response","73","174387","0.0-69.0","8ax9pq34af","12","NaN","<div style=""width:500px;"">
                            <p style=""font-size:50px; font-weight:bold;""
                            >serious</p>
                            <div style=""width:240px; margin: auto;"">
                                <img src=""images/Y_L_U_27.png"" style= ""width:200px""alt=""img"">
                            </div>
                        </div>","196","","0","images/Y_L_U_27.png","","","","serious","1","27","Y","L","U","",""
"","","","","","html-slider-response","74","175837","0.0-70.0","8ax9pq34af","12","NaN","<div style=""width:500px;"">
                            <p style=""font-size:50px; font-weight:bold;""
                            >serious</p>
                            <div style=""width:240px; margin: auto;"">
                                <img src=""images/B_L_S_12.png"" style= ""width:200px""alt=""img"">
                            </div>
                        </div>","-200","","0","images/B_L_S_12.png","","","","serious","1","12","B","L","S","",""
"","","","","","html-slider-response","75","177921","0.0-71.0","8ax9pq34af","12","NaN","<div style=""width:500px;"">
                            <p style=""font-size:50px; font-weight:bold;""
                            >serious</p>
                            <div style=""width:240px; margin: auto;"">
                                <img src=""images/Y_L_U_27.png"" style= ""width:200px""alt=""img"">
                            </div>
                        </div>","122","","0","images/Y_L_U_27.png","","","","serious","2","27","Y","L","U","",""
"","","","","","html-slider-response","76","179519","0.0-72.0","8ax9pq34af","12","NaN","<div style=""width:500px;"">
                            <p style=""font-size:50px; font-weight:bold;""
                            >serious</p>
                            <div style=""width:240px; margin: auto;"">
                                <img src=""images/G_D_U_10.png"" style= ""width:200px""alt=""img"">
                            </div>
                        </div>","200","","0","images/G_D_U_10.png","","","","serious","2","10","G","D","U","",""
"","","","","","html-slider-response","77","181164","0.0-73.0","8ax9pq34af","12","NaN","<div style=""width:500px;"">
                            <p style=""font-size:50px; font-weight:bold;""
                            >serious</p>
                            <div style=""width:240px; margin: auto;"">
                                <img src=""images/G_D_U_10.png"" style= ""width:200px""alt=""img"">
                            </div>
                        </div>","200","","0","images/G_D_U_10.png","","","","serious","1","10","G","D","U","",""
"","","","","","html-slider-response","78","183108","0.0-74.0","8ax9pq34af","12","NaN","<div style=""width:500px;"">
                            <p style=""font-size:50px; font-weight:bold;""
                            >serious</p>
                            <div style=""width:240px; margin: auto;"">
                                <img src=""images/B_D_S_15.png"" style= ""width:200px""alt=""img"">
                            </div>
                        </div>","200","","0","images/B_D_S_15.png","","","","serious","2","15","B","D","S","",""
"","","","","","html-slider-response","79","184881","0.0-75.0","8ax9pq34af","12","NaN","<div style=""width:500px;"">
                            <p style=""font-size:50px; font-weight:bold;""
                            >serious</p>
                            <div style=""width:240px; margin: auto;"">
                                <img src=""images/R_L_U_37.png"" style= ""width:200px""alt=""img"">
                            </div>
                        </div>","-200","","0","images/R_L_U_37.png","","","","serious","2","37","R","L","U","",""
"","","","","","html-slider-response","80","186508","0.0-76.0","8ax9pq34af","12","NaN","<div style=""width:500px;"">
                            <p style=""font-size:50px; font-weight:bold;""
                            >serious</p>
                            <div style=""width:240px; margin: auto;"">
                                <img src=""images/R_D_U_44.png"" style= ""width:200px""alt=""img"">
                            </div>
                        </div>","32","","0","images/R_D_U_44.png","","","","serious","1","44","R","D","U","",""
"","","","","","html-slider-response","81","188669","0.0-77.0","8ax9pq34af","12","NaN","<div style=""width:500px;"">
                            <p style=""font-size:50px; font-weight:bold;""
                            >serious</p>
                            <div style=""width:240px; margin: auto;"">
                                <img src=""images/G_L_S_02.png"" style= ""width:200px""alt=""img"">
                            </div>
                        </div>","114","","0","images/G_L_S_02.png","","","","serious","2","02","G","L","S","",""
"","","","","","html-slider-response","82","190900","0.0-78.0","8ax9pq34af","12","NaN","<div style=""width:500px;"">
                            <p style=""font-size:50px; font-weight:bold;""
                            >serious</p>
                            <div style=""width:240px; margin: auto;"">
                                <img src=""images/Y_L_S_26.png"" style= ""width:200px""alt=""img"">
                            </div>
                        </div>","131","","0","images/Y_L_S_26.png","","","","serious","1","26","Y","L","S","",""
"","","","","","html-slider-response","83","192581","0.0-79.0","8ax9pq34af","12","NaN","<div style=""width:500px;"">
                            <p style=""font-size:50px; font-weight:bold;""
                            >serious</p>
                            <div style=""width:240px; margin: auto;"">
                                <img src=""images/Y_D_S_28.png"" style= ""width:200px""alt=""img"">
                            </div>
                        </div>","200","","0","images/Y_D_S_28.png","","","","serious","1","28","Y","D","S","",""
"","","","","","html-button-response","84","193861","0.0-80.0","8ax9pq34af","12","777","<p>Great Job! You've finished block 2.<br></br> You have 6 block(s) left to go.<br></br></p>","0","","","","","","","","","","","","","",""
"","","","","","html-button-response","85","194660","0.0-81.0","8ax9pq34af","12","797","<p>In this block of trials, you will be asked to rate how much you associate each map with:</p > <p style = 'font-size:150%; font-weight: bold'>negative</p><br></br>","0","","","","","","","","","","","","","",""
"","","","","","html-slider-response","86","196055","0.0-82.0","8ax9pq34af","12","NaN","<div style=""width:500px;"">
                            <p style=""font-size:50px; font-weight:bold;""
                            >negative</p>
                            <div style=""width:240px; margin: auto;"">
                                <img src=""images/G_L_U_05.png"" style= ""width:200px""alt=""img"">
                            </div>
                        </div>","-200","","0","images/G_L_U_05.png","","","","negative","2","05","G","L","U","",""
"","","","","","html-slider-response","87","198403","0.0-83.0","8ax9pq34af","12","NaN","<div style=""width:500px;"">
                            <p style=""font-size:50px; font-weight:bold;""
                            >negative</p>
                            <div style=""width:240px; margin: auto;"">
                                <img src=""images/G_D_U_10.png"" style= ""width:200px""alt=""img"">
                            </div>
                        </div>","42","","0","images/G_D_U_10.png","","","","negative","1","10","G","D","U","",""
"","","","","","html-slider-response","88","199974","0.0-84.0","8ax9pq34af","12","NaN","<div style=""width:500px;"">
                            <p style=""font-size:50px; font-weight:bold;""
                            >negative</p>
                            <div style=""width:240px; margin: auto;"">
                                <img src=""images/Y_L_S_26.png"" style= ""width:200px""alt=""img"">
                            </div>
                        </div>","200","","0","images/Y_L_S_26.png","","","","negative","2","26","Y","L","S","",""
"","","","","","html-slider-response","89","201952","0.0-85.0","8ax9pq34af","12","NaN","<div style=""width:500px;"">
                            <p style=""font-size:50px; font-weight:bold;""
                            >negative</p>
                            <div style=""width:240px; margin: auto;"">
                                <img src=""images/B_L_S_12.png"" style= ""width:200px""alt=""img"">
                            </div>
                        </div>","-200","","0","images/B_L_S_12.png","","","","negative","1","12","B","L","S","",""
"","","","","","html-slider-response","90","204483","0.0-86.0","8ax9pq34af","12","NaN","<div style=""width:500px;"">
                            <p style=""font-size:50px; font-weight:bold;""
                            >negative</p>
                            <div style=""width:240px; margin: auto;"">
                                <img src=""images/G_D_U_10.png"" style= ""width:200px""alt=""img"">
                            </div>
                        </div>","47","","0","images/G_D_U_10.png","","","","negative","2","10","G","D","U","",""
"","","","","","html-slider-response","91","206102","0.0-87.0","8ax9pq34af","12","NaN","<div style=""width:500px;"">
                            <p style=""font-size:50px; font-weight:bold;""
                            >negative</p>
                            <div style=""width:240px; margin: auto;"">
                                <img src=""images/R_L_S_33.png"" style= ""width:200px""alt=""img"">
                            </div>
                        </div>","-200","","0","images/R_L_S_33.png","","","","negative","2","33","R","L","S","",""
"","","","","","html-slider-response","92","207576","0.0-88.0","8ax9pq34af","12","NaN","<div style=""width:500px;"">
                            <p style=""font-size:50px; font-weight:bold;""
                            >negative</p>
                            <div style=""width:240px; margin: auto;"">
                                <img src=""images/B_L_U_13.png"" style= ""width:200px""alt=""img"">
                            </div>
                        </div>","-200","","0","images/B_L_U_13.png","","","","negative","1","13","B","L","U","",""
"","","","","","html-slider-response","93","209272","0.0-89.0","8ax9pq34af","12","NaN","<div style=""width:500px;"">
                            <p style=""font-size:50px; font-weight:bold;""
                            >negative</p>
                            <div style=""width:240px; margin: auto;"">
                                <img src=""images/Y_D_S_28.png"" style= ""width:200px""alt=""img"">
                            </div>
                        </div>","200","","0","images/Y_D_S_28.png","","","","negative","1","28","Y","D","S","",""
"","","","","","html-slider-response","94","210616","0.0-90.0","8ax9pq34af","12","NaN","<div style=""width:500px;"">
                            <p style=""font-size:50px; font-weight:bold;""
                            >negative</p>
                            <div style=""width:240px; margin: auto;"">
                                <img src=""images/B_L_S_12.png"" style= ""width:200px""alt=""img"">
                            </div>
                        </div>","-200","","0","images/B_L_S_12.png","","","","negative","2","12","B","L","S","",""
"","","","","","html-slider-response","95","212477","0.0-91.0","8ax9pq34af","12","NaN","<div style=""width:500px;"">
                            <p style=""font-size:50px; font-weight:bold;""
                            >negative</p>
                            <div style=""width:240px; margin: auto;"">
                                <img src=""images/R_L_U_37.png"" style= ""width:200px""alt=""img"">
                            </div>
                        </div>","-200","","0","images/R_L_U_37.png","","","","negative","1","37","R","L","U","",""
"","","","","","html-slider-response","96","213876","0.0-92.0","8ax9pq34af","12","NaN","<div style=""width:500px;"">
                            <p style=""font-size:50px; font-weight:bold;""
                            >negative</p>
                            <div style=""width:240px; margin: auto;"">
                                <img src=""images/R_L_U_37.png"" style= ""width:200px""alt=""img"">
                            </div>
                        </div>","-200","","0","images/R_L_U_37.png","","","","negative","2","37","R","L","U","",""
"","","","","","html-slider-response","97","215516","0.0-93.0","8ax9pq34af","12","NaN","<div style=""width:500px;"">
                            <p style=""font-size:50px; font-weight:bold;""
                            >negative</p>
                            <div style=""width:240px; margin: auto;"">
                                <img src=""images/R_L_S_33.png"" style= ""width:200px""alt=""img"">
                            </div>
                        </div>","-190","","0","images/R_L_S_33.png","","","","negative","1","33","R","L","S","",""
"","","","","","html-slider-response","98","217550","0.0-94.0","8ax9pq34af","12","NaN","<div style=""width:500px;"">
                            <p style=""font-size:50px; font-weight:bold;""
                            >negative</p>
                            <div style=""width:240px; margin: auto;"">
                                <img src=""images/G_D_S_07.png"" style= ""width:200px""alt=""img"">
                            </div>
                        </div>","122","","0","images/G_D_S_07.png","","","","negative","2","07","G","D","S","",""
"","","","","","html-slider-response","99","219371","0.0-95.0","8ax9pq34af","12","NaN","<div style=""width:500px;"">
                            <p style=""font-size:50px; font-weight:bold;""
                            >negative</p>
                            <div style=""width:240px; margin: auto;"">
                                <img src=""images/B_D_S_15.png"" style= ""width:200px""alt=""img"">
                            </div>
                        </div>","40","","0","images/B_D_S_15.png","","","","negative","1","15","B","D","S","",""
"","","","","","html-slider-response","100","221141","0.0-96.0","8ax9pq34af","12","NaN","<div style=""width:500px;"">
                            <p style=""font-size:50px; font-weight:bold;""
                            >negative</p>
                            <div style=""width:240px; margin: auto;"">
                                <img src=""images/Y_D_U_30.png"" style= ""width:200px""alt=""img"">
                            </div>
                        </div>","200","","0","images/Y_D_U_30.png","","","","negative","2","30","Y","D","U","",""
"","","","","","html-slider-response","101","223307","0.0-97.0","8ax9pq34af","12","NaN","<div style=""width:500px;"">
                            <p style=""font-size:50px; font-weight:bold;""
                            >negative</p>
                            <div style=""width:240px; margin: auto;"">
                                <img src=""images/Y_L_S_26.png"" style= ""width:200px""alt=""img"">
                            </div>
                        </div>","198","","0","images/Y_L_S_26.png","","","","negative","1","26","Y","L","S","",""
"","","","","","html-slider-response","102","225004","0.0-98.0","8ax9pq34af","12","NaN","<div style=""width:500px;"">
                            <p style=""font-size:50px; font-weight:bold;""
                            >negative</p>
                            <div style=""width:240px; margin: auto;"">
                                <img src=""images/G_L_S_02.png"" style= ""width:200px""alt=""img"">
                            </div>
                        </div>","10","","0","images/G_L_S_02.png","","","","negative","2","02","G","L","S","",""
"","","","","","html-slider-response","103","226817","0.0-99.0","8ax9pq34af","12","NaN","<div style=""width:500px;"">
                            <p style=""font-size:50px; font-weight:bold;""
                            >negative</p>
                            <div style=""width:240px; margin: auto;"">
                                <img src=""images/G_D_S_07.png"" style= ""width:200px""alt=""img"">
                            </div>
                        </div>","89","","0","images/G_D_S_07.png","","","","negative","1","07","G","D","S","",""
"","","","","","html-slider-response","104","228404","0.0-100.0","8ax9pq34af","12","NaN","<div style=""width:500px;"">
                            <p style=""font-size:50px; font-weight:bold;""
                            >negative</p>
                            <div style=""width:240px; margin: auto;"">
                                <img src=""images/Y_D_U_30.png"" style= ""width:200px""alt=""img"">
                            </div>
                        </div>","200","","0","images/Y_D_U_30.png","","","","negative","1","30","Y","D","U","",""
"","","","","","html-slider-response","105","229914","0.0-101.0","8ax9pq34af","12","NaN","<div style=""width:500px;"">
                            <p style=""font-size:50px; font-weight:bold;""
                            >negative</p>
                            <div style=""width:240px; margin: auto;"">
                                <img src=""images/B_L_U_13.png"" style= ""width:200px""alt=""img"">
                            </div>
                        </div>","-200","","0","images/B_L_U_13.png","","","","negative","2","13","B","L","U","",""
"","","","","","html-slider-response","106","231690","0.0-102.0","8ax9pq34af","12","NaN","<div style=""width:500px;"">
                            <p style=""font-size:50px; font-weight:bold;""
                            >negative</p>
                            <div style=""width:240px; margin: auto;"">
                                <img src=""images/R_D_U_44.png"" style= ""width:200px""alt=""img"">
                            </div>
                        </div>","58","","0","images/R_D_U_44.png","","","","negative","1","44","R","D","U","",""
"","","","","","html-slider-response","107","233675","0.0-103.0","8ax9pq34af","12","NaN","<div style=""width:500px;"">
                            <p style=""font-size:50px; font-weight:bold;""
                            >negative</p>
                            <div style=""width:240px; margin: auto;"">
                                <img src=""images/Y_L_U_27.png"" style= ""width:200px""alt=""img"">
                            </div>
                        </div>","90","","0","images/Y_L_U_27.png","","","","negative","1","27","Y","L","U","",""
"","","","","","html-slider-response","108","235538","0.0-104.0","8ax9pq34af","12","NaN","<div style=""width:500px;"">
                            <p style=""font-size:50px; font-weight:bold;""
                            >negative</p>
                            <div style=""width:240px; margin: auto;"">
                                <img src=""images/B_D_U_23.png"" style= ""width:200px""alt=""img"">
                            </div>
                        </div>","142","","0","images/B_D_U_23.png","","","","negative","2","23","B","D","U","",""
"","","","","","html-slider-response","109","237097","0.0-105.0","8ax9pq34af","12","NaN","<div style=""width:500px;"">
                            <p style=""font-size:50px; font-weight:bold;""
                            >negative</p>
                            <div style=""width:240px; margin: auto;"">
                                <img src=""images/R_D_U_44.png"" style= ""width:200px""alt=""img"">
                            </div>
                        </div>","138","","0","images/R_D_U_44.png","","","","negative","2","44","R","D","U","",""
"","","","","","html-slider-response","110","239005","0.0-106.0","8ax9pq34af","12","NaN","<div style=""width:500px;"">
                            <p style=""font-size:50px; font-weight:bold;""
                            >negative</p>
                            <div style=""width:240px; margin: auto;"">
                                <img src=""images/G_L_S_02.png"" style= ""width:200px""alt=""img"">
                            </div>
                        </div>","-11","","0","images/G_L_S_02.png","","","","negative","1","02","G","L","S","",""
"","","","","","html-slider-response","111","240981","0.0-107.0","8ax9pq34af","12","NaN","<div style=""width:500px;"">
                            <p style=""font-size:50px; font-weight:bold;""
                            >negative</p>
                            <div style=""width:240px; margin: auto;"">
                                <img src=""images/R_D_S_41.png"" style= ""width:200px""alt=""img"">
                            </div>
                        </div>","-25","","0","images/R_D_S_41.png","","","","negative","2","41","R","D","S","",""
"","","","","","html-slider-response","112","242682","0.0-108.0","8ax9pq34af","12","NaN","<div style=""width:500px;"">
                            <p style=""font-size:50px; font-weight:bold;""
                            >negative</p>
                            <div style=""width:240px; margin: auto;"">
                                <img src=""images/Y_L_U_27.png"" style= ""width:200px""alt=""img"">
                            </div>
                        </div>","86","","0","images/Y_L_U_27.png","","","","negative","2","27","Y","L","U","",""
"","","","","","html-slider-response","113","244548","0.0-109.0","8ax9pq34af","12","NaN","<div style=""width:500px;"">
                            <p style=""font-size:50px; font-weight:bold;""
                            >negative</p>
                            <div style=""width:240px; margin: auto;"">
                                <img src=""images/G_L_U_05.png"" style= ""width:200px""alt=""img"">
                            </div>
                        </div>","-75","","0","images/G_L_U_05.png","","","","negative","1","05","G","L","U","",""
"","","","","","html-slider-response","114","246358","0.0-110.0","8ax9pq34af","12","NaN","<div style=""width:500px;"">
                            <p style=""font-size:50px; font-weight:bold;""
                            >negative</p>
                            <div style=""width:240px; margin: auto;"">
                                <img src=""images/R_D_S_41.png"" style= ""width:200px""alt=""img"">
                            </div>
                        </div>","34","","0","images/R_D_S_41.png","","","","negative","1","41","R","D","S","",""
"","","","","","html-slider-response","115","248212","0.0-111.0","8ax9pq34af","12","NaN","<div style=""width:500px;"">
                            <p style=""font-size:50px; font-weight:bold;""
                            >negative</p>
                            <div style=""width:240px; margin: auto;"">
                                <img src=""images/B_D_S_15.png"" style= ""width:200px""alt=""img"">
                            </div>
                        </div>","88","","0","images/B_D_S_15.png","","","","negative","2","15","B","D","S","",""
"","","","","","html-slider-response","116","249687","0.0-112.0","8ax9pq34af","12","NaN","<div style=""width:500px;"">
                            <p style=""font-size:50px; font-weight:bold;""
                            >negative</p>
                            <div style=""width:240px; margin: auto;"">
                                <img src=""images/Y_D_S_28.png"" style= ""width:200px""alt=""img"">
                            </div>
                        </div>","200","","0","images/Y_D_S_28.png","","","","negative","2","28","Y","D","S","",""
"","","","","","html-slider-response","117","251864","0.0-113.0","8ax9pq34af","12","NaN","<div style=""width:500px;"">
                            <p style=""font-size:50px; font-weight:bold;""
                            >negative</p>
                            <div style=""width:240px; margin: auto;"">
                                <img src=""images/B_D_U_23.png"" style= ""width:200px""alt=""img"">
                            </div>
                        </div>","100","","0","images/B_D_U_23.png","","","","negative","1","23","B","D","U","",""
"","","","","","html-button-response","118","253028","0.0-114.0","8ax9pq34af","12","661","<p>Great Job! You've finished block 3.<br></br> You have 5 block(s) left to go.<br></br></p>","0","","","","","","","","","","","","","",""
"","","","","","html-button-response","119","253859","0.0-115.0","8ax9pq34af","12","831","<p>In this block of trials, you will be asked to rate how much you associate each map with:</p > <p style = 'font-size:150%; font-weight: bold'>exciting</p><br></br>","0","","","","","","","","","","","","","",""
"","","","","","html-slider-response","120","255262","0.0-116.0","8ax9pq34af","12","NaN","<div style=""width:500px;"">
                            <p style=""font-size:50px; font-weight:bold;""
                            >exciting</p>
                            <div style=""width:240px; margin: auto;"">
                                <img src=""images/Y_D_S_28.png"" style= ""width:200px""alt=""img"">
                            </div>
                        </div>","-200","","0","images/Y_D_S_28.png","","","","exciting","1","28","Y","D","S","",""
"","","","","","html-slider-response","121","257279","0.0-117.0","8ax9pq34af","12","NaN","<div style=""width:500px;"">
                            <p style=""font-size:50px; font-weight:bold;""
                            >exciting</p>
                            <div style=""width:240px; margin: auto;"">
                                <img src=""images/R_D_U_44.png"" style= ""width:200px""alt=""img"">
                            </div>
                        </div>","11","","0","images/R_D_U_44.png","","","","exciting","2","44","R","D","U","",""
"","","","","","html-slider-response","122","258849","0.0-118.0","8ax9pq34af","12","NaN","<div style=""width:500px;"">
                            <p style=""font-size:50px; font-weight:bold;""
                            >exciting</p>
                            <div style=""width:240px; margin: auto;"">
                                <img src=""images/B_L_S_12.png"" style= ""width:200px""alt=""img"">
                            </div>
                        </div>","200","","0","images/B_L_S_12.png","","","","exciting","2","12","B","L","S","",""
"","","","","","html-slider-response","123","260508","0.0-119.0","8ax9pq34af","12","NaN","<div style=""width:500px;"">
                            <p style=""font-size:50px; font-weight:bold;""
                            >exciting</p>
                            <div style=""width:240px; margin: auto;"">
                                <img src=""images/B_L_S_12.png"" style= ""width:200px""alt=""img"">
                            </div>
                        </div>","200","","0","images/B_L_S_12.png","","","","exciting","1","12","B","L","S","",""
"","","","","","html-slider-response","124","262230","0.0-120.0","8ax9pq34af","12","NaN","<div style=""width:500px;"">
                            <p style=""font-size:50px; font-weight:bold;""
                            >exciting</p>
                            <div style=""width:240px; margin: auto;"">
                                <img src=""images/R_L_U_37.png"" style= ""width:200px""alt=""img"">
                            </div>
                        </div>","200","","0","images/R_L_U_37.png","","","","exciting","1","37","R","L","U","",""
"","","","","","html-slider-response","125","264206","0.0-121.0","8ax9pq34af","12","NaN","<div style=""width:500px;"">
                            <p style=""font-size:50px; font-weight:bold;""
                            >exciting</p>
                            <div style=""width:240px; margin: auto;"">
                                <img src=""images/B_D_U_23.png"" style= ""width:200px""alt=""img"">
                            </div>
                        </div>","15","","0","images/B_D_U_23.png","","","","exciting","1","23","B","D","U","",""
"","","","","","html-slider-response","126","265903","0.0-122.0","8ax9pq34af","12","NaN","<div style=""width:500px;"">
                            <p style=""font-size:50px; font-weight:bold;""
                            >exciting</p>
                            <div style=""width:240px; margin: auto;"">
                                <img src=""images/G_L_S_02.png"" style= ""width:200px""alt=""img"">
                            </div>
                        </div>","200","","0","images/G_L_S_02.png","","","","exciting","1","02","G","L","S","",""
"","","","","","html-slider-response","127","267600","0.0-123.0","8ax9pq34af","12","NaN","<div style=""width:500px;"">
                            <p style=""font-size:50px; font-weight:bold;""
                            >exciting</p>
                            <div style=""width:240px; margin: auto;"">
                                <img src=""images/Y_L_S_26.png"" style= ""width:200px""alt=""img"">
                            </div>
                        </div>","-31","","0","images/Y_L_S_26.png","","","","exciting","2","26","Y","L","S","",""
"","","","","","html-slider-response","128","269214","0.0-124.0","8ax9pq34af","12","NaN","<div style=""width:500px;"">
                            <p style=""font-size:50px; font-weight:bold;""
                            >exciting</p>
                            <div style=""width:240px; margin: auto;"">
                                <img src=""images/Y_L_U_27.png"" style= ""width:200px""alt=""img"">
                            </div>
                        </div>","10","","0","images/Y_L_U_27.png","","","","exciting","1","27","Y","L","U","",""
"","","","","","html-slider-response","129","270959","0.0-125.0","8ax9pq34af","12","NaN","<div style=""width:500px;"">
                            <p style=""font-size:50px; font-weight:bold;""
                            >exciting</p>
                            <div style=""width:240px; margin: auto;"">
                                <img src=""images/Y_L_U_27.png"" style= ""width:200px""alt=""img"">
                            </div>
                        </div>","18","","0","images/Y_L_U_27.png","","","","exciting","2","27","Y","L","U","",""
"","","","","","html-slider-response","130","272582","0.0-126.0","8ax9pq34af","12","NaN","<div style=""width:500px;"">
                            <p style=""font-size:50px; font-weight:bold;""
                            >exciting</p>
                            <div style=""width:240px; margin: auto;"">
                                <img src=""images/R_D_S_41.png"" style= ""width:200px""alt=""img"">
                            </div>
                        </div>","-26","","0","images/R_D_S_41.png","","","","exciting","1","41","R","D","S","",""
"","","","","","html-slider-response","131","274625","0.0-127.0","8ax9pq34af","12","NaN","<div style=""width:500px;"">
                            <p style=""font-size:50px; font-weight:bold;""
                            >exciting</p>
                            <div style=""width:240px; margin: auto;"">
                                <img src=""images/B_D_S_15.png"" style= ""width:200px""alt=""img"">
                            </div>
                        </div>","-166","","0","images/B_D_S_15.png","","","","exciting","1","15","B","D","S","",""
"","","","","","html-slider-response","132","276051","0.0-128.0","8ax9pq34af","12","NaN","<div style=""width:500px;"">
                            <p style=""font-size:50px; font-weight:bold;""
                            >exciting</p>
                            <div style=""width:240px; margin: auto;"">
                                <img src=""images/B_L_U_13.png"" style= ""width:200px""alt=""img"">
                            </div>
                        </div>","200","","0","images/B_L_U_13.png","","","","exciting","2","13","B","L","U","",""
"","","","","","html-slider-response","133","277517","0.0-129.0","8ax9pq34af","12","NaN","<div style=""width:500px;"">
                            <p style=""font-size:50px; font-weight:bold;""
                            >exciting</p>
                            <div style=""width:240px; margin: auto;"">
                                <img src=""images/R_D_U_44.png"" style= ""width:200px""alt=""img"">
                            </div>
                        </div>","-200","","0","images/R_D_U_44.png","","","","exciting","1","44","R","D","U","",""
"","","","","","html-slider-response","134","279114","0.0-130.0","8ax9pq34af","12","NaN","<div style=""width:500px;"">
                            <p style=""font-size:50px; font-weight:bold;""
                            >exciting</p>
                            <div style=""width:240px; margin: auto;"">
                                <img src=""images/Y_L_S_26.png"" style= ""width:200px""alt=""img"">
                            </div>
                        </div>","-200","","0","images/Y_L_S_26.png","","","","exciting","1","26","Y","L","S","",""
"","","","","","html-slider-response","135","280513","0.0-131.0","8ax9pq34af","12","NaN","<div style=""width:500px;"">
                            <p style=""font-size:50px; font-weight:bold;""
                            >exciting</p>
                            <div style=""width:240px; margin: auto;"">
                                <img src=""images/B_D_U_23.png"" style= ""width:200px""alt=""img"">
                            </div>
                        </div>","-198","","0","images/B_D_U_23.png","","","","exciting","2","23","B","D","U","",""
"","","","","","html-slider-response","136","282803","0.0-132.0","8ax9pq34af","12","NaN","<div style=""width:500px;"">
                            <p style=""font-size:50px; font-weight:bold;""
                            >exciting</p>
                            <div style=""width:240px; margin: auto;"">
                                <img src=""images/G_L_U_05.png"" style= ""width:200px""alt=""img"">
                            </div>
                        </div>","125","","0","images/G_L_U_05.png","","","","exciting","2","05","G","L","U","",""
"","","","","","html-slider-response","137","284557","0.0-133.0","8ax9pq34af","12","NaN","<div style=""width:500px;"">
                            <p style=""font-size:50px; font-weight:bold;""
                            >exciting</p>
                            <div style=""width:240px; margin: auto;"">
                                <img src=""images/R_L_S_33.png"" style= ""width:200px""alt=""img"">
                            </div>
                        </div>","200","","0","images/R_L_S_33.png","","","","exciting","2","33","R","L","S","",""
"","","","","","html-slider-response","138","286114","0.0-134.0","8ax9pq34af","12","NaN","<div style=""width:500px;"">
                            <p style=""font-size:50px; font-weight:bold;""
                            >exciting</p>
                            <div style=""width:240px; margin: auto;"">
                                <img src=""images/G_D_S_07.png"" style= ""width:200px""alt=""img"">
                            </div>
                        </div>","-200","","0","images/G_D_S_07.png","","","","exciting","2","07","G","D","S","",""
"","","","","","html-slider-response","139","287869","0.0-135.0","8ax9pq34af","12","NaN","<div style=""width:500px;"">
                            <p style=""font-size:50px; font-weight:bold;""
                            >exciting</p>
                            <div style=""width:240px; margin: auto;"">
                                <img src=""images/R_L_U_37.png"" style= ""width:200px""alt=""img"">
                            </div>
                        </div>","158","","0","images/R_L_U_37.png","","","","exciting","2","37","R","L","U","",""
"","","","","","html-slider-response","140","289705","0.0-136.0","8ax9pq34af","12","NaN","<div style=""width:500px;"">
                            <p style=""font-size:50px; font-weight:bold;""
                            >exciting</p>
                            <div style=""width:240px; margin: auto;"">
                                <img src=""images/B_D_S_15.png"" style= ""width:200px""alt=""img"">
                            </div>
                        </div>","-142","","0","images/B_D_S_15.png","","","","exciting","2","15","B","D","S","",""
"","","","","","html-slider-response","141","291419","0.0-137.0","8ax9pq34af","12","NaN","<div style=""width:500px;"">
                            <p style=""font-size:50px; font-weight:bold;""
                            >exciting</p>
                            <div style=""width:240px; margin: auto;"">
                                <img src=""images/Y_D_U_30.png"" style= ""width:200px""alt=""img"">
                            </div>
                        </div>","-200","","0","images/Y_D_U_30.png","","","","exciting","1","30","Y","D","U","",""
"","","","","","html-slider-response","142","292752","0.0-138.0","8ax9pq34af","12","NaN","<div style=""width:500px;"">
                            <p style=""font-size:50px; font-weight:bold;""
                            >exciting</p>
                            <div style=""width:240px; margin: auto;"">
                                <img src=""images/R_L_S_33.png"" style= ""width:200px""alt=""img"">
                            </div>
                        </div>","200","","0","images/R_L_S_33.png","","","","exciting","1","33","R","L","S","",""
"","","","","","html-slider-response","143","294147","0.0-139.0","8ax9pq34af","12","NaN","<div style=""width:500px;"">
                            <p style=""font-size:50px; font-weight:bold;""
                            >exciting</p>
                            <div style=""width:240px; margin: auto;"">
                                <img src=""images/B_L_U_13.png"" style= ""width:200px""alt=""img"">
                            </div>
                        </div>","200","","0","images/B_L_U_13.png","","","","exciting","1","13","B","L","U","",""
"","","","","","html-slider-response","144","295725","0.0-140.0","8ax9pq34af","12","NaN","<div style=""width:500px;"">
                            <p style=""font-size:50px; font-weight:bold;""
                            >exciting</p>
                            <div style=""width:240px; margin: auto;"">
                                <img src=""images/G_D_S_07.png"" style= ""width:200px""alt=""img"">
                            </div>
                        </div>","-198","","0","images/G_D_S_07.png","","","","exciting","1","07","G","D","S","",""
"","","","","","html-slider-response","145","297216","0.0-141.0","8ax9pq34af","12","NaN","<div style=""width:500px;"">
                            <p style=""font-size:50px; font-weight:bold;""
                            >exciting</p>
                            <div style=""width:240px; margin: auto;"">
                                <img src=""images/G_D_U_10.png"" style= ""width:200px""alt=""img"">
                            </div>
                        </div>","-200","","0","images/G_D_U_10.png","","","","exciting","2","10","G","D","U","",""
"","","","","","html-slider-response","146","298932","0.0-142.0","8ax9pq34af","12","NaN","<div style=""width:500px;"">
                            <p style=""font-size:50px; font-weight:bold;""
                            >exciting</p>
                            <div style=""width:240px; margin: auto;"">
                                <img src=""images/G_L_U_05.png"" style= ""width:200px""alt=""img"">
                            </div>
                        </div>","122","","0","images/G_L_U_05.png","","","","exciting","1","05","G","L","U","",""
"","","","","","html-slider-response","147","300337","0.0-143.0","8ax9pq34af","12","NaN","<div style=""width:500px;"">
                            <p style=""font-size:50px; font-weight:bold;""
                            >exciting</p>
                            <div style=""width:240px; margin: auto;"">
                                <img src=""images/Y_D_U_30.png"" style= ""width:200px""alt=""img"">
                            </div>
                        </div>","-200","","0","images/Y_D_U_30.png","","","","exciting","2","30","Y","D","U","",""
"","","","","","html-slider-response","148","301854","0.0-144.0","8ax9pq34af","12","NaN","<div style=""width:500px;"">
                            <p style=""font-size:50px; font-weight:bold;""
                            >exciting</p>
                            <div style=""width:240px; margin: auto;"">
                                <img src=""images/G_L_S_02.png"" style= ""width:200px""alt=""img"">
                            </div>
                        </div>","85","","0","images/G_L_S_02.png","","","","exciting","2","02","G","L","S","",""
"","","","","","html-slider-response","149","303269","0.0-145.0","8ax9pq34af","12","NaN","<div style=""width:500px;"">
                            <p style=""font-size:50px; font-weight:bold;""
                            >exciting</p>
                            <div style=""width:240px; margin: auto;"">
                                <img src=""images/G_D_U_10.png"" style= ""width:200px""alt=""img"">
                            </div>
                        </div>","-200","","0","images/G_D_U_10.png","","","","exciting","1","10","G","D","U","",""
"","","","","","html-slider-response","150","304818","0.0-146.0","8ax9pq34af","12","NaN","<div style=""width:500px;"">
                            <p style=""font-size:50px; font-weight:bold;""
                            >exciting</p>
                            <div style=""width:240px; margin: auto;"">
                                <img src=""images/R_D_S_41.png"" style= ""width:200px""alt=""img"">
                            </div>
                        </div>","-200","","0","images/R_D_S_41.png","","","","exciting","2","41","R","D","S","",""
"","","","","","html-slider-response","151","306146","0.0-147.0","8ax9pq34af","12","NaN","<div style=""width:500px;"">
                            <p style=""font-size:50px; font-weight:bold;""
                            >exciting</p>
                            <div style=""width:240px; margin: auto;"">
                                <img src=""images/Y_D_S_28.png"" style= ""width:200px""alt=""img"">
                            </div>
                        </div>","-200","","0","images/Y_D_S_28.png","","","","exciting","2","28","Y","D","S","",""
"","","","","","html-button-response","152","307401","0.0-148.0","8ax9pq34af","12","752","<p>Great Job! You've finished block 4.<br></br> You have 4 block(s) left to go.<br></br></p>","0","","","","","","","","","","","","","",""
"","","","","","html-button-response","153","308117","0.0-149.0","8ax9pq34af","12","715","<p>In this block of trials, you will be asked to rate how much you associate each map with:</p > <p style = 'font-size:150%; font-weight: bold'>playful</p><br></br>","0","","","","","","","","","","","","","",""
"","","","","","html-slider-response","154","309454","0.0-150.0","8ax9pq34af","12","NaN","<div style=""width:500px;"">
                            <p style=""font-size:50px; font-weight:bold;""
                            >playful</p>
                            <div style=""width:240px; margin: auto;"">
                                <img src=""images/R_L_U_37.png"" style= ""width:200px""alt=""img"">
                            </div>
                        </div>","81","","0","images/R_L_U_37.png","","","","playful","2","37","R","L","U","",""
"","","","","","html-slider-response","155","311070","0.0-151.0","8ax9pq34af","12","NaN","<div style=""width:500px;"">
                            <p style=""font-size:50px; font-weight:bold;""
                            >playful</p>
                            <div style=""width:240px; margin: auto;"">
                                <img src=""images/G_D_S_07.png"" style= ""width:200px""alt=""img"">
                            </div>
                        </div>","-147","","0","images/G_D_S_07.png","","","","playful","1","07","G","D","S","",""
"","","","","","html-slider-response","156","312656","0.0-152.0","8ax9pq34af","12","NaN","<div style=""width:500px;"">
                            <p style=""font-size:50px; font-weight:bold;""
                            >playful</p>
                            <div style=""width:240px; margin: auto;"">
                                <img src=""images/R_L_S_33.png"" style= ""width:200px""alt=""img"">
                            </div>
                        </div>","142","","0","images/R_L_S_33.png","","","","playful","1","33","R","L","S","",""
"","","","","","html-slider-response","157","314155","0.0-153.0","8ax9pq34af","12","NaN","<div style=""width:500px;"">
                            <p style=""font-size:50px; font-weight:bold;""
                            >playful</p>
                            <div style=""width:240px; margin: auto;"">
                                <img src=""images/R_D_U_44.png"" style= ""width:200px""alt=""img"">
                            </div>
                        </div>","-200","","0","images/R_D_U_44.png","","","","playful","1","44","R","D","U","",""
"","","","","","html-slider-response","158","315483","0.0-154.0","8ax9pq34af","12","NaN","<div style=""width:500px;"">
                            <p style=""font-size:50px; font-weight:bold;""
                            >playful</p>
                            <div style=""width:240px; margin: auto;"">
                                <img src=""images/G_D_S_07.png"" style= ""width:200px""alt=""img"">
                            </div>
                        </div>","-200","","0","images/G_D_S_07.png","","","","playful","2","07","G","D","S","",""
"","","","","","html-slider-response","159","316741","0.0-155.0","8ax9pq34af","12","NaN","<div style=""width:500px;"">
                            <p style=""font-size:50px; font-weight:bold;""
                            >playful</p>
                            <div style=""width:240px; margin: auto;"">
                                <img src=""images/B_D_S_15.png"" style= ""width:200px""alt=""img"">
                            </div>
                        </div>","-200","","0","images/B_D_S_15.png","","","","playful","2","15","B","D","S","",""
"","","","","","html-slider-response","160","318633","0.0-156.0","8ax9pq34af","12","NaN","<div style=""width:500px;"">
                            <p style=""font-size:50px; font-weight:bold;""
                            >playful</p>
                            <div style=""width:240px; margin: auto;"">
                                <img src=""images/Y_L_U_27.png"" style= ""width:200px""alt=""img"">
                            </div>
                        </div>","-44","","0","images/Y_L_U_27.png","","","","playful","2","27","Y","L","U","",""
"","","","","","html-slider-response","161","320165","0.0-157.0","8ax9pq34af","12","NaN","<div style=""width:500px;"">
                            <p style=""font-size:50px; font-weight:bold;""
                            >playful</p>
                            <div style=""width:240px; margin: auto;"">
                                <img src=""images/B_D_U_23.png"" style= ""width:200px""alt=""img"">
                            </div>
                        </div>","-180","","0","images/B_D_U_23.png","","","","playful","2","23","B","D","U","",""
"","","","","","html-slider-response","162","321865","0.0-158.0","8ax9pq34af","12","NaN","<div style=""width:500px;"">
                            <p style=""font-size:50px; font-weight:bold;""
                            >playful</p>
                            <div style=""width:240px; margin: auto;"">
                                <img src=""images/G_L_U_05.png"" style= ""width:200px""alt=""img"">
                            </div>
                        </div>","200","","0","images/G_L_U_05.png","","","","playful","1","05","G","L","U","",""
"","","","","","html-slider-response","163","323396","0.0-159.0","8ax9pq34af","12","NaN","<div style=""width:500px;"">
                            <p style=""font-size:50px; font-weight:bold;""
                            >playful</p>
                            <div style=""width:240px; margin: auto;"">
                                <img src=""images/G_L_U_05.png"" style= ""width:200px""alt=""img"">
                            </div>
                        </div>","200","","0","images/G_L_U_05.png","","","","playful","2","05","G","L","U","",""
"","","","","","html-slider-response","164","324830","0.0-160.0","8ax9pq34af","12","NaN","<div style=""width:500px;"">
                            <p style=""font-size:50px; font-weight:bold;""
                            >playful</p>
                            <div style=""width:240px; margin: auto;"">
                                <img src=""images/Y_D_U_30.png"" style= ""width:200px""alt=""img"">
                            </div>
                        </div>","-200","","0","images/Y_D_U_30.png","","","","playful","1","30","Y","D","U","",""
"","","","","","html-slider-response","165","327158","0.0-161.0","8ax9pq34af","12","NaN","<div style=""width:500px;"">
                            <p style=""font-size:50px; font-weight:bold;""
                            >playful</p>
                            <div style=""width:240px; margin: auto;"">
                                <img src=""images/B_D_U_23.png"" style= ""width:200px""alt=""img"">
                            </div>
                        </div>","-185","","0","images/B_D_U_23.png","","","","playful","1","23","B","D","U","",""
"","","","","","html-slider-response","166","328956","0.0-162.0","8ax9pq34af","12","NaN","<div style=""width:500px;"">
                            <p style=""font-size:50px; font-weight:bold;""
                            >playful</p>
                            <div style=""width:240px; margin: auto;"">
                                <img src=""images/Y_L_S_26.png"" style= ""width:200px""alt=""img"">
                            </div>
                        </div>","-154","","0","images/Y_L_S_26.png","","","","playful","1","26","Y","L","S","",""
"","","","","","html-slider-response","167","330256","0.0-163.0","8ax9pq34af","12","NaN","<div style=""width:500px;"">
                            <p style=""font-size:50px; font-weight:bold;""
                            >playful</p>
                            <div style=""width:240px; margin: auto;"">
                                <img src=""images/Y_D_S_28.png"" style= ""width:200px""alt=""img"">
                            </div>
                        </div>","-200","","0","images/Y_D_S_28.png","","","","playful","1","28","Y","D","S","",""
"","","","","","html-slider-response","168","332117","0.0-164.0","8ax9pq34af","12","NaN","<div style=""width:500px;"">
                            <p style=""font-size:50px; font-weight:bold;""
                            >playful</p>
                            <div style=""width:240px; margin: auto;"">
                                <img src=""images/R_D_S_41.png"" style= ""width:200px""alt=""img"">
                            </div>
                        </div>","10","","0","images/R_D_S_41.png","","","","playful","2","41","R","D","S","",""
"","","","","","html-slider-response","169","333479","0.0-165.0","8ax9pq34af","12","NaN","<div style=""width:500px;"">
                            <p style=""font-size:50px; font-weight:bold;""
                            >playful</p>
                            <div style=""width:240px; margin: auto;"">
                                <img src=""images/Y_L_S_26.png"" style= ""width:200px""alt=""img"">
                            </div>
                        </div>","-200","","0","images/Y_L_S_26.png","","","","playful","2","26","Y","L","S","",""
"","","","","","html-slider-response","170","334967","0.0-166.0","8ax9pq34af","12","NaN","<div style=""width:500px;"">
                            <p style=""font-size:50px; font-weight:bold;""
                            >playful</p>
                            <div style=""width:240px; margin: auto;"">
                                <img src=""images/Y_D_U_30.png"" style= ""width:200px""alt=""img"">
                            </div>
                        </div>","-200","","0","images/Y_D_U_30.png","","","","playful","2","30","Y","D","U","",""
"","","","","","html-slider-response","171","336556","0.0-167.0","8ax9pq34af","12","NaN","<div style=""width:500px;"">
                            <p style=""font-size:50px; font-weight:bold;""
                            >playful</p>
                            <div style=""width:240px; margin: auto;"">
                                <img src=""images/R_D_U_44.png"" style= ""width:200px""alt=""img"">
                            </div>
                        </div>","-200","","0","images/R_D_U_44.png","","","","playful","2","44","R","D","U","",""
"","","","","","html-slider-response","172","338046","0.0-168.0","8ax9pq34af","12","NaN","<div style=""width:500px;"">
                            <p style=""font-size:50px; font-weight:bold;""
                            >playful</p>
                            <div style=""width:240px; margin: auto;"">
                                <img src=""images/R_L_S_33.png"" style= ""width:200px""alt=""img"">
                            </div>
                        </div>","200","","0","images/R_L_S_33.png","","","","playful","2","33","R","L","S","",""
"","","","","","html-slider-response","173","339488","0.0-169.0","8ax9pq34af","12","NaN","<div style=""width:500px;"">
                            <p style=""font-size:50px; font-weight:bold;""
                            >playful</p>
                            <div style=""width:240px; margin: auto;"">
                                <img src=""images/G_D_U_10.png"" style= ""width:200px""alt=""img"">
                            </div>
                        </div>","-126","","0","images/G_D_U_10.png","","","","playful","1","10","G","D","U","",""
"","","","","","html-slider-response","174","341175","0.0-170.0","8ax9pq34af","12","NaN","<div style=""width:500px;"">
                            <p style=""font-size:50px; font-weight:bold;""
                            >playful</p>
                            <div style=""width:240px; margin: auto;"">
                                <img src=""images/R_D_S_41.png"" style= ""width:200px""alt=""img"">
                            </div>
                        </div>","-48","","0","images/R_D_S_41.png","","","","playful","1","41","R","D","S","",""
"","","","","","html-slider-response","175","342503","0.0-171.0","8ax9pq34af","12","NaN","<div style=""width:500px;"">
                            <p style=""font-size:50px; font-weight:bold;""
                            >playful</p>
                            <div style=""width:240px; margin: auto;"">
                                <img src=""images/G_D_U_10.png"" style= ""width:200px""alt=""img"">
                            </div>
                        </div>","-200","","0","images/G_D_U_10.png","","","","playful","2","10","G","D","U","",""
"","","","","","html-slider-response","176","344281","0.0-172.0","8ax9pq34af","12","NaN","<div style=""width:500px;"">
                            <p style=""font-size:50px; font-weight:bold;""
                            >playful</p>
                            <div style=""width:240px; margin: auto;"">
                                <img src=""images/R_L_U_37.png"" style= ""width:200px""alt=""img"">
                            </div>
                        </div>","54","","0","images/R_L_U_37.png","","","","playful","1","37","R","L","U","",""
"","","","","","html-slider-response","177","345830","0.0-173.0","8ax9pq34af","12","NaN","<div style=""width:500px;"">
                            <p style=""font-size:50px; font-weight:bold;""
                            >playful</p>
                            <div style=""width:240px; margin: auto;"">
                                <img src=""images/B_L_S_12.png"" style= ""width:200px""alt=""img"">
                            </div>
                        </div>","200","","0","images/B_L_S_12.png","","","","playful","1","12","B","L","S","",""
"","","","","","html-slider-response","178","347220","0.0-174.0","8ax9pq34af","12","NaN","<div style=""width:500px;"">
                            <p style=""font-size:50px; font-weight:bold;""
                            >playful</p>
                            <div style=""width:240px; margin: auto;"">
                                <img src=""images/B_L_U_13.png"" style= ""width:200px""alt=""img"">
                            </div>
                        </div>","200","","0","images/B_L_U_13.png","","","","playful","2","13","B","L","U","",""
"","","","","","html-slider-response","179","348538","0.0-175.0","8ax9pq34af","12","NaN","<div style=""width:500px;"">
                            <p style=""font-size:50px; font-weight:bold;""
                            >playful</p>
                            <div style=""width:240px; margin: auto;"">
                                <img src=""images/Y_D_S_28.png"" style= ""width:200px""alt=""img"">
                            </div>
                        </div>","-200","","0","images/Y_D_S_28.png","","","","playful","2","28","Y","D","S","",""
"","","","","","html-slider-response","180","350688","0.0-176.0","8ax9pq34af","12","NaN","<div style=""width:500px;"">
                            <p style=""font-size:50px; font-weight:bold;""
                            >playful</p>
                            <div style=""width:240px; margin: auto;"">
                                <img src=""images/G_L_S_02.png"" style= ""width:200px""alt=""img"">
                            </div>
                        </div>","127","","0","images/G_L_S_02.png","","","","playful","2","02","G","L","S","",""
"","","","","","html-slider-response","181","351972","0.0-177.0","8ax9pq34af","12","NaN","<div style=""width:500px;"">
                            <p style=""font-size:50px; font-weight:bold;""
                            >playful</p>
                            <div style=""width:240px; margin: auto;"">
                                <img src=""images/B_L_S_12.png"" style= ""width:200px""alt=""img"">
                            </div>
                        </div>","200","","0","images/B_L_S_12.png","","","","playful","2","12","B","L","S","",""
"","","","","","html-slider-response","182","353563","0.0-178.0","8ax9pq34af","12","NaN","<div style=""width:500px;"">
                            <p style=""font-size:50px; font-weight:bold;""
                            >playful</p>
                            <div style=""width:240px; margin: auto;"">
                                <img src=""images/G_L_S_02.png"" style= ""width:200px""alt=""img"">
                            </div>
                        </div>","200","","0","images/G_L_S_02.png","","","","playful","1","02","G","L","S","",""
"","","","","","html-slider-response","183","355152","0.0-179.0","8ax9pq34af","12","NaN","<div style=""width:500px;"">
                            <p style=""font-size:50px; font-weight:bold;""
                            >playful</p>
                            <div style=""width:240px; margin: auto;"">
                                <img src=""images/B_L_U_13.png"" style= ""width:200px""alt=""img"">
                            </div>
                        </div>","200","","0","images/B_L_U_13.png","","","","playful","1","13","B","L","U","",""
"","","","","","html-slider-response","184","357780","0.0-180.0","8ax9pq34af","12","NaN","<div style=""width:500px;"">
