"success","timeout","failed_images","failed_audio","failed_video","trial_type","trial_index","time_elapsed","internal_node_id","subject_id","condition_num","rt","stimulus","response","question_order","slider_start","image_path","practiceTrial","practiceTrialNum","correct","concept","repetition","map_id","hue","lightness","saturation","ishihara_plate","correct_response"
"true","false","[]","[]","[]","preload","0","642","0.0-0.0","8x6sr29jqv","6","","","","","","","","","","","","","","","","",""
"","","","","","html-button-response","1","1975","0.0-1.0","8x6sr29jqv","6","1329","Welcome to our experiment!<p>At the bottom of this screen, you will see a button that says ""Begin Experiment"".<br>Please only click that button when you are ready to complete the 25 minute experiment in one sitting.</p><p> Once you click that button, it will not be possible to restart the experiment.","0","","","","","","","","","","","","","",""
"true","","","","","fullscreen","2","5262","0.0-2.0","8x6sr29jqv","6","2282","","","","","","","","","","","","","","","",""
"","","","","","survey-multi-select","3","12498","0.0-3.0","8x6sr29jqv","6","7231","","{""Consent"":[""<strong>I consent</strong>""]}","[0]","","","","","","","","","","","","",""
"","","","","","html-button-response","4","14009","0.0-4.0","8x6sr29jqv","6","1508","Welcome! <p> This experiment involves two parts: demographic information, followed by the experimental task.<p> It will take about 25 minutes to complete both parts.","0","","","","","","","","","","","","","",""
"","","","","","survey-text","5","28590","0.0-5.0","8x6sr29jqv","6","14569","","{""Age"":""19"",""Gender"":""male"",""Race/ethnicity"":""Arab"",""Languages"":""Arabic, English""}","","","","","","","","","","","","","",""
"","","","","","html-slider-response","6","43341","0.0-6.0","8x6sr29jqv","6","14711","
                            <div style='text-align:left; font-size:20px; line-height:25px; width: 1400px;'>
                                During this experiment you will be asked to rate how much you associate maps with                    different concepts.<br> Below, you can see some examples of the maps you will be asked to rate. Next to the maps
                    is the list of concepts.<br>You will be asked                    to rate how much you associate each map with each concept on a scale from 'not at all' to 'very much' like the
                    one below. <br><br>
                    Now, please look at the list of concepts and maps. For each concept, think about the map you associate 'very
                    much' with the concept.<br>                     When you see that map during the experiment, please rate it near the 'very much' endpoint of the
                    scale.<br>Now, please think about which map you associate 'not at all'                     with each concept. When you see that map during the experiment, please rate it near the 'not at all' endpoint
                    of the scale.<br>
                    Please use the full range of the scale. That is, if a map is somewhat associated with the concept, you would
                    click partway between the middle point and right side of the scale.                    You will be asked to rate each map for a given concept before moving on to the next concept.<br><br>Press the
                    'Continue' button for instructions on how to use the slider.                    <br><br>
                </div>

                <div style=""width: 500px; margin: 0 auto;"">
                    <!-- Centered text paragraphs -->
                    <div style=""text-align: center; width: 500px;"">
                        <p style=""font-size:25px; line-height:18px;"">calm</p>
                        <p style=""font-size:25px; line-height:18px;"">exciting</p>
                        <p style=""font-size:25px;line-height:18px;"">positive</p>
                        <p style=""font-size:25px;line-height:18px;"">negative</p>
                        <p style=""font-size:25px;line-height:18px;"">serious</p>
                        <p style=""font-size:25px;line-height:18px;"">playful</p>
                        <p style=""font-size:25px;line-height:18px;"">trustworthy</p>
                        <p style=""font-size:25px;line-height:18px;"">disturbing</p>
                    </div>

                    <!-- Grid section -->
                   <div style=""display: flex; justify-content: center; padding-top: 15px;"">
                    <div style=""display: grid; grid-template-columns: repeat(8, 80px); grid-gap: 5px; width: auto;"">
                        <img src=""images/Y_L_S_07.png"" alt=""map"" style=""width: 100%;""><img src=""images/Y_L_U_10.png"" alt=""map"" style=""width: 100%;""><img src=""images/B_L_S_41.png"" alt=""map"" style=""width: 100%;""><img src=""images/G_D_U_37.png"" alt=""map"" style=""width: 100%;""><img src=""images/G_D_S_33.png"" alt=""map"" style=""width: 100%;""><img src=""images/R_L_S_15.png"" alt=""map"" style=""width: 100%;""><img src=""images/B_D_S_02.png"" alt=""map"" style=""width: 100%;""><img src=""images/Y_D_U_13.png"" alt=""map"" style=""width: 100%;""><img src=""images/Y_D_S_12.png"" alt=""map"" style=""width: 100%;""><img src=""images/G_L_S_28.png"" alt=""map"" style=""width: 100%;""><img src=""images/R_D_U_27.png"" alt=""map"" style=""width: 100%;""><img src=""images/G_L_U_30.png"" alt=""map"" style=""width: 100%;""><img src=""images/R_L_U_23.png"" alt=""map"" style=""width: 100%;""><img src=""images/B_L_U_44.png"" alt=""map"" style=""width: 100%;""><img src=""images/R_D_S_26.png"" alt=""map"" style=""width: 100%;""><img src=""images/B_D_U_05.png"" alt=""map"" style=""width: 100%;"">
                    </div>
                </div>

                    <!-- Clear floats -->
                    <div style=""clear: both;""></div>
                </div>
                            ","10","","0","maps_anchoring.png","true","","","","","","","","","",""
"","","","","","html-button-response","7","44742","0.0-7.0","8x6sr29jqv","6","1399","<div style=""width:800px;""><p style=""text-align:left"">To move the slider, click and drag your cursor to the location of the scale where you would like to make your rating and then let go. When you let go of the slider, your response will be recorded and the next trial will begin. <br>
                    We are interested in your initial impressions of each map for the given concept, so please go with your first intuition. <br>
                    Before you begin the experiment, there will be four training trials for you to practice using the scale. <br>
                     When you are ready to start the training trials, please click ""Continue"".</p><br></div>","0","","","","","","","","","","","","","",""
"","","","","","html-slider-response","8","49118","0.0-8.0-0.0","8x6sr29jqv","6","NaN","<div style=""width:500px;"">
                                    <p style=""font-size:25px;"">Please move the slider all the way to the <br> right endpoint of the scale</p>

                                    </div>
                                </div>","200","","0","","true","0","true","","","","","","","",""
"","","","","","html-button-response","9","50708","0.0-8.0-1.0","8x6sr29jqv","6","1088","<p align='center'><b>Good job!</b> Click on 'Continue' to proceed.</p>","0","","","","","","","","","","","","","",""
"","","","","","html-slider-response","10","52401","0.0-9.0-0.0","8x6sr29jqv","6","NaN","<div style=""width:500px;"">
                                    <p style=""font-size:25px;"">Please move the slider all the way to the <br> left endpoint of the scale</p>

                                    </div>
                                </div>","-200","","0","","true","1","true","","","","","","","",""
"","","","","","html-button-response","11","53657","0.0-9.0-1.0","8x6sr29jqv","6","754","<p align='center'><b>Good job!</b> Click on 'Continue' to proceed.</p>","0","","","","","","","","","","","","","",""
"","","","","","html-slider-response","12","58701","0.0-10.0-0.0","8x6sr29jqv","6","NaN","<div style=""width:500px;"">
                                    <p style=""font-size:25px;"">Please move the slider halfway between the center and right endpoint of the scale</p>

                                    </div>
                                </div>","102","","0","","true","2","true","","","","","","","",""
"","","","","","html-button-response","13","60090","0.0-10.0-1.0","8x6sr29jqv","6","886","<p align='center'><b>Good job!</b> Click on 'Continue' to proceed.</p>","0","","","","","","","","","","","","","",""
"","","","","","html-slider-response","14","61751","0.0-11.0-0.0","8x6sr29jqv","6","NaN","<div style=""width:500px;"">
                                    <p style=""font-size:25px;"">Please move the slider halfway between the center and left endpoint of the scale</p>

                                    </div>
                                </div>","-104","","0","","true","3","true","","","","","","","",""
"","","","","","html-button-response","15","63075","0.0-11.0-1.0","8x6sr29jqv","6","822","<p align='center'><b>Good job!</b> Click on 'Continue' to proceed.</p>","0","","","","","","","","","","","","","",""
"","","","","","html-button-response","16","63774","0.0-12.0","8x6sr29jqv","6","698","<p>Great job! You've completed the practice trials. Now you will begin the main task.</p>","0","","","","","","","","","","","","","",""
"","","","","","html-button-response","17","65740","0.0-13.0","8x6sr29jqv","6","1965","<p>In this block of trials, you will be asked to rate how much you associate each map with:</p > <p style = 'font-size:150%; font-weight: bold'>playful</p><br></br>","0","","","","","","","","","","","","","",""
"","","","","","html-slider-response","18","68286","0.0-14.0","8x6sr29jqv","6","NaN","<div style=""width:500px;"">
                            <p style=""font-size:50px; font-weight:bold;""
                            >playful</p>
                            <div style=""width:240px; margin: auto;"">
                                <img src=""images/Y_L_S_07.png"" style= ""width:200px""alt=""img"">
                            </div>
                        </div>","-26","","0","images/Y_L_S_07.png","","","","playful","2","07","Y","L","S","",""
"","","","","","html-slider-response","19","70207","0.0-15.0","8x6sr29jqv","6","NaN","<div style=""width:500px;"">
                            <p style=""font-size:50px; font-weight:bold;""
                            >playful</p>
                            <div style=""width:240px; margin: auto;"">
                                <img src=""images/Y_L_S_07.png"" style= ""width:200px""alt=""img"">
                            </div>
                        </div>","-43","","0","images/Y_L_S_07.png","","","","playful","1","07","Y","L","S","",""
"","","","","","html-slider-response","20","72761","0.0-16.0","8x6sr29jqv","6","NaN","<div style=""width:500px;"">
                            <p style=""font-size:50px; font-weight:bold;""
                            >playful</p>
                            <div style=""width:240px; margin: auto;"">
                                <img src=""images/B_D_S_02.png"" style= ""width:200px""alt=""img"">
                            </div>
                        </div>","50","","0","images/B_D_S_02.png","","","","playful","1","02","B","D","S","",""
"","","","","","html-slider-response","21","74030","0.0-17.0","8x6sr29jqv","6","NaN","<div style=""width:500px;"">
                            <p style=""font-size:50px; font-weight:bold;""
                            >playful</p>
                            <div style=""width:240px; margin: auto;"">
                                <img src=""images/G_D_U_37.png"" style= ""width:200px""alt=""img"">
                            </div>
                        </div>","38","","0","images/G_D_U_37.png","","","","playful","2","37","G","D","U","",""
"","","","","","html-slider-response","22","75383","0.0-18.0","8x6sr29jqv","6","NaN","<div style=""width:500px;"">
                            <p style=""font-size:50px; font-weight:bold;""
                            >playful</p>
                            <div style=""width:240px; margin: auto;"">
                                <img src=""images/Y_D_U_13.png"" style= ""width:200px""alt=""img"">
                            </div>
                        </div>","34","","0","images/Y_D_U_13.png","","","","playful","2","13","Y","D","U","",""
"","","","","","html-slider-response","23","76584","0.0-19.0","8x6sr29jqv","6","NaN","<div style=""width:500px;"">
                            <p style=""font-size:50px; font-weight:bold;""
                            >playful</p>
                            <div style=""width:240px; margin: auto;"">
                                <img src=""images/B_D_U_05.png"" style= ""width:200px""alt=""img"">
                            </div>
                        </div>","30","","0","images/B_D_U_05.png","","","","playful","2","05","B","D","U","",""
"","","","","","html-slider-response","24","77703","0.0-20.0","8x6sr29jqv","6","NaN","<div style=""width:500px;"">
                            <p style=""font-size:50px; font-weight:bold;""
                            >playful</p>
                            <div style=""width:240px; margin: auto;"">
                                <img src=""images/R_L_S_15.png"" style= ""width:200px""alt=""img"">
                            </div>
                        </div>","41","","0","images/R_L_S_15.png","","","","playful","1","15","R","L","S","",""
"","","","","","html-slider-response","25","78721","0.0-21.0","8x6sr29jqv","6","NaN","<div style=""width:500px;"">
                            <p style=""font-size:50px; font-weight:bold;""
                            >playful</p>
                            <div style=""width:240px; margin: auto;"">
                                <img src=""images/B_L_S_41.png"" style= ""width:200px""alt=""img"">
                            </div>
                        </div>","41","","0","images/B_L_S_41.png","","","","playful","2","41","B","L","S","",""
"","","","","","html-slider-response","26","79372","0.0-22.0","8x6sr29jqv","6","NaN","<div style=""width:500px;"">
                            <p style=""font-size:50px; font-weight:bold;""
                            >playful</p>
                            <div style=""width:240px; margin: auto;"">
                                <img src=""images/B_D_U_05.png"" style= ""width:200px""alt=""img"">
                            </div>
                        </div>","39","","0","images/B_D_U_05.png","","","","playful","1","05","B","D","U","",""
"","","","","","html-slider-response","27","80139","0.0-23.0","8x6sr29jqv","6","NaN","<div style=""width:500px;"">
                            <p style=""font-size:50px; font-weight:bold;""
                            >playful</p>
                            <div style=""width:240px; margin: auto;"">
                                <img src=""images/B_L_U_44.png"" style= ""width:200px""alt=""img"">
                            </div>
                        </div>","39","","0","images/B_L_U_44.png","","","","playful","1","44","B","L","U","",""
"","","","","","html-slider-response","28","81240","0.0-24.0","8x6sr29jqv","6","NaN","<div style=""width:500px;"">
                            <p style=""font-size:50px; font-weight:bold;""
                            >playful</p>
                            <div style=""width:240px; margin: auto;"">
                                <img src=""images/G_L_S_28.png"" style= ""width:200px""alt=""img"">
                            </div>
                        </div>","39","","0","images/G_L_S_28.png","","","","playful","2","28","G","L","S","",""
"","","","","","html-slider-response","29","81890","0.0-25.0","8x6sr29jqv","6","NaN","<div style=""width:500px;"">
                            <p style=""font-size:50px; font-weight:bold;""
                            >playful</p>
                            <div style=""width:240px; margin: auto;"">
                                <img src=""images/G_L_U_30.png"" style= ""width:200px""alt=""img"">
                            </div>
                        </div>","39","","0","images/G_L_U_30.png","","","","playful","2","30","G","L","U","",""
"","","","","","html-slider-response","30","82542","0.0-26.0","8x6sr29jqv","6","NaN","<div style=""width:500px;"">
                            <p style=""font-size:50px; font-weight:bold;""
                            >playful</p>
                            <div style=""width:240px; margin: auto;"">
                                <img src=""images/R_L_U_23.png"" style= ""width:200px""alt=""img"">
                            </div>
                        </div>","39","","0","images/R_L_U_23.png","","","","playful","1","23","R","L","U","",""
"","","","","","html-slider-response","31","83242","0.0-27.0","8x6sr29jqv","6","NaN","<div style=""width:500px;"">
                            <p style=""font-size:50px; font-weight:bold;""
                            >playful</p>
                            <div style=""width:240px; margin: auto;"">
                                <img src=""images/Y_L_U_10.png"" style= ""width:200px""alt=""img"">
                            </div>
                        </div>","39","","0","images/Y_L_U_10.png","","","","playful","1","10","Y","L","U","",""
"","","","","","html-slider-response","32","84376","0.0-28.0","8x6sr29jqv","6","NaN","<div style=""width:500px;"">
                            <p style=""font-size:50px; font-weight:bold;""
                            >playful</p>
                            <div style=""width:240px; margin: auto;"">
                                <img src=""images/Y_D_S_12.png"" style= ""width:200px""alt=""img"">
                            </div>
                        </div>","39","","0","images/Y_D_S_12.png","","","","playful","1","12","Y","D","S","",""
"","","","","","html-slider-response","33","85027","0.0-29.0","8x6sr29jqv","6","NaN","<div style=""width:500px;"">
                            <p style=""font-size:50px; font-weight:bold;""
                            >playful</p>
                            <div style=""width:240px; margin: auto;"">
                                <img src=""images/R_D_U_27.png"" style= ""width:200px""alt=""img"">
                            </div>
                        </div>","40","","0","images/R_D_U_27.png","","","","playful","2","27","R","D","U","",""
"","","","","","html-slider-response","34","85710","0.0-30.0","8x6sr29jqv","6","NaN","<div style=""width:500px;"">
                            <p style=""font-size:50px; font-weight:bold;""
                            >playful</p>
                            <div style=""width:240px; margin: auto;"">
                                <img src=""images/B_L_U_44.png"" style= ""width:200px""alt=""img"">
                            </div>
                        </div>","40","","0","images/B_L_U_44.png","","","","playful","2","44","B","L","U","",""
"","","","","","html-slider-response","35","86362","0.0-31.0","8x6sr29jqv","6","NaN","<div style=""width:500px;"">
                            <p style=""font-size:50px; font-weight:bold;""
                            >playful</p>
                            <div style=""width:240px; margin: auto;"">
                                <img src=""images/R_L_S_15.png"" style= ""width:200px""alt=""img"">
                            </div>
                        </div>","40","","0","images/R_L_S_15.png","","","","playful","2","15","R","L","S","",""
"","","","","","html-slider-response","36","87012","0.0-32.0","8x6sr29jqv","6","NaN","<div style=""width:500px;"">
                            <p style=""font-size:50px; font-weight:bold;""
                            >playful</p>
                            <div style=""width:240px; margin: auto;"">
                                <img src=""images/G_D_U_37.png"" style= ""width:200px""alt=""img"">
                            </div>
                        </div>","40","","0","images/G_D_U_37.png","","","","playful","1","37","G","D","U","",""
"","","","","","html-slider-response","37","88079","0.0-33.0","8x6sr29jqv","6","NaN","<div style=""width:500px;"">
                            <p style=""font-size:50px; font-weight:bold;""
                            >playful</p>
                            <div style=""width:240px; margin: auto;"">
                                <img src=""images/R_D_S_26.png"" style= ""width:200px""alt=""img"">
                            </div>
                        </div>","40","","0","images/R_D_S_26.png","","","","playful","2","26","R","D","S","",""
"","","","","","html-slider-response","38","88813","0.0-34.0","8x6sr29jqv","6","NaN","<div style=""width:500px;"">
                            <p style=""font-size:50px; font-weight:bold;""
                            >playful</p>
                            <div style=""width:240px; margin: auto;"">
                                <img src=""images/R_D_S_26.png"" style= ""width:200px""alt=""img"">
                            </div>
                        </div>","40","","0","images/R_D_S_26.png","","","","playful","1","26","R","D","S","",""
"","","","","","html-slider-response","39","89530","0.0-35.0","8x6sr29jqv","6","NaN","<div style=""width:500px;"">
                            <p style=""font-size:50px; font-weight:bold;""
                            >playful</p>
                            <div style=""width:240px; margin: auto;"">
                                <img src=""images/R_L_U_23.png"" style= ""width:200px""alt=""img"">
                            </div>
                        </div>","40","","0","images/R_L_U_23.png","","","","playful","2","23","R","L","U","",""
"","","","","","html-slider-response","40","90214","0.0-36.0","8x6sr29jqv","6","NaN","<div style=""width:500px;"">
                            <p style=""font-size:50px; font-weight:bold;""
                            >playful</p>
                            <div style=""width:240px; margin: auto;"">
                                <img src=""images/B_L_S_41.png"" style= ""width:200px""alt=""img"">
                            </div>
                        </div>","40","","0","images/B_L_S_41.png","","","","playful","1","41","B","L","S","",""
"","","","","","html-slider-response","41","90832","0.0-37.0","8x6sr29jqv","6","NaN","<div style=""width:500px;"">
                            <p style=""font-size:50px; font-weight:bold;""
                            >playful</p>
                            <div style=""width:240px; margin: auto;"">
                                <img src=""images/G_L_S_28.png"" style= ""width:200px""alt=""img"">
                            </div>
                        </div>","40","","0","images/G_L_S_28.png","","","","playful","1","28","G","L","S","",""
"","","","","","html-slider-response","42","91882","0.0-38.0","8x6sr29jqv","6","NaN","<div style=""width:500px;"">
                            <p style=""font-size:50px; font-weight:bold;""
                            >playful</p>
                            <div style=""width:240px; margin: auto;"">
                                <img src=""images/G_D_S_33.png"" style= ""width:200px""alt=""img"">
                            </div>
                        </div>","40","","0","images/G_D_S_33.png","","","","playful","2","33","G","D","S","",""
"","","","","","html-slider-response","43","92615","0.0-39.0","8x6sr29jqv","6","NaN","<div style=""width:500px;"">
                            <p style=""font-size:50px; font-weight:bold;""
                            >playful</p>
                            <div style=""width:240px; margin: auto;"">
                                <img src=""images/B_D_S_02.png"" style= ""width:200px""alt=""img"">
                            </div>
                        </div>","40","","0","images/B_D_S_02.png","","","","playful","2","02","B","D","S","",""
"","","","","","html-slider-response","44","93333","0.0-40.0","8x6sr29jqv","6","NaN","<div style=""width:500px;"">
                            <p style=""font-size:50px; font-weight:bold;""
                            >playful</p>
                            <div style=""width:240px; margin: auto;"">
                                <img src=""images/R_D_U_27.png"" style= ""width:200px""alt=""img"">
                            </div>
                        </div>","40","","0","images/R_D_U_27.png","","","","playful","1","27","R","D","U","",""
"","","","","","html-slider-response","45","94099","0.0-41.0","8x6sr29jqv","6","NaN","<div style=""width:500px;"">
                            <p style=""font-size:50px; font-weight:bold;""
                            >playful</p>
                            <div style=""width:240px; margin: auto;"">
                                <img src=""images/G_L_U_30.png"" style= ""width:200px""alt=""img"">
                            </div>
                        </div>","40","","0","images/G_L_U_30.png","","","","playful","1","30","G","L","U","",""
"","","","","","html-slider-response","46","95000","0.0-42.0","8x6sr29jqv","6","NaN","<div style=""width:500px;"">
                            <p style=""font-size:50px; font-weight:bold;""
                            >playful</p>
                            <div style=""width:240px; margin: auto;"">
                                <img src=""images/Y_D_S_12.png"" style= ""width:200px""alt=""img"">
                            </div>
                        </div>","40","","0","images/Y_D_S_12.png","","","","playful","2","12","Y","D","S","",""
"","","","","","html-slider-response","47","95634","0.0-43.0","8x6sr29jqv","6","NaN","<div style=""width:500px;"">
                            <p style=""font-size:50px; font-weight:bold;""
                            >playful</p>
                            <div style=""width:240px; margin: auto;"">
                                <img src=""images/Y_L_U_10.png"" style= ""width:200px""alt=""img"">
                            </div>
                        </div>","40","","0","images/Y_L_U_10.png","","","","playful","2","10","Y","L","U","",""
"","","","","","html-slider-response","48","96767","0.0-44.0","8x6sr29jqv","6","NaN","<div style=""width:500px;"">
                            <p style=""font-size:50px; font-weight:bold;""
                            >playful</p>
                            <div style=""width:240px; margin: auto;"">
                                <img src=""images/Y_D_U_13.png"" style= ""width:200px""alt=""img"">
                            </div>
                        </div>","40","","0","images/Y_D_U_13.png","","","","playful","1","13","Y","D","U","",""
"","","","","","html-slider-response","49","97501","0.0-45.0","8x6sr29jqv","6","NaN","<div style=""width:500px;"">
                            <p style=""font-size:50px; font-weight:bold;""
                            >playful</p>
                            <div style=""width:240px; margin: auto;"">
                                <img src=""images/G_D_S_33.png"" style= ""width:200px""alt=""img"">
                            </div>
                        </div>","44","","0","images/G_D_S_33.png","","","","playful","1","33","G","D","S","",""
"","","","","","html-button-response","50","99758","0.0-46.0","8x6sr29jqv","6","1753","<p>Great Job! You've finished block 1.<br></br> You have 7 block(s) left to go.<br></br></p>","0","","","","","","","","","","","","","",""
"","","","","","html-button-response","51","101227","0.0-47.0","8x6sr29jqv","6","1466","<p>In this block of trials, you will be asked to rate how much you associate each map with:</p > <p style = 'font-size:150%; font-weight: bold'>positive</p><br></br>","0","","","","","","","","","","","","","",""
"","","","","","html-slider-response","52","102502","0.0-48.0","8x6sr29jqv","6","NaN","<div style=""width:500px;"">
                            <p style=""font-size:50px; font-weight:bold;""
                            >positive</p>
                            <div style=""width:240px; margin: auto;"">
                                <img src=""images/G_L_U_30.png"" style= ""width:200px""alt=""img"">
                            </div>
                        </div>","30","","0","images/G_L_U_30.png","","","","positive","2","30","G","L","U","",""
"","","","","","html-slider-response","53","103436","0.0-49.0","8x6sr29jqv","6","NaN","<div style=""width:500px;"">
                            <p style=""font-size:50px; font-weight:bold;""
                            >positive</p>
                            <div style=""width:240px; margin: auto;"">
                                <img src=""images/B_D_S_02.png"" style= ""width:200px""alt=""img"">
                            </div>
                        </div>","30","","0","images/B_D_S_02.png","","","","positive","1","02","B","D","S","",""
"","","","","","html-slider-response","54","104952","0.0-50.0","8x6sr29jqv","6","NaN","<div style=""width:500px;"">
                            <p style=""font-size:50px; font-weight:bold;""
                            >positive</p>
                            <div style=""width:240px; margin: auto;"">
                                <img src=""images/Y_L_U_10.png"" style= ""width:200px""alt=""img"">
                            </div>
                        </div>","27","","0","images/Y_L_U_10.png","","","","positive","2","10","Y","L","U","",""
"","","","","","html-slider-response","55","105920","0.0-51.0","8x6sr29jqv","6","NaN","<div style=""width:500px;"">
                            <p style=""font-size:50px; font-weight:bold;""
                            >positive</p>
                            <div style=""width:240px; margin: auto;"">
                                <img src=""images/G_L_S_28.png"" style= ""width:200px""alt=""img"">
                            </div>
                        </div>","27","","0","images/G_L_S_28.png","","","","positive","1","28","G","L","S","",""
"","","","","","html-slider-response","56","106870","0.0-52.0","8x6sr29jqv","6","NaN","<div style=""width:500px;"">
                            <p style=""font-size:50px; font-weight:bold;""
                            >positive</p>
                            <div style=""width:240px; margin: auto;"">
                                <img src=""images/Y_D_U_13.png"" style= ""width:200px""alt=""img"">
                            </div>
                        </div>","27","","0","images/Y_D_U_13.png","","","","positive","2","13","Y","D","U","",""
"","","","","","html-slider-response","57","108304","0.0-53.0","8x6sr29jqv","6","NaN","<div style=""width:500px;"">
                            <p style=""font-size:50px; font-weight:bold;""
                            >positive</p>
                            <div style=""width:240px; margin: auto;"">
                                <img src=""images/R_D_S_26.png"" style= ""width:200px""alt=""img"">
                            </div>
                        </div>","-50","","0","images/R_D_S_26.png","","","","positive","2","26","R","D","S","",""
"","","","","","html-slider-response","58","109404","0.0-54.0","8x6sr29jqv","6","NaN","<div style=""width:500px;"">
                            <p style=""font-size:50px; font-weight:bold;""
                            >positive</p>
                            <div style=""width:240px; margin: auto;"">
                                <img src=""images/B_L_S_41.png"" style= ""width:200px""alt=""img"">
                            </div>
                        </div>","27","","0","images/B_L_S_41.png","","","","positive","2","41","B","L","S","",""
"","","","","","html-slider-response","59","110556","0.0-55.0","8x6sr29jqv","6","NaN","<div style=""width:500px;"">
                            <p style=""font-size:50px; font-weight:bold;""
                            >positive</p>
                            <div style=""width:240px; margin: auto;"">
                                <img src=""images/R_L_S_15.png"" style= ""width:200px""alt=""img"">
                            </div>
                        </div>","-38","","0","images/R_L_S_15.png","","","","positive","1","15","R","L","S","",""
"","","","","","html-slider-response","60","111588","0.0-56.0","8x6sr29jqv","6","NaN","<div style=""width:500px;"">
                            <p style=""font-size:50px; font-weight:bold;""
                            >positive</p>
                            <div style=""width:240px; margin: auto;"">
                                <img src=""images/Y_D_S_12.png"" style= ""width:200px""alt=""img"">
                            </div>
                        </div>","12","","0","images/Y_D_S_12.png","","","","positive","1","12","Y","D","S","",""
"","","","","","html-slider-response","61","112888","0.0-57.0","8x6sr29jqv","6","NaN","<div style=""width:500px;"">
                            <p style=""font-size:50px; font-weight:bold;""
                            >positive</p>
                            <div style=""width:240px; margin: auto;"">
                                <img src=""images/B_D_S_02.png"" style= ""width:200px""alt=""img"">
                            </div>
                        </div>","20","","0","images/B_D_S_02.png","","","","positive","2","02","B","D","S","",""
"","","","","","html-slider-response","62","114004","0.0-58.0","8x6sr29jqv","6","NaN","<div style=""width:500px;"">
                            <p style=""font-size:50px; font-weight:bold;""
                            >positive</p>
                            <div style=""width:240px; margin: auto;"">
                                <img src=""images/B_L_U_44.png"" style= ""width:200px""alt=""img"">
                            </div>
                        </div>","31","","0","images/B_L_U_44.png","","","","positive","2","44","B","L","U","",""
"","","","","","html-slider-response","63","115238","0.0-59.0","8x6sr29jqv","6","NaN","<div style=""width:500px;"">
                            <p style=""font-size:50px; font-weight:bold;""
                            >positive</p>
                            <div style=""width:240px; margin: auto;"">
                                <img src=""images/R_D_U_27.png"" style= ""width:200px""alt=""img"">
                            </div>
                        </div>","-25","","0","images/R_D_U_27.png","","","","positive","2","27","R","D","U","",""
"","","","","","html-slider-response","64","116522","0.0-60.0","8x6sr29jqv","6","NaN","<div style=""width:500px;"">
                            <p style=""font-size:50px; font-weight:bold;""
                            >positive</p>
                            <div style=""width:240px; margin: auto;"">
                                <img src=""images/R_L_U_23.png"" style= ""width:200px""alt=""img"">
                            </div>
                        </div>","-30","","0","images/R_L_U_23.png","","","","positive","1","23","R","L","U","",""
"","","","","","html-slider-response","65","117505","0.0-61.0","8x6sr29jqv","6","NaN","<div style=""width:500px;"">
                            <p style=""font-size:50px; font-weight:bold;""
                            >positive</p>
                            <div style=""width:240px; margin: auto;"">
                                <img src=""images/G_D_S_33.png"" style= ""width:200px""alt=""img"">
                            </div>
                        </div>","30","","0","images/G_D_S_33.png","","","","positive","1","33","G","D","S","",""
"","","","","","html-slider-response","66","118438","0.0-62.0","8x6sr29jqv","6","NaN","<div style=""width:500px;"">
                            <p style=""font-size:50px; font-weight:bold;""
                            >positive</p>
                            <div style=""width:240px; margin: auto;"">
                                <img src=""images/Y_D_U_13.png"" style= ""width:200px""alt=""img"">
                            </div>
                        </div>","29","","0","images/Y_D_U_13.png","","","","positive","1","13","Y","D","U","",""
"","","","","","html-slider-response","67","119454","0.0-63.0","8x6sr29jqv","6","NaN","<div style=""width:500px;"">
                            <p style=""font-size:50px; font-weight:bold;""
                            >positive</p>
                            <div style=""width:240px; margin: auto;"">
                                <img src=""images/Y_L_U_10.png"" style= ""width:200px""alt=""img"">
                            </div>
                        </div>","29","","0","images/Y_L_U_10.png","","","","positive","1","10","Y","L","U","",""
"","","","","","html-slider-response","68","120405","0.0-64.0","8x6sr29jqv","6","NaN","<div style=""width:500px;"">
                            <p style=""font-size:50px; font-weight:bold;""
                            >positive</p>
                            <div style=""width:240px; margin: auto;"">
                                <img src=""images/B_L_U_44.png"" style= ""width:200px""alt=""img"">
                            </div>
                        </div>","29","","0","images/B_L_U_44.png","","","","positive","1","44","B","L","U","",""
"","","","","","html-slider-response","69","121321","0.0-65.0","8x6sr29jqv","6","NaN","<div style=""width:500px;"">
                            <p style=""font-size:50px; font-weight:bold;""
                            >positive</p>
                            <div style=""width:240px; margin: auto;"">
                                <img src=""images/G_L_U_30.png"" style= ""width:200px""alt=""img"">
                            </div>
                        </div>","29","","0","images/G_L_U_30.png","","","","positive","1","30","G","L","U","",""
"","","","","","html-slider-response","70","122439","0.0-66.0","8x6sr29jqv","6","NaN","<div style=""width:500px;"">
                            <p style=""font-size:50px; font-weight:bold;""
                            >positive</p>
                            <div style=""width:240px; margin: auto;"">
                                <img src=""images/G_D_U_37.png"" style= ""width:200px""alt=""img"">
                            </div>
                        </div>","29","","0","images/G_D_U_37.png","","","","positive","1","37","G","D","U","",""
"","","","","","html-slider-response","71","123405","0.0-67.0","8x6sr29jqv","6","NaN","<div style=""width:500px;"">
                            <p style=""font-size:50px; font-weight:bold;""
                            >positive</p>
                            <div style=""width:240px; margin: auto;"">
                                <img src=""images/Y_L_S_07.png"" style= ""width:200px""alt=""img"">
                            </div>
                        </div>","29","","0","images/Y_L_S_07.png","","","","positive","2","07","Y","L","S","",""
"","","","","","html-slider-response","72","124439","0.0-68.0","8x6sr29jqv","6","NaN","<div style=""width:500px;"">
                            <p style=""font-size:50px; font-weight:bold;""
                            >positive</p>
                            <div style=""width:240px; margin: auto;"">
                                <img src=""images/G_D_S_33.png"" style= ""width:200px""alt=""img"">
                            </div>
                        </div>","29","","0","images/G_D_S_33.png","","","","positive","2","33","G","D","S","",""
"","","","","","html-slider-response","73","125939","0.0-69.0","8x6sr29jqv","6","NaN","<div style=""width:500px;"">
                            <p style=""font-size:50px; font-weight:bold;""
                            >positive</p>
                            <div style=""width:240px; margin: auto;"">
                                <img src=""images/R_D_S_26.png"" style= ""width:200px""alt=""img"">
                            </div>
                        </div>","-54","","0","images/R_D_S_26.png","","","","positive","1","26","R","D","S","",""
"","","","","","html-slider-response","74","127472","0.0-70.0","8x6sr29jqv","6","NaN","<div style=""width:500px;"">
                            <p style=""font-size:50px; font-weight:bold;""
                            >positive</p>
                            <div style=""width:240px; margin: auto;"">
                                <img src=""images/R_L_S_15.png"" style= ""width:200px""alt=""img"">
                            </div>
                        </div>","-55","","0","images/R_L_S_15.png","","","","positive","2","15","R","L","S","",""
"","","","","","html-slider-response","75","128822","0.0-71.0","8x6sr29jqv","6","NaN","<div style=""width:500px;"">
                            <p style=""font-size:50px; font-weight:bold;""
                            >positive</p>
                            <div style=""width:240px; margin: auto;"">
                                <img src=""images/R_L_U_23.png"" style= ""width:200px""alt=""img"">
                            </div>
                        </div>","-55","","0","images/R_L_U_23.png","","","","positive","2","23","R","L","U","",""
"","","","","","html-slider-response","76","130039","0.0-72.0","8x6sr29jqv","6","NaN","<div style=""width:500px;"">
                            <p style=""font-size:50px; font-weight:bold;""
                            >positive</p>
                            <div style=""width:240px; margin: auto;"">
                                <img src=""images/G_L_S_28.png"" style= ""width:200px""alt=""img"">
                            </div>
                        </div>","27","","0","images/G_L_S_28.png","","","","positive","2","28","G","L","S","",""
"","","","","","html-slider-response","77","131072","0.0-73.0","8x6sr29jqv","6","NaN","<div style=""width:500px;"">
                            <p style=""font-size:50px; font-weight:bold;""
                            >positive</p>
                            <div style=""width:240px; margin: auto;"">
                                <img src=""images/R_D_U_27.png"" style= ""width:200px""alt=""img"">
                            </div>
                        </div>","-26","","0","images/R_D_U_27.png","","","","positive","1","27","R","D","U","",""
"","","","","","html-slider-response","78","132339","0.0-74.0","8x6sr29jqv","6","NaN","<div style=""width:500px;"">
                            <p style=""font-size:50px; font-weight:bold;""
                            >positive</p>
                            <div style=""width:240px; margin: auto;"">
                                <img src=""images/B_D_U_05.png"" style= ""width:200px""alt=""img"">
                            </div>
                        </div>","16","","0","images/B_D_U_05.png","","","","positive","1","05","B","D","U","",""
"","","","","","html-slider-response","79","133222","0.0-75.0","8x6sr29jqv","6","NaN","<div style=""width:500px;"">
                            <p style=""font-size:50px; font-weight:bold;""
                            >positive</p>
                            <div style=""width:240px; margin: auto;"">
                                <img src=""images/G_D_U_37.png"" style= ""width:200px""alt=""img"">
                            </div>
                        </div>","41","","0","images/G_D_U_37.png","","","","positive","2","37","G","D","U","",""
"","","","","","html-slider-response","80","134122","0.0-76.0","8x6sr29jqv","6","NaN","<div style=""width:500px;"">
                            <p style=""font-size:50px; font-weight:bold;""
                            >positive</p>
                            <div style=""width:240px; margin: auto;"">
                                <img src=""images/Y_D_S_12.png"" style= ""width:200px""alt=""img"">
                            </div>
                        </div>","28","","0","images/Y_D_S_12.png","","","","positive","2","12","Y","D","S","",""
"","","","","","html-slider-response","81","135021","0.0-77.0","8x6sr29jqv","6","NaN","<div style=""width:500px;"">
                            <p style=""font-size:50px; font-weight:bold;""
                            >positive</p>
                            <div style=""width:240px; margin: auto;"">
                                <img src=""images/B_D_U_05.png"" style= ""width:200px""alt=""img"">
                            </div>
                        </div>","28","","0","images/B_D_U_05.png","","","","positive","2","05","B","D","U","",""
"","","","","","html-slider-response","82","136022","0.0-78.0","8x6sr29jqv","6","NaN","<div style=""width:500px;"">
                            <p style=""font-size:50px; font-weight:bold;""
                            >positive</p>
                            <div style=""width:240px; margin: auto;"">
                                <img src=""images/Y_L_S_07.png"" style= ""width:200px""alt=""img"">
                            </div>
                        </div>","28","","0","images/Y_L_S_07.png","","","","positive","1","07","Y","L","S","",""
"","","","","","html-slider-response","83","136987","0.0-79.0","8x6sr29jqv","6","NaN","<div style=""width:500px;"">
                            <p style=""font-size:50px; font-weight:bold;""
                            >positive</p>
                            <div style=""width:240px; margin: auto;"">
                                <img src=""images/B_L_S_41.png"" style= ""width:200px""alt=""img"">
                            </div>
                        </div>","28","","0","images/B_L_S_41.png","","","","positive","1","41","B","L","S","",""
"","","","","","html-button-response","84","138412","0.0-80.0","8x6sr29jqv","6","921","<p>Great Job! You've finished block 2.<br></br> You have 6 block(s) left to go.<br></br></p>","0","","","","","","","","","","","","","",""
"","","","","","html-button-response","85","139013","0.0-81.0","8x6sr29jqv","6","600","<p>In this block of trials, you will be asked to rate how much you associate each map with:</p > <p style = 'font-size:150%; font-weight: bold'>calm</p><br></br>","0","","","","","","","","","","","","","",""
"","","","","","html-slider-response","86","140155","0.0-82.0","8x6sr29jqv","6","NaN","<div style=""width:500px;"">
                            <p style=""font-size:50px; font-weight:bold;""
                            >calm</p>
                            <div style=""width:240px; margin: auto;"">
                                <img src=""images/B_D_U_05.png"" style= ""width:200px""alt=""img"">
                            </div>
                        </div>","37","","0","images/B_D_U_05.png","","","","calm","1","05","B","D","U","",""
"","","","","","html-slider-response","87","141588","0.0-83.0","8x6sr29jqv","6","NaN","<div style=""width:500px;"">
                            <p style=""font-size:50px; font-weight:bold;""
                            >calm</p>
                            <div style=""width:240px; margin: auto;"">
                                <img src=""images/R_D_S_26.png"" style= ""width:200px""alt=""img"">
                            </div>
                        </div>","-37","","0","images/R_D_S_26.png","","","","calm","2","26","R","D","S","",""
"","","","","","html-slider-response","88","142806","0.0-84.0","8x6sr29jqv","6","NaN","<div style=""width:500px;"">
                            <p style=""font-size:50px; font-weight:bold;""
                            >calm</p>
                            <div style=""width:240px; margin: auto;"">
                                <img src=""images/G_D_U_37.png"" style= ""width:200px""alt=""img"">
                            </div>
                        </div>","22","","0","images/G_D_U_37.png","","","","calm","1","37","G","D","U","",""
"","","","","","html-slider-response","89","144521","0.0-85.0","8x6sr29jqv","6","NaN","<div style=""width:500px;"">
                            <p style=""font-size:50px; font-weight:bold;""
                            >calm</p>
                            <div style=""width:240px; margin: auto;"">
                                <img src=""images/B_D_S_02.png"" style= ""width:200px""alt=""img"">
                            </div>
                        </div>","-18","","0","images/B_D_S_02.png","","","","calm","1","02","B","D","S","",""
"","","","","","html-slider-response","90","145740","0.0-86.0","8x6sr29jqv","6","NaN","<div style=""width:500px;"">
                            <p style=""font-size:50px; font-weight:bold;""
                            >calm</p>
                            <div style=""width:240px; margin: auto;"">
                                <img src=""images/Y_D_S_12.png"" style= ""width:200px""alt=""img"">
                            </div>
                        </div>","16","","0","images/Y_D_S_12.png","","","","calm","1","12","Y","D","S","",""
"","","","","","html-slider-response","91","146956","0.0-87.0","8x6sr29jqv","6","NaN","<div style=""width:500px;"">
                            <p style=""font-size:50px; font-weight:bold;""
                            >calm</p>
                            <div style=""width:240px; margin: auto;"">
                                <img src=""images/R_D_U_27.png"" style= ""width:200px""alt=""img"">
                            </div>
                        </div>","30","","0","images/R_D_U_27.png","","","","calm","2","27","R","D","U","",""
"","","","","","html-slider-response","92","148339","0.0-88.0","8x6sr29jqv","6","NaN","<div style=""width:500px;"">
                            <p style=""font-size:50px; font-weight:bold;""
                            >calm</p>
                            <div style=""width:240px; margin: auto;"">
                                <img src=""images/Y_L_S_07.png"" style= ""width:200px""alt=""img"">
                            </div>
                        </div>","-21","","0","images/Y_L_S_07.png","","","","calm","2","07","Y","L","S","",""
"","","","","","html-slider-response","93","149706","0.0-89.0","8x6sr29jqv","6","NaN","<div style=""width:500px;"">
                            <p style=""font-size:50px; font-weight:bold;""
                            >calm</p>
                            <div style=""width:240px; margin: auto;"">
                                <img src=""images/R_L_U_23.png"" style= ""width:200px""alt=""img"">
                            </div>
                        </div>","-70","","0","images/R_L_U_23.png","","","","calm","2","23","R","L","U","",""
"","","","","","html-slider-response","94","150922","0.0-90.0","8x6sr29jqv","6","NaN","<div style=""width:500px;"">
                            <p style=""font-size:50px; font-weight:bold;""
                            >calm</p>
                            <div style=""width:240px; margin: auto;"">
                                <img src=""images/Y_D_S_12.png"" style= ""width:200px""alt=""img"">
                            </div>
                        </div>","36","","0","images/Y_D_S_12.png","","","","calm","2","12","Y","D","S","",""
"","","","","","html-slider-response","95","152239","0.0-91.0","8x6sr29jqv","6","NaN","<div style=""width:500px;"">
                            <p style=""font-size:50px; font-weight:bold;""
                            >calm</p>
                            <div style=""width:240px; margin: auto;"">
                                <img src=""images/Y_L_U_10.png"" style= ""width:200px""alt=""img"">
                            </div>
                        </div>","-60","","0","images/Y_L_U_10.png","","","","calm","2","10","Y","L","U","",""
"","","","","","html-slider-response","96","153523","0.0-92.0","8x6sr29jqv","6","NaN","<div style=""width:500px;"">
                            <p style=""font-size:50px; font-weight:bold;""
                            >calm</p>
                            <div style=""width:240px; margin: auto;"">
                                <img src=""images/Y_L_U_10.png"" style= ""width:200px""alt=""img"">
                            </div>
                        </div>","-43","","0","images/Y_L_U_10.png","","","","calm","1","10","Y","L","U","",""
"","","","","","html-slider-response","97","154723","0.0-93.0","8x6sr29jqv","6","NaN","<div style=""width:500px;"">
                            <p style=""font-size:50px; font-weight:bold;""
                            >calm</p>
                            <div style=""width:240px; margin: auto;"">
                                <img src=""images/B_L_S_41.png"" style= ""width:200px""alt=""img"">
                            </div>
                        </div>","42","","0","images/B_L_S_41.png","","","","calm","1","41","B","L","S","",""
"","","","","","html-slider-response","98","155972","0.0-94.0","8x6sr29jqv","6","NaN","<div style=""width:500px;"">
                            <p style=""font-size:50px; font-weight:bold;""
                            >calm</p>
                            <div style=""width:240px; margin: auto;"">
                                <img src=""images/B_L_U_44.png"" style= ""width:200px""alt=""img"">
                            </div>
                        </div>","46","","0","images/B_L_U_44.png","","","","calm","1","44","B","L","U","",""
"","","","","","html-slider-response","99","157556","0.0-95.0","8x6sr29jqv","6","NaN","<div style=""width:500px;"">
                            <p style=""font-size:50px; font-weight:bold;""
                            >calm</p>
                            <div style=""width:240px; margin: auto;"">
                                <img src=""images/R_D_U_27.png"" style= ""width:200px""alt=""img"">
                            </div>
                        </div>","33","","0","images/R_D_U_27.png","","","","calm","1","27","R","D","U","",""
"","","","","","html-slider-response","100","158923","0.0-96.0","8x6sr29jqv","6","NaN","<div style=""width:500px;"">
                            <p style=""font-size:50px; font-weight:bold;""
                            >calm</p>
                            <div style=""width:240px; margin: auto;"">
                                <img src=""images/R_L_S_15.png"" style= ""width:200px""alt=""img"">
                            </div>
                        </div>","-51","","0","images/R_L_S_15.png","","","","calm","2","15","R","L","S","",""
"","","","","","html-slider-response","101","160589","0.0-97.0","8x6sr29jqv","6","NaN","<div style=""width:500px;"">
                            <p style=""font-size:50px; font-weight:bold;""
                            >calm</p>
                            <div style=""width:240px; margin: auto;"">
                                <img src=""images/R_D_S_26.png"" style= ""width:200px""alt=""img"">
                            </div>
                        </div>","-42","","0","images/R_D_S_26.png","","","","calm","1","26","R","D","S","",""
"","","","","","html-slider-response","102","161789","0.0-98.0","8x6sr29jqv","6","NaN","<div style=""width:500px;"">
                            <p style=""font-size:50px; font-weight:bold;""
                            >calm</p>
                            <div style=""width:240px; margin: auto;"">
                                <img src=""images/G_D_S_33.png"" style= ""width:200px""alt=""img"">
                            </div>
                        </div>","34","","0","images/G_D_S_33.png","","","","calm","1","33","G","D","S","",""
"","","","","","html-slider-response","103","162939","0.0-99.0","8x6sr29jqv","6","NaN","<div style=""width:500px;"">
                            <p style=""font-size:50px; font-weight:bold;""
                            >calm</p>
                            <div style=""width:240px; margin: auto;"">
                                <img src=""images/Y_D_U_13.png"" style= ""width:200px""alt=""img"">
                            </div>
                        </div>","32","","0","images/Y_D_U_13.png","","","","calm","1","13","Y","D","U","",""
"","","","","","html-slider-response","104","164356","0.0-100.0","8x6sr29jqv","6","NaN","<div style=""width:500px;"">
                            <p style=""font-size:50px; font-weight:bold;""
                            >calm</p>
                            <div style=""width:240px; margin: auto;"">
                                <img src=""images/G_D_U_37.png"" style= ""width:200px""alt=""img"">
                            </div>
                        </div>","18","","0","images/G_D_U_37.png","","","","calm","2","37","G","D","U","",""
"","","","","","html-slider-response","105","165522","0.0-101.0","8x6sr29jqv","6","NaN","<div style=""width:500px;"">
                            <p style=""font-size:50px; font-weight:bold;""
                            >calm</p>
                            <div style=""width:240px; margin: auto;"">
                                <img src=""images/Y_L_S_07.png"" style= ""width:200px""alt=""img"">
                            </div>
                        </div>","-26","","0","images/Y_L_S_07.png","","","","calm","1","07","Y","L","S","",""
"","","","","","html-slider-response","106","166706","0.0-102.0","8x6sr29jqv","6","NaN","<div style=""width:500px;"">
                            <p style=""font-size:50px; font-weight:bold;""
                            >calm</p>
                            <div style=""width:240px; margin: auto;"">
                                <img src=""images/B_D_S_02.png"" style= ""width:200px""alt=""img"">
                            </div>
                        </div>","28","","0","images/B_D_S_02.png","","","","calm","2","02","B","D","S","",""
"","","","","","html-slider-response","107","167890","0.0-103.0","8x6sr29jqv","6","NaN","<div style=""width:500px;"">
                            <p style=""font-size:50px; font-weight:bold;""
                            >calm</p>
                            <div style=""width:240px; margin: auto;"">
                                <img src=""images/R_L_U_23.png"" style= ""width:200px""alt=""img"">
                            </div>
                        </div>","-46","","0","images/R_L_U_23.png","","","","calm","1","23","R","L","U","",""
"","","","","","html-slider-response","108","169056","0.0-104.0","8x6sr29jqv","6","NaN","<div style=""width:500px;"">
                            <p style=""font-size:50px; font-weight:bold;""
                            >calm</p>
                            <div style=""width:240px; margin: auto;"">
                                <img src=""images/G_D_S_33.png"" style= ""width:200px""alt=""img"">
                            </div>
                        </div>","42","","0","images/G_D_S_33.png","","","","calm","2","33","G","D","S","",""
"","","","","","html-slider-response","109","170339","0.0-105.0","8x6sr29jqv","6","NaN","<div style=""width:500px;"">
                            <p style=""font-size:50px; font-weight:bold;""
                            >calm</p>
                            <div style=""width:240px; margin: auto;"">
                                <img src=""images/R_L_S_15.png"" style= ""width:200px""alt=""img"">
                            </div>
                        </div>","-38","","0","images/R_L_S_15.png","","","","calm","1","15","R","L","S","",""
"","","","","","html-slider-response","110","171390","0.0-106.0","8x6sr29jqv","6","NaN","<div style=""width:500px;"">
                            <p style=""font-size:50px; font-weight:bold;""
                            >calm</p>
                            <div style=""width:240px; margin: auto;"">
                                <img src=""images/G_L_U_30.png"" style= ""width:200px""alt=""img"">
                            </div>
                        </div>","29","","0","images/G_L_U_30.png","","","","calm","2","30","G","L","U","",""
"","","","","","html-slider-response","111","172323","0.0-107.0","8x6sr29jqv","6","NaN","<div style=""width:500px;"">
                            <p style=""font-size:50px; font-weight:bold;""
                            >calm</p>
                            <div style=""width:240px; margin: auto;"">
                                <img src=""images/G_L_S_28.png"" style= ""width:200px""alt=""img"">
                            </div>
                        </div>","29","","0","images/G_L_S_28.png","","","","calm","2","28","G","L","S","",""
"","","","","","html-slider-response","112","173255","0.0-108.0","8x6sr29jqv","6","NaN","<div style=""width:500px;"">
                            <p style=""font-size:50px; font-weight:bold;""
                            >calm</p>
                            <div style=""width:240px; margin: auto;"">
                                <img src=""images/B_D_U_05.png"" style= ""width:200px""alt=""img"">
                            </div>
                        </div>","29","","0","images/B_D_U_05.png","","","","calm","2","05","B","D","U","",""
"","","","","","html-slider-response","113","174306","0.0-109.0","8x6sr29jqv","6","NaN","<div style=""width:500px;"">
                            <p style=""font-size:50px; font-weight:bold;""
                            >calm</p>
                            <div style=""width:240px; margin: auto;"">
                                <img src=""images/Y_D_U_13.png"" style= ""width:200px""alt=""img"">
                            </div>
                        </div>","27","","0","images/Y_D_U_13.png","","","","calm","2","13","Y","D","U","",""
"","","","","","html-slider-response","114","175273","0.0-110.0","8x6sr29jqv","6","NaN","<div style=""width:500px;"">
                            <p style=""font-size:50px; font-weight:bold;""
                            >calm</p>
                            <div style=""width:240px; margin: auto;"">
                                <img src=""images/B_L_U_44.png"" style= ""width:200px""alt=""img"">
                            </div>
                        </div>","-48","","0","images/B_L_U_44.png","","","","calm","2","44","B","L","U","",""
"","","","","","html-slider-response","115","176506","0.0-111.0","8x6sr29jqv","6","NaN","<div style=""width:500px;"">
                            <p style=""font-size:50px; font-weight:bold;""
                            >calm</p>
                            <div style=""width:240px; margin: auto;"">
                                <img src=""images/G_L_U_30.png"" style= ""width:200px""alt=""img"">
                            </div>
                        </div>","-62","","0","images/G_L_U_30.png","","","","calm","1","30","G","L","U","",""
"","","","","","html-slider-response","116","177706","0.0-112.0","8x6sr29jqv","6","NaN","<div style=""width:500px;"">
                            <p style=""font-size:50px; font-weight:bold;""
                            >calm</p>
                            <div style=""width:240px; margin: auto;"">
                                <img src=""images/B_L_S_41.png"" style= ""width:200px""alt=""img"">
                            </div>
                        </div>","-32","","0","images/B_L_S_41.png","","","","calm","2","41","B","L","S","",""
"","","","","","html-slider-response","117","178806","0.0-113.0","8x6sr29jqv","6","NaN","<div style=""width:500px;"">
                            <p style=""font-size:50px; font-weight:bold;""
                            >calm</p>
                            <div style=""width:240px; margin: auto;"">
                                <img src=""images/G_L_S_28.png"" style= ""width:200px""alt=""img"">
                            </div>
                        </div>","-46","","0","images/G_L_S_28.png","","","","calm","1","28","G","L","S","",""
"","","","","","html-button-response","118","180178","0.0-114.0","8x6sr29jqv","6","869","<p>Great Job! You've finished block 3.<br></br> You have 5 block(s) left to go.<br></br></p>","0","","","","","","","","","","","","","",""
"","","","","","html-button-response","119","181014","0.0-115.0","8x6sr29jqv","6","834","<p>In this block of trials, you will be asked to rate how much you associate each map with:</p > <p style = 'font-size:150%; font-weight: bold'>serious</p><br></br>","0","","","","","","","","","","","","","",""
"","","","","","html-slider-response","120","182690","0.0-116.0","8x6sr29jqv","6","NaN","<div style=""width:500px;"">
                            <p style=""font-size:50px; font-weight:bold;""
                            >serious</p>
                            <div style=""width:240px; margin: auto;"">
                                <img src=""images/G_L_U_30.png"" style= ""width:200px""alt=""img"">
                            </div>
                        </div>","-12","","0","images/G_L_U_30.png","","","","serious","2","30","G","L","U","",""
"","","","","","html-slider-response","121","183723","0.0-117.0","8x6sr29jqv","6","NaN","<div style=""width:500px;"">
                            <p style=""font-size:50px; font-weight:bold;""
                            >serious</p>
                            <div style=""width:240px; margin: auto;"">
                                <img src=""images/G_L_U_30.png"" style= ""width:200px""alt=""img"">
                            </div>
                        </div>","35","","0","images/G_L_U_30.png","","","","serious","1","30","G","L","U","",""
"","","","","","html-slider-response","122","184906","0.0-118.0","8x6sr29jqv","6","NaN","<div style=""width:500px;"">
                            <p style=""font-size:50px; font-weight:bold;""
                            >serious</p>
                            <div style=""width:240px; margin: auto;"">
                                <img src=""images/R_D_S_26.png"" style= ""width:200px""alt=""img"">
                            </div>
                        </div>","36","","0","images/R_D_S_26.png","","","","serious","1","26","R","D","S","",""
"","","","","","html-slider-response","123","185872","0.0-119.0","8x6sr29jqv","6","NaN","<div style=""width:500px;"">
                            <p style=""font-size:50px; font-weight:bold;""
                            >serious</p>
                            <div style=""width:240px; margin: auto;"">
                                <img src=""images/R_L_U_23.png"" style= ""width:200px""alt=""img"">
                            </div>
                        </div>","36","","0","images/R_L_U_23.png","","","","serious","2","23","R","L","U","",""
"","","","","","html-slider-response","124","186856","0.0-120.0","8x6sr29jqv","6","NaN","<div style=""width:500px;"">
                            <p style=""font-size:50px; font-weight:bold;""
                            >serious</p>
                            <div style=""width:240px; margin: auto;"">
                                <img src=""images/G_L_S_28.png"" style= ""width:200px""alt=""img"">
                            </div>
                        </div>","36","","0","images/G_L_S_28.png","","","","serious","2","28","G","L","S","",""
"","","","","","html-slider-response","125","187623","0.0-121.0","8x6sr29jqv","6","NaN","<div style=""width:500px;"">
                            <p style=""font-size:50px; font-weight:bold;""
                            >serious</p>
                            <div style=""width:240px; margin: auto;"">
                                <img src=""images/Y_D_U_13.png"" style= ""width:200px""alt=""img"">
                            </div>
                        </div>","36","","0","images/Y_D_U_13.png","","","","serious","2","13","Y","D","U","",""
"","","","","","html-slider-response","126","188455","0.0-122.0","8x6sr29jqv","6","NaN","<div style=""width:500px;"">
                            <p style=""font-size:50px; font-weight:bold;""
                            >serious</p>
                            <div style=""width:240px; margin: auto;"">
                                <img src=""images/G_D_S_33.png"" style= ""width:200px""alt=""img"">
                            </div>
                        </div>","36","","0","images/G_D_S_33.png","","","","serious","1","33","G","D","S","",""
"","","","","","html-slider-response","127","189439","0.0-123.0","8x6sr29jqv","6","NaN","<div style=""width:500px;"">
                            <p style=""font-size:50px; font-weight:bold;""
                            >serious</p>
                            <div style=""width:240px; margin: auto;"">
                                <img src=""images/B_D_S_02.png"" style= ""width:200px""alt=""img"">
                            </div>
                        </div>","5","","0","images/B_D_S_02.png","","","","serious","1","02","B","D","S","",""
"","","","","","html-slider-response","128","190556","0.0-124.0","8x6sr29jqv","6","NaN","<div style=""width:500px;"">
                            <p style=""font-size:50px; font-weight:bold;""
                            >serious</p>
                            <div style=""width:240px; margin: auto;"">
                                <img src=""images/R_L_U_23.png"" style= ""width:200px""alt=""img"">
                            </div>
                        </div>","5","","0","images/R_L_U_23.png","","","","serious","1","23","R","L","U","",""
"","","","","","html-slider-response","129","191257","0.0-125.0","8x6sr29jqv","6","NaN","<div style=""width:500px;"">
                            <p style=""font-size:50px; font-weight:bold;""
                            >serious</p>
                            <div style=""width:240px; margin: auto;"">
                                <img src=""images/R_L_S_15.png"" style= ""width:200px""alt=""img"">
                            </div>
                        </div>","5","","0","images/R_L_S_15.png","","","","serious","1","15","R","L","S","",""
"","","","","","html-slider-response","130","192072","0.0-126.0","8x6sr29jqv","6","NaN","<div style=""width:500px;"">
                            <p style=""font-size:50px; font-weight:bold;""
                            >serious</p>
                            <div style=""width:240px; margin: auto;"">
                                <img src=""images/G_D_U_37.png"" style= ""width:200px""alt=""img"">
                            </div>
                        </div>","2","","0","images/G_D_U_37.png","","","","serious","2","37","G","D","U","",""
"","","","","","html-slider-response","131","193123","0.0-127.0","8x6sr29jqv","6","NaN","<div style=""width:500px;"">
                            <p style=""font-size:50px; font-weight:bold;""
                            >serious</p>
                            <div style=""width:240px; margin: auto;"">
                                <img src=""images/B_D_S_02.png"" style= ""width:200px""alt=""img"">
                            </div>
                        </div>","0","","0","images/B_D_S_02.png","","","","serious","2","02","B","D","S","",""
"","","","","","html-slider-response","132","193806","0.0-128.0","8x6sr29jqv","6","NaN","<div style=""width:500px;"">
                            <p style=""font-size:50px; font-weight:bold;""
                            >serious</p>
                            <div style=""width:240px; margin: auto;"">
                                <img src=""images/B_L_U_44.png"" style= ""width:200px""alt=""img"">
                            </div>
                        </div>","0","","0","images/B_L_U_44.png","","","","serious","1","44","B","L","U","",""
"","","","","","html-slider-response","133","194439","0.0-129.0","8x6sr29jqv","6","NaN","<div style=""width:500px;"">
                            <p style=""font-size:50px; font-weight:bold;""
                            >serious</p>
                            <div style=""width:240px; margin: auto;"">
                                <img src=""images/R_L_S_15.png"" style= ""width:200px""alt=""img"">
                            </div>
                        </div>","0","","0","images/R_L_S_15.png","","","","serious","2","15","R","L","S","",""
"","","","","","html-slider-response","134","195189","0.0-130.0","8x6sr29jqv","6","NaN","<div style=""width:500px;"">
                            <p style=""font-size:50px; font-weight:bold;""
                            >serious</p>
                            <div style=""width:240px; margin: auto;"">
                                <img src=""images/G_L_S_28.png"" style= ""width:200px""alt=""img"">
                            </div>
                        </div>","0","","0","images/G_L_S_28.png","","","","serious","1","28","G","L","S","",""
"","","","","","html-slider-response","135","195856","0.0-131.0","8x6sr29jqv","6","NaN","<div style=""width:500px;"">
                            <p style=""font-size:50px; font-weight:bold;""
                            >serious</p>
                            <div style=""width:240px; margin: auto;"">
                                <img src=""images/Y_L_U_10.png"" style= ""width:200px""alt=""img"">
                            </div>
                        </div>","0","","0","images/Y_L_U_10.png","","","","serious","1","10","Y","L","U","",""
"","","","","","html-slider-response","136","196506","0.0-132.0","8x6sr29jqv","6","NaN","<div style=""width:500px;"">
                            <p style=""font-size:50px; font-weight:bold;""
                            >serious</p>
                            <div style=""width:240px; margin: auto;"">
                                <img src=""images/G_D_U_37.png"" style= ""width:200px""alt=""img"">
                            </div>
                        </div>","0","","0","images/G_D_U_37.png","","","","serious","1","37","G","D","U","",""
"","","","","","html-slider-response","137","197206","0.0-133.0","8x6sr29jqv","6","NaN","<div style=""width:500px;"">
                            <p style=""font-size:50px; font-weight:bold;""
                            >serious</p>
                            <div style=""width:240px; margin: auto;"">
                                <img src=""images/Y_L_S_07.png"" style= ""width:200px""alt=""img"">
                            </div>
                        </div>","0","","0","images/Y_L_S_07.png","","","","serious","1","07","Y","L","S","",""
"","","","","","html-slider-response","138","197856","0.0-134.0","8x6sr29jqv","6","NaN","<div style=""width:500px;"">
                            <p style=""font-size:50px; font-weight:bold;""
                            >serious</p>
                            <div style=""width:240px; margin: auto;"">
                                <img src=""images/B_D_U_05.png"" style= ""width:200px""alt=""img"">
                            </div>
                        </div>","0","","0","images/B_D_U_05.png","","","","serious","2","05","B","D","U","",""
"","","","","","html-slider-response","139","198623","0.0-135.0","8x6sr29jqv","6","NaN","<div style=""width:500px;"">
                            <p style=""font-size:50px; font-weight:bold;""
                            >serious</p>
                            <div style=""width:240px; margin: auto;"">
                                <img src=""images/Y_L_U_10.png"" style= ""width:200px""alt=""img"">
                            </div>
                        </div>","-39","","0","images/Y_L_U_10.png","","","","serious","2","10","Y","L","U","",""
"","","","","","html-slider-response","140","199606","0.0-136.0","8x6sr29jqv","6","NaN","<div style=""width:500px;"">
                            <p style=""font-size:50px; font-weight:bold;""
                            >serious</p>
                            <div style=""width:240px; margin: auto;"">
                                <img src=""images/Y_D_S_12.png"" style= ""width:200px""alt=""img"">
                            </div>
                        </div>","2","","0","images/Y_D_S_12.png","","","","serious","1","12","Y","D","S","",""
"","","","","","html-slider-response","141","200705","0.0-137.0","8x6sr29jqv","6","NaN","<div style=""width:500px;"">
                            <p style=""font-size:50px; font-weight:bold;""
                            >serious</p>
                            <div style=""width:240px; margin: auto;"">
                                <img src=""images/Y_L_S_07.png"" style= ""width:200px""alt=""img"">
                            </div>
                        </div>","26","","0","images/Y_L_S_07.png","","","","serious","2","07","Y","L","S","",""
"","","","","","html-slider-response","142","201339","0.0-138.0","8x6sr29jqv","6","NaN","<div style=""width:500px;"">
                            <p style=""font-size:50px; font-weight:bold;""
                            >serious</p>
                            <div style=""width:240px; margin: auto;"">
                                <img src=""images/B_L_S_41.png"" style= ""width:200px""alt=""img"">
                            </div>
                        </div>","-37","","0","images/B_L_S_41.png","","","","serious","1","41","B","L","S","",""
"","","","","","html-slider-response","143","202423","0.0-139.0","8x6sr29jqv","6","NaN","<div style=""width:500px;"">
                            <p style=""font-size:50px; font-weight:bold;""
                            >serious</p>
                            <div style=""width:240px; margin: auto;"">
                                <img src=""images/Y_D_S_12.png"" style= ""width:200px""alt=""img"">
                            </div>
                        </div>","21","","0","images/Y_D_S_12.png","","","","serious","2","12","Y","D","S","",""
"","","","","","html-slider-response","144","203190","0.0-140.0","8x6sr29jqv","6","NaN","<div style=""width:500px;"">
                            <p style=""font-size:50px; font-weight:bold;""
                            >serious</p>
                            <div style=""width:240px; margin: auto;"">
                                <img src=""images/Y_D_U_13.png"" style= ""width:200px""alt=""img"">
                            </div>
                        </div>","-68","","0","images/Y_D_U_13.png","","","","serious","1","13","Y","D","U","",""
"","","","","","html-slider-response","145","203890","0.0-141.0","8x6sr29jqv","6","NaN","<div style=""width:500px;"">
                            <p style=""font-size:50px; font-weight:bold;""
                            >serious</p>
                            <div style=""width:240px; margin: auto;"">
                                <img src=""images/G_D_S_33.png"" style= ""width:200px""alt=""img"">
                            </div>
                        </div>","22","","0","images/G_D_S_33.png","","","","serious","2","33","G","D","S","",""
"","","","","","html-slider-response","146","204556","0.0-142.0","8x6sr29jqv","6","NaN","<div style=""width:500px;"">
                            <p style=""font-size:50px; font-weight:bold;""
                            >serious</p>
                            <div style=""width:240px; margin: auto;"">
                                <img src=""images/R_D_U_27.png"" style= ""width:200px""alt=""img"">
                            </div>
                        </div>","-47","","0","images/R_D_U_27.png","","","","serious","1","27","R","D","U","",""
"","","","","","html-slider-response","147","205272","0.0-143.0","8x6sr29jqv","6","NaN","<div style=""width:500px;"">
                            <p style=""font-size:50px; font-weight:bold;""
                            >serious</p>
                            <div style=""width:240px; margin: auto;"">
                                <img src=""images/B_D_U_05.png"" style= ""width:200px""alt=""img"">
                            </div>
                        </div>","46","","0","images/B_D_U_05.png","","","","serious","1","05","B","D","U","",""
"","","","","","html-slider-response","148","205906","0.0-144.0","8x6sr29jqv","6","NaN","<div style=""width:500px;"">
                            <p style=""font-size:50px; font-weight:bold;""
                            >serious</p>
                            <div style=""width:240px; margin: auto;"">
                                <img src=""images/R_D_U_27.png"" style= ""width:200px""alt=""img"">
                            </div>
                        </div>","-37","","0","images/R_D_U_27.png","","","","serious","2","27","R","D","U","",""
"","","","","","html-slider-response","149","206539","0.0-145.0","8x6sr29jqv","6","NaN","<div style=""width:500px;"">
                            <p style=""font-size:50px; font-weight:bold;""
                            >serious</p>
                            <div style=""width:240px; margin: auto;"">
                                <img src=""images/B_L_U_44.png"" style= ""width:200px""alt=""img"">
                            </div>
                        </div>","46","","0","images/B_L_U_44.png","","","","serious","2","44","B","L","U","",""
"","","","","","html-slider-response","150","207706","0.0-146.0","8x6sr29jqv","6","NaN","<div style=""width:500px;"">
                            <p style=""font-size:50px; font-weight:bold;""
                            >serious</p>
                            <div style=""width:240px; margin: auto;"">
                                <img src=""images/B_L_S_41.png"" style= ""width:200px""alt=""img"">
                            </div>
                        </div>","45","","0","images/B_L_S_41.png","","","","serious","2","41","B","L","S","",""
"","","","","","html-slider-response","151","209105","0.0-147.0","8x6sr29jqv","6","NaN","<div style=""width:500px;"">
                            <p style=""font-size:50px; font-weight:bold;""
                            >serious</p>
                            <div style=""width:240px; margin: auto;"">
                                <img src=""images/R_D_S_26.png"" style= ""width:200px""alt=""img"">
                            </div>
                        </div>","22","","0","images/R_D_S_26.png","","","","serious","2","26","R","D","S","",""
"","","","","","html-button-response","152","210395","0.0-148.0","8x6sr29jqv","6","787","<p>Great Job! You've finished block 4.<br></br> You have 4 block(s) left to go.<br></br></p>","0","","","","","","","","","","","","","",""
"","","","","","html-button-response","153","210930","0.0-149.0","8x6sr29jqv","6","534","<p>In this block of trials, you will be asked to rate how much you associate each map with:</p > <p style = 'font-size:150%; font-weight: bold'>disturbing</p><br></br>","0","","","","","","","","","","","","","",""
"","","","","","html-slider-response","154","212040","0.0-150.0","8x6sr29jqv","6","NaN","<div style=""width:500px;"">
                            <p style=""font-size:50px; font-weight:bold;""
                            >disturbing</p>
                            <div style=""width:240px; margin: auto;"">
                                <img src=""images/G_D_S_33.png"" style= ""width:200px""alt=""img"">
                            </div>
                        </div>","19","","0","images/G_D_S_33.png","","","","disturbing","2","33","G","D","S","",""
"","","","","","html-slider-response","155","213072","0.0-151.0","8x6sr29jqv","6","NaN","<div style=""width:500px;"">
                            <p style=""font-size:50px; font-weight:bold;""
                            >disturbing</p>
                            <div style=""width:240px; margin: auto;"">
                                <img src=""images/R_D_S_26.png"" style= ""width:200px""alt=""img"">
                            </div>
                        </div>","26","","0","images/R_D_S_26.png","","","","disturbing","2","26","R","D","S","",""
"","","","","","html-slider-response","156","216090","0.0-152.0","8x6sr29jqv","6","NaN","<div style=""width:500px;"">
                            <p style=""font-size:50px; font-weight:bold;""
                            >disturbing</p>
                            <div style=""width:240px; margin: auto;"">
                                <img src=""images/G_L_U_30.png"" style= ""width:200px""alt=""img"">
                            </div>
                        </div>","-46","","0","images/G_L_U_30.png","","","","disturbing","2","30","G","L","U","",""
"","","","","","html-slider-response","157","218106","0.0-153.0","8x6sr29jqv","6","NaN","<div style=""width:500px;"">
                            <p style=""font-size:50px; font-weight:bold;""
                            >disturbing</p>
                            <div style=""width:240px; margin: auto;"">
                                <img src=""images/G_L_S_28.png"" style= ""width:200px""alt=""img"">
                            </div>
                        </div>","-67","","0","images/G_L_S_28.png","","","","disturbing","1","28","G","L","S","",""
"","","","","","html-slider-response","158","219373","0.0-154.0","8x6sr29jqv","6","NaN","<div style=""width:500px;"">
                            <p style=""font-size:50px; font-weight:bold;""
                            >disturbing</p>
                            <div style=""width:240px; margin: auto;"">
                                <img src=""images/R_L_S_15.png"" style= ""width:200px""alt=""img"">
                            </div>
                        </div>","50","","0","images/R_L_S_15.png","","","","disturbing","2","15","R","L","S","",""
"","","","","","html-slider-response","159","220939","0.0-155.0","8x6sr29jqv","6","NaN","<div style=""width:500px;"">
                            <p style=""font-size:50px; font-weight:bold;""
                            >disturbing</p>
                            <div style=""width:240px; margin: auto;"">
                                <img src=""images/R_D_U_27.png"" style= ""width:200px""alt=""img"">
                            </div>
                        </div>","-47","","0","images/R_D_U_27.png","","","","disturbing","1","27","R","D","U","",""
"","","","","","html-slider-response","160","222723","0.0-156.0","8x6sr29jqv","6","NaN","<div style=""width:500px;"">
                            <p style=""font-size:50px; font-weight:bold;""
                            >disturbing</p>
                            <div style=""width:240px; margin: auto;"">
                                <img src=""images/B_L_U_44.png"" style= ""width:200px""alt=""img"">
                            </div>
                        </div>","-30","","0","images/B_L_U_44.png","","","","disturbing","1","44","B","L","U","",""
"","","","","","html-slider-response","161","224289","0.0-157.0","8x6sr29jqv","6","NaN","<div style=""width:500px;"">
                            <p style=""font-size:50px; font-weight:bold;""
                            >disturbing</p>
                            <div style=""width:240px; margin: auto;"">
                                <img src=""images/B_D_U_05.png"" style= ""width:200px""alt=""img"">
                            </div>
                        </div>","-19","","0","images/B_D_U_05.png","","","","disturbing","1","05","B","D","U","",""
"","","","","","html-slider-response","162","225989","0.0-158.0","8x6sr29jqv","6","NaN","<div style=""width:500px;"">
                            <p style=""font-size:50px; font-weight:bold;""
                            >disturbing</p>
                            <div style=""width:240px; margin: auto;"">
                                <img src=""images/Y_L_S_07.png"" style= ""width:200px""alt=""img"">
                            </div>
                        </div>","35","","0","images/Y_L_S_07.png","","","","disturbing","1","07","Y","L","S","",""
"","","","","","html-slider-response","163","227005","0.0-159.0","8x6sr29jqv","6","NaN","<div style=""width:500px;"">
                            <p style=""font-size:50px; font-weight:bold;""
                            >disturbing</p>
                            <div style=""width:240px; margin: auto;"">
                                <img src=""images/B_L_S_41.png"" style= ""width:200px""alt=""img"">
                            </div>
                        </div>","-28","","0","images/B_L_S_41.png","","","","disturbing","2","41","B","L","S","",""
"","","","","","html-slider-response","164","227989","0.0-160.0","8x6sr29jqv","6","NaN","<div style=""width:500px;"">
                            <p style=""font-size:50px; font-weight:bold;""
                            >disturbing</p>
                            <div style=""width:240px; margin: auto;"">
                                <img src=""images/Y_D_S_12.png"" style= ""width:200px""alt=""img"">
                            </div>
                        </div>","-32","","0","images/Y_D_S_12.png","","","","disturbing","2","12","Y","D","S","",""
"","","","","","html-slider-response","165","229089","0.0-161.0","8x6sr29jqv","6","NaN","<div style=""width:500px;"">
                            <p style=""font-size:50px; font-weight:bold;""
                            >disturbing</p>
                            <div style=""width:240px; margin: auto;"">
                                <img src=""images/G_D_U_37.png"" style= ""width:200px""alt=""img"">
                            </div>
                        </div>","-35","","0","images/G_D_U_37.png","","","","disturbing","2","37","G","D","U","",""
"","","","","","html-slider-response","166","230106","0.0-162.0","8x6sr29jqv","6","NaN","<div style=""width:500px;"">
                            <p style=""font-size:50px; font-weight:bold;""
                            >disturbing</p>
                            <div style=""width:240px; margin: auto;"">
                                <img src=""images/Y_L_S_07.png"" style= ""width:200px""alt=""img"">
                            </div>
                        </div>","20","","0","images/Y_L_S_07.png","","","","disturbing","2","07","Y","L","S","",""
"","","","","","html-slider-response","167","231056","0.0-163.0","8x6sr29jqv","6","NaN","<div style=""width:500px;"">
                            <p style=""font-size:50px; font-weight:bold;""
                            >disturbing</p>
                            <div style=""width:240px; margin: auto;"">
                                <img src=""images/B_L_S_41.png"" style= ""width:200px""alt=""img"">
                            </div>
                        </div>","-42","","0","images/B_L_S_41.png","","","","disturbing","1","41","B","L","S","",""
"","","","","","html-slider-response","168","231973","0.0-164.0","8x6sr29jqv","6","NaN","<div style=""width:500px;"">
                            <p style=""font-size:50px; font-weight:bold;""
                            >disturbing</p>
                            <div style=""width:240px; margin: auto;"">
                                <img src=""images/R_D_S_26.png"" style= ""width:200px""alt=""img"">
                            </div>
                        </div>","23","","0","images/R_D_S_26.png","","","","disturbing","1","26","R","D","S","",""
"","","","","","html-slider-response","169","232906","0.0-165.0","8x6sr29jqv","6","NaN","<div style=""width:500px;"">
                            <p style=""font-size:50px; font-weight:bold;""
                            >disturbing</p>
                            <div style=""width:240px; margin: auto;"">
                                <img src=""images/B_D_S_02.png"" style= ""width:200px""alt=""img"">
                            </div>
                        </div>","-30","","0","images/B_D_S_02.png","","","","disturbing","1","02","B","D","S","",""
"","","","","","html-slider-response","170","233806","0.0-166.0","8x6sr29jqv","6","NaN","<div style=""width:500px;"">
                            <p style=""font-size:50px; font-weight:bold;""
                            >disturbing</p>
                            <div style=""width:240px; margin: auto;"">
                                <img src=""images/G_L_S_28.png"" style= ""width:200px""alt=""img"">
                            </div>
                        </div>","-30","","0","images/G_L_S_28.png","","","","disturbing","2","28","G","L","S","",""
"","","","","","html-slider-response","171","234739","0.0-167.0","8x6sr29jqv","6","NaN","<div style=""width:500px;"">
                            <p style=""font-size:50px; font-weight:bold;""
                            >disturbing</p>
                            <div style=""width:240px; margin: auto;"">
                                <img src=""images/Y_D_U_13.png"" style= ""width:200px""alt=""img"">
                            </div>
                        </div>","-30","","0","images/Y_D_U_13.png","","","","disturbing","2","13","Y","D","U","",""
"","","","","","html-slider-response","172","235673","0.0-168.0","8x6sr29jqv","6","NaN","<div style=""width:500px;"">
                            <p style=""font-size:50px; font-weight:bold;""
                            >disturbing</p>
                            <div style=""width:240px; margin: auto;"">
                                <img src=""images/G_D_U_37.png"" style= ""width:200px""alt=""img"">
                            </div>
                        </div>","-30","","0","images/G_D_U_37.png","","","","disturbing","1","37","G","D","U","",""
"","","","","","html-slider-response","173","236556","0.0-169.0","8x6sr29jqv","6","NaN","<div style=""width:500px;"">
                            <p style=""font-size:50px; font-weight:bold;""
                            >disturbing</p>
                            <div style=""width:240px; margin: auto;"">
                                <img src=""images/G_D_S_33.png"" style= ""width:200px""alt=""img"">
                            </div>
                        </div>","-30","","0","images/G_D_S_33.png","","","","disturbing","1","33","G","D","S","",""
"","","","","","html-slider-response","174","237339","0.0-170.0","8x6sr29jqv","6","NaN","<div style=""width:500px;"">
                            <p style=""font-size:50px; font-weight:bold;""
                            >disturbing</p>
                            <div style=""width:240px; margin: auto;"">
                                <img src=""images/R_L_U_23.png"" style= ""width:200px""alt=""img"">
                            </div>
                        </div>","-30","","0","images/R_L_U_23.png","","","","disturbing","2","23","R","L","U","",""
"","","","","","html-slider-response","175","238205","0.0-171.0","8x6sr29jqv","6","NaN","<div style=""width:500px;"">
                            <p style=""font-size:50px; font-weight:bold;""
                            >disturbing</p>
                            <div style=""width:240px; margin: auto;"">
                                <img src=""images/R_D_U_27.png"" style= ""width:200px""alt=""img"">
                            </div>
                        </div>","-30","","0","images/R_D_U_27.png","","","","disturbing","2","27","R","D","U","",""
"","","","","","html-slider-response","176","239323","0.0-172.0","8x6sr29jqv","6","NaN","<div style=""width:500px;"">
                            <p style=""font-size:50px; font-weight:bold;""
                            >disturbing</p>
                            <div style=""width:240px; margin: auto;"">
                                <img src=""images/Y_D_S_12.png"" style= ""width:200px""alt=""img"">
                            </div>
                        </div>","-30","","0","images/Y_D_S_12.png","","","","disturbing","1","12","Y","D","S","",""
"","","","","","html-slider-response","177","240473","0.0-173.0","8x6sr29jqv","6","NaN","<div style=""width:500px;"">
                            <p style=""font-size:50px; font-weight:bold;""
                            >disturbing</p>
                            <div style=""width:240px; margin: auto;"">
                                <img src=""images/B_D_U_05.png"" style= ""width:200px""alt=""img"">
                            </div>
                        </div>","-30","","0","images/B_D_U_05.png","","","","disturbing","2","05","B","D","U","",""
"","","","","","html-slider-response","178","241689","0.0-174.0","8x6sr29jqv","6","NaN","<div style=""width:500px;"">
                            <p style=""font-size:50px; font-weight:bold;""
                            >disturbing</p>
                            <div style=""width:240px; margin: auto;"">
                                <img src=""images/G_L_U_30.png"" style= ""width:200px""alt=""img"">
                            </div>
                        </div>","46","","0","images/G_L_U_30.png","","","","disturbing","1","30","G","L","U","",""
"","","","","","html-slider-response","179","242556","0.0-175.0","8x6sr29jqv","6","NaN","<div style=""width:500px;"">
                            <p style=""font-size:50px; font-weight:bold;""
                            >disturbing</p>
                            <div style=""width:240px; margin: auto;"">
                                <img src=""images/B_D_S_02.png"" style= ""width:200px""alt=""img"">
                            </div>
                        </div>","-13","","0","images/B_D_S_02.png","","","","disturbing","2","02","B","D","S","",""
"","","","","","html-slider-response","180","243455","0.0-176.0","8x6sr29jqv","6","NaN","<div style=""width:500px;"">
                            <p style=""font-size:50px; font-weight:bold;""
                            >disturbing</p>
                            <div style=""width:240px; margin: auto;"">
                                <img src=""images/Y_L_U_10.png"" style= ""width:200px""alt=""img"">
                            </div>
                        </div>","44","","0","images/Y_L_U_10.png","","","","disturbing","1","10","Y","L","U","",""
"","","","","","html-slider-response","181","244222","0.0-177.0","8x6sr29jqv","6","NaN","<div style=""width:500px;"">
                            <p style=""font-size:50px; font-weight:bold;""
                            >disturbing</p>
                            <div style=""width:240px; margin: auto;"">
                                <img src=""images/Y_L_U_10.png"" style= ""width:200px""alt=""img"">
                            </div>
                        </div>","-44","","0","images/Y_L_U_10.png","","","","disturbing","2","10","Y","L","U","",""
"","","","","","html-slider-response","182","244956","0.0-178.0","8x6sr29jqv","6","NaN","<div style=""width:500px;"">
                            <p style=""font-size:50px; font-weight:bold;""
                            >disturbing</p>
                            <div style=""width:240px; margin: auto;"">
                                <img src=""images/R_L_U_23.png"" style= ""width:200px""alt=""img"">
                            </div>
                        </div>","-39","","0","images/R_L_U_23.png","","","","disturbing","1","23","R","L","U","",""
"","","","","","html-slider-response","183","245739","0.0-179.0","8x6sr29jqv","6","NaN","<div style=""width:500px;"">
                            <p style=""font-size:50px; font-weight:bold;""
                            >disturbing</p>
                            <div style=""width:240px; margin: auto;"">
                                <img src=""images/Y_D_U_13.png"" style= ""width:200px""alt=""img"">
                            </div>
                        </div>","-39","","0","images/Y_D_U_13.png","","","","disturbing","1","13","Y","D","U","",""
"","","","","","html-slider-response","184","246439","0.0-180.0","8x6sr29jqv","6","NaN","<div style=""width:500px;"">
                            <p style=""font-size:50px; font-weight:bold;""
                            >disturbing</p>
                            <div style=""width:240px; margin: auto;"">
                                <img src=""images/R_L_S_15.png"" style= ""width:200px""alt=""img"">
                            </div>
                        </div>","-39","","0","images/R_L_S_15.png","","","","disturbing","1","15","R","L","S","",""
"","","","","","html-slider-response","185","247190","0.0-181.0","8x6sr29jqv","6","NaN","<div style=""width:500px;"">
                            <p style=""font-size:50px; font-weight:bold;""
                            >disturbing</p>
