"success","timeout","failed_images","failed_audio","failed_video","trial_type","trial_index","time_elapsed","internal_node_id","subject_id","condition_num","rt","stimulus","response","question_order","slider_start","image_path","practiceTrial","practiceTrialNum","correct","concept","repetition","map_id","hue","lightness","saturation","ishihara_plate","correct_response"
"true","false","[]","[]","[]","preload","0","1494","0.0-0.0","brrdpc1c4s","4","","","","","","","","","","","","","","","","",""
"","","","","","html-button-response","1","5210","0.0-1.0","brrdpc1c4s","4","3713","Welcome to our experiment!<p>At the bottom of this screen, you will see a button that says ""Begin Experiment"".<br>Please only click that button when you are ready to complete the 25 minute experiment in one sitting.</p><p> Once you click that button, it will not be possible to restart the experiment.","0","","","","","","","","","","","","","",""
"true","","","","","fullscreen","2","7494","0.0-2.0","brrdpc1c4s","4","1277","","","","","","","","","","","","","","","",""
"","","","","","survey-multi-select","3","24658","0.0-3.0","brrdpc1c4s","4","17160","","{""Consent"":[""<strong>I consent</strong>""]}","[0]","","","","","","","","","","","","",""
"","","","","","html-button-response","4","29013","0.0-4.0","brrdpc1c4s","4","4351","Welcome! <p> This experiment involves two parts: demographic information, followed by the experimental task.<p> It will take about 25 minutes to complete both parts.","0","","","","","","","","","","","","","",""
"","","","","","survey-text","5","43271","0.0-5.0","brrdpc1c4s","4","14239","","{""Age"":""19"",""Gender"":""male"",""Race/ethnicity"":""white"",""Languages"":""english""}","","","","","","","","","","","","","",""
"","","","","","html-slider-response","6","65003","0.0-6.0","brrdpc1c4s","4","21728","
                            <div style='text-align:left; font-size:20px; line-height:25px; width: 1400px;'>
                                During this experiment you will be asked to rate how much you associate maps with                    different concepts.<br> Below, you can see some examples of the maps you will be asked to rate. Next to the maps
                    is the list of concepts.<br>You will be asked                    to rate how much you associate each map with each concept on a scale from 'not at all' to 'very much' like the
                    one below. <br><br>
                    Now, please look at the list of concepts and maps. For each concept, think about the map you associate 'very
                    much' with the concept.<br>                     When you see that map during the experiment, please rate it near the 'very much' endpoint of the
                    scale.<br>Now, please think about which map you associate 'not at all'                     with each concept. When you see that map during the experiment, please rate it near the 'not at all' endpoint
                    of the scale.<br>
                    Please use the full range of the scale. That is, if a map is somewhat associated with the concept, you would
                    click partway between the middle point and right side of the scale.                    You will be asked to rate each map for a given concept before moving on to the next concept.<br><br>Press the
                    'Continue' button for instructions on how to use the slider.                    <br><br>
                </div>

                <div style=""width: 500px; margin: 0 auto;"">
                    <!-- Centered text paragraphs -->
                    <div style=""text-align: center; width: 500px;"">
                        <p style=""font-size:25px; line-height:18px;"">calm</p>
                        <p style=""font-size:25px; line-height:18px;"">exciting</p>
                        <p style=""font-size:25px;line-height:18px;"">positive</p>
                        <p style=""font-size:25px;line-height:18px;"">negative</p>
                        <p style=""font-size:25px;line-height:18px;"">serious</p>
                        <p style=""font-size:25px;line-height:18px;"">playful</p>
                        <p style=""font-size:25px;line-height:18px;"">trustworthy</p>
                        <p style=""font-size:25px;line-height:18px;"">disturbing</p>
                    </div>

                    <!-- Grid section -->
                   <div style=""display: flex; justify-content: center; padding-top: 15px;"">
                    <div style=""display: grid; grid-template-columns: repeat(8, 80px); grid-gap: 5px; width: auto;"">
                        <img src=""images/Y_D_U_10.png"" alt=""map"" style=""width: 100%;""><img src=""images/Y_L_S_02.png"" alt=""map"" style=""width: 100%;""><img src=""images/B_D_U_44.png"" alt=""map"" style=""width: 100%;""><img src=""images/R_D_U_23.png"" alt=""map"" style=""width: 100%;""><img src=""images/B_D_S_41.png"" alt=""map"" style=""width: 100%;""><img src=""images/B_L_S_33.png"" alt=""map"" style=""width: 100%;""><img src=""images/Y_L_U_05.png"" alt=""map"" style=""width: 100%;""><img src=""images/R_L_U_13.png"" alt=""map"" style=""width: 100%;""><img src=""images/Y_D_S_07.png"" alt=""map"" style=""width: 100%;""><img src=""images/B_L_U_37.png"" alt=""map"" style=""width: 100%;""><img src=""images/G_L_U_27.png"" alt=""map"" style=""width: 100%;""><img src=""images/R_D_S_15.png"" alt=""map"" style=""width: 100%;""><img src=""images/G_D_S_28.png"" alt=""map"" style=""width: 100%;""><img src=""images/R_L_S_12.png"" alt=""map"" style=""width: 100%;""><img src=""images/G_L_S_26.png"" alt=""map"" style=""width: 100%;""><img src=""images/G_D_U_30.png"" alt=""map"" style=""width: 100%;"">
                    </div>
                </div>

                    <!-- Clear floats -->
                    <div style=""clear: both;""></div>
                </div>
                            ","2","","0","maps_anchoring.png","true","","","","","","","","","",""
"","","","","","html-button-response","7","66860","0.0-7.0","brrdpc1c4s","4","1853","<div style=""width:800px;""><p style=""text-align:left"">To move the slider, click and drag your cursor to the location of the scale where you would like to make your rating and then let go. When you let go of the slider, your response will be recorded and the next trial will begin. <br>
                    We are interested in your initial impressions of each map for the given concept, so please go with your first intuition. <br>
                    Before you begin the experiment, there will be four training trials for you to practice using the scale. <br>
                     When you are ready to start the training trials, please click ""Continue"".</p><br></div>","0","","","","","","","","","","","","","",""
"","","","","","html-slider-response","8","72601","0.0-8.0-0.0","brrdpc1c4s","4","NaN","<div style=""width:500px;"">
                                    <p style=""font-size:25px;"">Please move the slider all the way to the <br> right endpoint of the scale</p>

                                    </div>
                                </div>","200","","0","","true","0","true","","","","","","","",""
"","","","","","html-button-response","9","74855","0.0-8.0-1.0","brrdpc1c4s","4","1746","<p align='center'><b>Good job!</b> Click on 'Continue' to proceed.</p>","0","","","","","","","","","","","","","",""
"","","","","","html-slider-response","10","76927","0.0-9.0-0.0","brrdpc1c4s","4","NaN","<div style=""width:500px;"">
                                    <p style=""font-size:25px;"">Please move the slider all the way to the <br> left endpoint of the scale</p>

                                    </div>
                                </div>","-198","","0","","true","1","true","","","","","","","",""
"","","","","","html-button-response","11","78605","0.0-9.0-1.0","brrdpc1c4s","4","1173","<p align='center'><b>Good job!</b> Click on 'Continue' to proceed.</p>","0","","","","","","","","","","","","","",""
"","","","","","html-slider-response","12","82068","0.0-10.0-0.0","brrdpc1c4s","4","NaN","<div style=""width:500px;"">
                                    <p style=""font-size:25px;"">Please move the slider halfway between the center and right endpoint of the scale</p>

                                    </div>
                                </div>","102","","0","","true","2","true","","","","","","","",""
"","","","","","html-button-response","13","83541","0.0-10.0-1.0","brrdpc1c4s","4","961","<p align='center'><b>Good job!</b> Click on 'Continue' to proceed.</p>","0","","","","","","","","","","","","","",""
"","","","","","html-slider-response","14","85418","0.0-11.0-0.0","brrdpc1c4s","4","NaN","<div style=""width:500px;"">
                                    <p style=""font-size:25px;"">Please move the slider halfway between the center and left endpoint of the scale</p>

                                    </div>
                                </div>","-110","","0","","true","3","true","","","","","","","",""
"","","","","","html-button-response","15","86841","0.0-11.0-1.0","brrdpc1c4s","4","920","<p align='center'><b>Good job!</b> Click on 'Continue' to proceed.</p>","0","","","","","","","","","","","","","",""
"","","","","","html-button-response","16","88319","0.0-12.0","brrdpc1c4s","4","1476","<p>Great job! You've completed the practice trials. Now you will begin the main task.</p>","0","","","","","","","","","","","","","",""
"","","","","","html-button-response","17","90474","0.0-13.0","brrdpc1c4s","4","2153","<p>In this block of trials, you will be asked to rate how much you associate each map with:</p > <p style = 'font-size:150%; font-weight: bold'>serious</p><br></br>","0","","","","","","","","","","","","","",""
"","","","","","html-slider-response","18","95195","0.0-14.0","brrdpc1c4s","4","NaN","<div style=""width:500px;"">
                            <p style=""font-size:50px; font-weight:bold;""
                            >serious</p>
                            <div style=""width:240px; margin: auto;"">
                                <img src=""images/Y_L_S_02.png"" style= ""width:200px""alt=""img"">
                            </div>
                        </div>","-197","","0","images/Y_L_S_02.png","","","","serious","1","02","Y","L","S","",""
"","","","","","html-slider-response","19","99372","0.0-15.0","brrdpc1c4s","4","NaN","<div style=""width:500px;"">
                            <p style=""font-size:50px; font-weight:bold;""
                            >serious</p>
                            <div style=""width:240px; margin: auto;"">
                                <img src=""images/B_L_U_37.png"" style= ""width:200px""alt=""img"">
                            </div>
                        </div>","-195","","0","images/B_L_U_37.png","","","","serious","2","37","B","L","U","",""
"","","","","","html-slider-response","20","102535","0.0-16.0","brrdpc1c4s","4","NaN","<div style=""width:500px;"">
                            <p style=""font-size:50px; font-weight:bold;""
                            >serious</p>
                            <div style=""width:240px; margin: auto;"">
                                <img src=""images/R_D_U_23.png"" style= ""width:200px""alt=""img"">
                            </div>
                        </div>","120","","0","images/R_D_U_23.png","","","","serious","2","23","R","D","U","",""
"","","","","","html-slider-response","21","104793","0.0-17.0","brrdpc1c4s","4","NaN","<div style=""width:500px;"">
                            <p style=""font-size:50px; font-weight:bold;""
                            >serious</p>
                            <div style=""width:240px; margin: auto;"">
                                <img src=""images/R_D_U_23.png"" style= ""width:200px""alt=""img"">
                            </div>
                        </div>","106","","0","images/R_D_U_23.png","","","","serious","1","23","R","D","U","",""
"","","","","","html-slider-response","22","109792","0.0-18.0","brrdpc1c4s","4","NaN","<div style=""width:500px;"">
                            <p style=""font-size:50px; font-weight:bold;""
                            >serious</p>
                            <div style=""width:240px; margin: auto;"">
                                <img src=""images/B_D_S_41.png"" style= ""width:200px""alt=""img"">
                            </div>
                        </div>","-106","","0","images/B_D_S_41.png","","","","serious","2","41","B","D","S","",""
"","","","","","html-slider-response","23","113783","0.0-19.0","brrdpc1c4s","4","NaN","<div style=""width:500px;"">
                            <p style=""font-size:50px; font-weight:bold;""
                            >serious</p>
                            <div style=""width:240px; margin: auto;"">
                                <img src=""images/G_D_U_30.png"" style= ""width:200px""alt=""img"">
                            </div>
                        </div>","200","","0","images/G_D_U_30.png","","","","serious","1","30","G","D","U","",""
"","","","","","html-slider-response","24","115587","0.0-20.0","brrdpc1c4s","4","NaN","<div style=""width:500px;"">
                            <p style=""font-size:50px; font-weight:bold;""
                            >serious</p>
                            <div style=""width:240px; margin: auto;"">
                                <img src=""images/G_D_U_30.png"" style= ""width:200px""alt=""img"">
                            </div>
                        </div>","198","","0","images/G_D_U_30.png","","","","serious","2","30","G","D","U","",""
"","","","","","html-slider-response","25","118494","0.0-21.0","brrdpc1c4s","4","NaN","<div style=""width:500px;"">
                            <p style=""font-size:50px; font-weight:bold;""
                            >serious</p>
                            <div style=""width:240px; margin: auto;"">
                                <img src=""images/G_D_S_28.png"" style= ""width:200px""alt=""img"">
                            </div>
                        </div>","-105","","0","images/G_D_S_28.png","","","","serious","2","28","G","D","S","",""
"","","","","","html-slider-response","26","121098","0.0-22.0","brrdpc1c4s","4","NaN","<div style=""width:500px;"">
                            <p style=""font-size:50px; font-weight:bold;""
                            >serious</p>
                            <div style=""width:240px; margin: auto;"">
                                <img src=""images/B_D_U_44.png"" style= ""width:200px""alt=""img"">
                            </div>
                        </div>","-106","","0","images/B_D_U_44.png","","","","serious","1","44","B","D","U","",""
"","","","","","html-slider-response","27","123342","0.0-23.0","brrdpc1c4s","4","NaN","<div style=""width:500px;"">
                            <p style=""font-size:50px; font-weight:bold;""
                            >serious</p>
                            <div style=""width:240px; margin: auto;"">
                                <img src=""images/Y_L_S_02.png"" style= ""width:200px""alt=""img"">
                            </div>
                        </div>","-197","","0","images/Y_L_S_02.png","","","","serious","2","02","Y","L","S","",""
"","","","","","html-slider-response","28","125377","0.0-24.0","brrdpc1c4s","4","NaN","<div style=""width:500px;"">
                            <p style=""font-size:50px; font-weight:bold;""
                            >serious</p>
                            <div style=""width:240px; margin: auto;"">
                                <img src=""images/G_L_S_26.png"" style= ""width:200px""alt=""img"">
                            </div>
                        </div>","-194","","0","images/G_L_S_26.png","","","","serious","1","26","G","L","S","",""
"","","","","","html-slider-response","29","126988","0.0-25.0","brrdpc1c4s","4","NaN","<div style=""width:500px;"">
                            <p style=""font-size:50px; font-weight:bold;""
                            >serious</p>
                            <div style=""width:240px; margin: auto;"">
                                <img src=""images/R_L_S_12.png"" style= ""width:200px""alt=""img"">
                            </div>
                        </div>","-194","","0","images/R_L_S_12.png","","","","serious","1","12","R","L","S","",""
"","","","","","html-slider-response","30","129414","0.0-26.0","brrdpc1c4s","4","NaN","<div style=""width:500px;"">
                            <p style=""font-size:50px; font-weight:bold;""
                            >serious</p>
                            <div style=""width:240px; margin: auto;"">
                                <img src=""images/B_D_S_41.png"" style= ""width:200px""alt=""img"">
                            </div>
                        </div>","-102","","0","images/B_D_S_41.png","","","","serious","1","41","B","D","S","",""
"","","","","","html-slider-response","31","131996","0.0-27.0","brrdpc1c4s","4","NaN","<div style=""width:500px;"">
                            <p style=""font-size:50px; font-weight:bold;""
                            >serious</p>
                            <div style=""width:240px; margin: auto;"">
                                <img src=""images/Y_D_U_10.png"" style= ""width:200px""alt=""img"">
                            </div>
                        </div>","198","","0","images/Y_D_U_10.png","","","","serious","2","10","Y","D","U","",""
"","","","","","html-slider-response","32","134426","0.0-28.0","brrdpc1c4s","4","NaN","<div style=""width:500px;"">
                            <p style=""font-size:50px; font-weight:bold;""
                            >serious</p>
                            <div style=""width:240px; margin: auto;"">
                                <img src=""images/G_L_U_27.png"" style= ""width:200px""alt=""img"">
                            </div>
                        </div>","-192","","0","images/G_L_U_27.png","","","","serious","2","27","G","L","U","",""
"","","","","","html-slider-response","33","135795","0.0-29.0","brrdpc1c4s","4","NaN","<div style=""width:500px;"">
                            <p style=""font-size:50px; font-weight:bold;""
                            >serious</p>
                            <div style=""width:240px; margin: auto;"">
                                <img src=""images/B_L_U_37.png"" style= ""width:200px""alt=""img"">
                            </div>
                        </div>","-192","","0","images/B_L_U_37.png","","","","serious","1","37","B","L","U","",""
"","","","","","html-slider-response","34","138487","0.0-30.0","brrdpc1c4s","4","NaN","<div style=""width:500px;"">
                            <p style=""font-size:50px; font-weight:bold;""
                            >serious</p>
                            <div style=""width:240px; margin: auto;"">
                                <img src=""images/Y_D_S_07.png"" style= ""width:200px""alt=""img"">
                            </div>
                        </div>","109","","0","images/Y_D_S_07.png","","","","serious","1","07","Y","D","S","",""
"","","","","","html-slider-response","35","140969","0.0-31.0","brrdpc1c4s","4","NaN","<div style=""width:500px;"">
                            <p style=""font-size:50px; font-weight:bold;""
                            >serious</p>
                            <div style=""width:240px; margin: auto;"">
                                <img src=""images/B_D_U_44.png"" style= ""width:200px""alt=""img"">
                            </div>
                        </div>","115","","0","images/B_D_U_44.png","","","","serious","2","44","B","D","U","",""
"","","","","","html-slider-response","36","143431","0.0-32.0","brrdpc1c4s","4","NaN","<div style=""width:500px;"">
                            <p style=""font-size:50px; font-weight:bold;""
                            >serious</p>
                            <div style=""width:240px; margin: auto;"">
                                <img src=""images/Y_L_U_05.png"" style= ""width:200px""alt=""img"">
                            </div>
                        </div>","-194","","0","images/Y_L_U_05.png","","","","serious","2","05","Y","L","U","",""
"","","","","","html-slider-response","37","144842","0.0-33.0","brrdpc1c4s","4","NaN","<div style=""width:500px;"">
                            <p style=""font-size:50px; font-weight:bold;""
                            >serious</p>
                            <div style=""width:240px; margin: auto;"">
                                <img src=""images/R_D_S_15.png"" style= ""width:200px""alt=""img"">
                            </div>
                        </div>","-194","","0","images/R_D_S_15.png","","","","serious","2","15","R","D","S","",""
"","","","","","html-slider-response","38","146127","0.0-34.0","brrdpc1c4s","4","NaN","<div style=""width:500px;"">
                            <p style=""font-size:50px; font-weight:bold;""
                            >serious</p>
                            <div style=""width:240px; margin: auto;"">
                                <img src=""images/B_L_S_33.png"" style= ""width:200px""alt=""img"">
                            </div>
                        </div>","-194","","0","images/B_L_S_33.png","","","","serious","2","33","B","L","S","",""
"","","","","","html-slider-response","39","147533","0.0-35.0","brrdpc1c4s","4","NaN","<div style=""width:500px;"">
                            <p style=""font-size:50px; font-weight:bold;""
                            >serious</p>
                            <div style=""width:240px; margin: auto;"">
                                <img src=""images/R_D_S_15.png"" style= ""width:200px""alt=""img"">
                            </div>
                        </div>","-194","","0","images/R_D_S_15.png","","","","serious","1","15","R","D","S","",""
"","","","","","html-slider-response","40","149875","0.0-36.0","brrdpc1c4s","4","NaN","<div style=""width:500px;"">
                            <p style=""font-size:50px; font-weight:bold;""
                            >serious</p>
                            <div style=""width:240px; margin: auto;"">
                                <img src=""images/G_D_S_28.png"" style= ""width:200px""alt=""img"">
                            </div>
                        </div>","108","","0","images/G_D_S_28.png","","","","serious","1","28","G","D","S","",""
"","","","","","html-slider-response","41","152048","0.0-37.0","brrdpc1c4s","4","NaN","<div style=""width:500px;"">
                            <p style=""font-size:50px; font-weight:bold;""
                            >serious</p>
                            <div style=""width:240px; margin: auto;"">
                                <img src=""images/G_L_U_27.png"" style= ""width:200px""alt=""img"">
                            </div>
                        </div>","-197","","0","images/G_L_U_27.png","","","","serious","1","27","G","L","U","",""
"","","","","","html-slider-response","42","153270","0.0-38.0","brrdpc1c4s","4","NaN","<div style=""width:500px;"">
                            <p style=""font-size:50px; font-weight:bold;""
                            >serious</p>
                            <div style=""width:240px; margin: auto;"">
                                <img src=""images/R_L_S_12.png"" style= ""width:200px""alt=""img"">
                            </div>
                        </div>","-197","","0","images/R_L_S_12.png","","","","serious","2","12","R","L","S","",""
"","","","","","html-slider-response","43","154505","0.0-39.0","brrdpc1c4s","4","NaN","<div style=""width:500px;"">
                            <p style=""font-size:50px; font-weight:bold;""
                            >serious</p>
                            <div style=""width:240px; margin: auto;"">
                                <img src=""images/Y_L_U_05.png"" style= ""width:200px""alt=""img"">
                            </div>
                        </div>","-197","","0","images/Y_L_U_05.png","","","","serious","1","05","Y","L","U","",""
"","","","","","html-slider-response","44","156871","0.0-40.0","brrdpc1c4s","4","NaN","<div style=""width:500px;"">
                            <p style=""font-size:50px; font-weight:bold;""
                            >serious</p>
                            <div style=""width:240px; margin: auto;"">
                                <img src=""images/Y_D_U_10.png"" style= ""width:200px""alt=""img"">
                            </div>
                        </div>","198","","0","images/Y_D_U_10.png","","","","serious","1","10","Y","D","U","",""
"","","","","","html-slider-response","45","158930","0.0-41.0","brrdpc1c4s","4","NaN","<div style=""width:500px;"">
                            <p style=""font-size:50px; font-weight:bold;""
                            >serious</p>
                            <div style=""width:240px; margin: auto;"">
                                <img src=""images/Y_D_S_07.png"" style= ""width:200px""alt=""img"">
                            </div>
                        </div>","96","","0","images/Y_D_S_07.png","","","","serious","2","07","Y","D","S","",""
"","","","","","html-slider-response","46","160887","0.0-42.0","brrdpc1c4s","4","NaN","<div style=""width:500px;"">
                            <p style=""font-size:50px; font-weight:bold;""
                            >serious</p>
                            <div style=""width:240px; margin: auto;"">
                                <img src=""images/R_L_U_13.png"" style= ""width:200px""alt=""img"">
                            </div>
                        </div>","-198","","0","images/R_L_U_13.png","","","","serious","1","13","R","L","U","",""
"","","","","","html-slider-response","47","162058","0.0-43.0","brrdpc1c4s","4","NaN","<div style=""width:500px;"">
                            <p style=""font-size:50px; font-weight:bold;""
                            >serious</p>
                            <div style=""width:240px; margin: auto;"">
                                <img src=""images/G_L_S_26.png"" style= ""width:200px""alt=""img"">
                            </div>
                        </div>","-198","","0","images/G_L_S_26.png","","","","serious","2","26","G","L","S","",""
"","","","","","html-slider-response","48","163209","0.0-44.0","brrdpc1c4s","4","NaN","<div style=""width:500px;"">
                            <p style=""font-size:50px; font-weight:bold;""
                            >serious</p>
                            <div style=""width:240px; margin: auto;"">
                                <img src=""images/B_L_S_33.png"" style= ""width:200px""alt=""img"">
                            </div>
                        </div>","-198","","0","images/B_L_S_33.png","","","","serious","1","33","B","L","S","",""
"","","","","","html-slider-response","49","164484","0.0-45.0","brrdpc1c4s","4","NaN","<div style=""width:500px;"">
                            <p style=""font-size:50px; font-weight:bold;""
                            >serious</p>
                            <div style=""width:240px; margin: auto;"">
                                <img src=""images/R_L_U_13.png"" style= ""width:200px""alt=""img"">
                            </div>
                        </div>","-198","","0","images/R_L_U_13.png","","","","serious","2","13","R","L","U","",""
"","","","","","html-button-response","50","166986","0.0-46.0","brrdpc1c4s","4","1993","<p>Great Job! You've finished block 1.<br></br> You have 7 block(s) left to go.<br></br></p>","0","","","","","","","","","","","","","",""
"","","","","","html-button-response","51","168151","0.0-47.0","brrdpc1c4s","4","1163","<p>In this block of trials, you will be asked to rate how much you associate each map with:</p > <p style = 'font-size:150%; font-weight: bold'>calm</p><br></br>","0","","","","","","","","","","","","","",""
"","","","","","html-slider-response","52","171448","0.0-48.0","brrdpc1c4s","4","NaN","<div style=""width:500px;"">
                            <p style=""font-size:50px; font-weight:bold;""
                            >calm</p>
                            <div style=""width:240px; margin: auto;"">
                                <img src=""images/Y_L_U_05.png"" style= ""width:200px""alt=""img"">
                            </div>
                        </div>","107","","0","images/Y_L_U_05.png","","","","calm","1","05","Y","L","U","",""
"","","","","","html-slider-response","53","173328","0.0-49.0","brrdpc1c4s","4","NaN","<div style=""width:500px;"">
                            <p style=""font-size:50px; font-weight:bold;""
                            >calm</p>
                            <div style=""width:240px; margin: auto;"">
                                <img src=""images/R_L_U_13.png"" style= ""width:200px""alt=""img"">
                            </div>
                        </div>","107","","0","images/R_L_U_13.png","","","","calm","1","13","R","L","U","",""
"","","","","","html-slider-response","54","175877","0.0-50.0","brrdpc1c4s","4","NaN","<div style=""width:500px;"">
                            <p style=""font-size:50px; font-weight:bold;""
                            >calm</p>
                            <div style=""width:240px; margin: auto;"">
                                <img src=""images/G_D_S_28.png"" style= ""width:200px""alt=""img"">
                            </div>
                        </div>","-110","","0","images/G_D_S_28.png","","","","calm","1","28","G","D","S","",""
"","","","","","html-slider-response","55","177984","0.0-51.0","brrdpc1c4s","4","NaN","<div style=""width:500px;"">
                            <p style=""font-size:50px; font-weight:bold;""
                            >calm</p>
                            <div style=""width:240px; margin: auto;"">
                                <img src=""images/G_L_S_26.png"" style= ""width:200px""alt=""img"">
                            </div>
                        </div>","197","","0","images/G_L_S_26.png","","","","calm","1","26","G","L","S","",""
"","","","","","html-slider-response","56","179958","0.0-52.0","brrdpc1c4s","4","NaN","<div style=""width:500px;"">
                            <p style=""font-size:50px; font-weight:bold;""
                            >calm</p>
                            <div style=""width:240px; margin: auto;"">
                                <img src=""images/B_D_S_41.png"" style= ""width:200px""alt=""img"">
                            </div>
                        </div>","113","","0","images/B_D_S_41.png","","","","calm","1","41","B","D","S","",""
"","","","","","html-slider-response","57","182149","0.0-53.0","brrdpc1c4s","4","NaN","<div style=""width:500px;"">
                            <p style=""font-size:50px; font-weight:bold;""
                            >calm</p>
                            <div style=""width:240px; margin: auto;"">
                                <img src=""images/B_D_U_44.png"" style= ""width:200px""alt=""img"">
                            </div>
                        </div>","-114","","0","images/B_D_U_44.png","","","","calm","2","44","B","D","U","",""
"","","","","","html-slider-response","58","184390","0.0-54.0","brrdpc1c4s","4","NaN","<div style=""width:500px;"">
                            <p style=""font-size:50px; font-weight:bold;""
                            >calm</p>
                            <div style=""width:240px; margin: auto;"">
                                <img src=""images/B_L_S_33.png"" style= ""width:200px""alt=""img"">
                            </div>
                        </div>","199","","0","images/B_L_S_33.png","","","","calm","1","33","B","L","S","",""
"","","","","","html-slider-response","59","186317","0.0-55.0","brrdpc1c4s","4","NaN","<div style=""width:500px;"">
                            <p style=""font-size:50px; font-weight:bold;""
                            >calm</p>
                            <div style=""width:240px; margin: auto;"">
                                <img src=""images/Y_D_U_10.png"" style= ""width:200px""alt=""img"">
                            </div>
                        </div>","-194","","0","images/Y_D_U_10.png","","","","calm","2","10","Y","D","U","",""
"","","","","","html-slider-response","60","189778","0.0-56.0","brrdpc1c4s","4","NaN","<div style=""width:500px;"">
                            <p style=""font-size:50px; font-weight:bold;""
                            >calm</p>
                            <div style=""width:240px; margin: auto;"">
                                <img src=""images/R_L_S_12.png"" style= ""width:200px""alt=""img"">
                            </div>
                        </div>","198","","0","images/R_L_S_12.png","","","","calm","2","12","R","L","S","",""
"","","","","","html-slider-response","61","191773","0.0-57.0","brrdpc1c4s","4","NaN","<div style=""width:500px;"">
                            <p style=""font-size:50px; font-weight:bold;""
                            >calm</p>
                            <div style=""width:240px; margin: auto;"">
                                <img src=""images/R_D_U_23.png"" style= ""width:200px""alt=""img"">
                            </div>
                        </div>","-198","","0","images/R_D_U_23.png","","","","calm","1","23","R","D","U","",""
"","","","","","html-slider-response","62","193148","0.0-58.0","brrdpc1c4s","4","NaN","<div style=""width:500px;"">
                            <p style=""font-size:50px; font-weight:bold;""
                            >calm</p>
                            <div style=""width:240px; margin: auto;"">
                                <img src=""images/Y_D_S_07.png"" style= ""width:200px""alt=""img"">
                            </div>
                        </div>","-198","","0","images/Y_D_S_07.png","","","","calm","1","07","Y","D","S","",""
"","","","","","html-slider-response","63","195428","0.0-59.0","brrdpc1c4s","4","NaN","<div style=""width:500px;"">
                            <p style=""font-size:50px; font-weight:bold;""
                            >calm</p>
                            <div style=""width:240px; margin: auto;"">
                                <img src=""images/G_L_S_26.png"" style= ""width:200px""alt=""img"">
                            </div>
                        </div>","193","","0","images/G_L_S_26.png","","","","calm","2","26","G","L","S","",""
"","","","","","html-slider-response","64","197632","0.0-60.0","brrdpc1c4s","4","NaN","<div style=""width:500px;"">
                            <p style=""font-size:50px; font-weight:bold;""
                            >calm</p>
                            <div style=""width:240px; margin: auto;"">
                                <img src=""images/Y_L_S_02.png"" style= ""width:200px""alt=""img"">
                            </div>
                        </div>","105","","0","images/Y_L_S_02.png","","","","calm","1","02","Y","L","S","",""
"","","","","","html-slider-response","65","199652","0.0-61.0","brrdpc1c4s","4","NaN","<div style=""width:500px;"">
                            <p style=""font-size:50px; font-weight:bold;""
                            >calm</p>
                            <div style=""width:240px; margin: auto;"">
                                <img src=""images/B_D_U_44.png"" style= ""width:200px""alt=""img"">
                            </div>
                        </div>","-119","","0","images/B_D_U_44.png","","","","calm","1","44","B","D","U","",""
"","","","","","html-slider-response","66","201877","0.0-62.0","brrdpc1c4s","4","NaN","<div style=""width:500px;"">
                            <p style=""font-size:50px; font-weight:bold;""
                            >calm</p>
                            <div style=""width:240px; margin: auto;"">
                                <img src=""images/B_L_U_37.png"" style= ""width:200px""alt=""img"">
                            </div>
                        </div>","194","","0","images/B_L_U_37.png","","","","calm","1","37","B","L","U","",""
"","","","","","html-slider-response","67","204133","0.0-63.0","brrdpc1c4s","4","NaN","<div style=""width:500px;"">
                            <p style=""font-size:50px; font-weight:bold;""
                            >calm</p>
                            <div style=""width:240px; margin: auto;"">
                                <img src=""images/R_D_U_23.png"" style= ""width:200px""alt=""img"">
                            </div>
                        </div>","-192","","0","images/R_D_U_23.png","","","","calm","2","23","R","D","U","",""
"","","","","","html-slider-response","68","206251","0.0-64.0","brrdpc1c4s","4","NaN","<div style=""width:500px;"">
                            <p style=""font-size:50px; font-weight:bold;""
                            >calm</p>
                            <div style=""width:240px; margin: auto;"">
                                <img src=""images/B_D_S_41.png"" style= ""width:200px""alt=""img"">
                            </div>
                        </div>","109","","0","images/B_D_S_41.png","","","","calm","2","41","B","D","S","",""
"","","","","","html-slider-response","69","208949","0.0-65.0","brrdpc1c4s","4","NaN","<div style=""width:500px;"">
                            <p style=""font-size:50px; font-weight:bold;""
                            >calm</p>
                            <div style=""width:240px; margin: auto;"">
                                <img src=""images/Y_D_S_07.png"" style= ""width:200px""alt=""img"">
                            </div>
                        </div>","-194","","0","images/Y_D_S_07.png","","","","calm","2","07","Y","D","S","",""
"","","","","","html-slider-response","70","210875","0.0-66.0","brrdpc1c4s","4","NaN","<div style=""width:500px;"">
                            <p style=""font-size:50px; font-weight:bold;""
                            >calm</p>
                            <div style=""width:240px; margin: auto;"">
                                <img src=""images/R_L_U_13.png"" style= ""width:200px""alt=""img"">
                            </div>
                        </div>","198","","0","images/R_L_U_13.png","","","","calm","2","13","R","L","U","",""
"","","","","","html-slider-response","71","212652","0.0-67.0","brrdpc1c4s","4","NaN","<div style=""width:500px;"">
                            <p style=""font-size:50px; font-weight:bold;""
                            >calm</p>
                            <div style=""width:240px; margin: auto;"">
                                <img src=""images/Y_L_S_02.png"" style= ""width:200px""alt=""img"">
                            </div>
                        </div>","114","","0","images/Y_L_S_02.png","","","","calm","2","02","Y","L","S","",""
"","","","","","html-slider-response","72","214763","0.0-68.0","brrdpc1c4s","4","NaN","<div style=""width:500px;"">
                            <p style=""font-size:50px; font-weight:bold;""
                            >calm</p>
                            <div style=""width:240px; margin: auto;"">
                                <img src=""images/G_L_U_27.png"" style= ""width:200px""alt=""img"">
                            </div>
                        </div>","195","","0","images/G_L_U_27.png","","","","calm","1","27","G","L","U","",""
"","","","","","html-slider-response","73","216373","0.0-69.0","brrdpc1c4s","4","NaN","<div style=""width:500px;"">
                            <p style=""font-size:50px; font-weight:bold;""
                            >calm</p>
                            <div style=""width:240px; margin: auto;"">
                                <img src=""images/B_L_S_33.png"" style= ""width:200px""alt=""img"">
                            </div>
                        </div>","197","","0","images/B_L_S_33.png","","","","calm","2","33","B","L","S","",""
"","","","","","html-slider-response","74","218452","0.0-70.0","brrdpc1c4s","4","NaN","<div style=""width:500px;"">
                            <p style=""font-size:50px; font-weight:bold;""
                            >calm</p>
                            <div style=""width:240px; margin: auto;"">
                                <img src=""images/G_D_U_30.png"" style= ""width:200px""alt=""img"">
                            </div>
                        </div>","-198","","0","images/G_D_U_30.png","","","","calm","1","30","G","D","U","",""
"","","","","","html-slider-response","75","220742","0.0-71.0","brrdpc1c4s","4","NaN","<div style=""width:500px;"">
                            <p style=""font-size:50px; font-weight:bold;""
                            >calm</p>
                            <div style=""width:240px; margin: auto;"">
                                <img src=""images/R_D_S_15.png"" style= ""width:200px""alt=""img"">
                            </div>
                        </div>","-112","","0","images/R_D_S_15.png","","","","calm","2","15","R","D","S","",""
"","","","","","html-slider-response","76","222611","0.0-72.0","brrdpc1c4s","4","NaN","<div style=""width:500px;"">
                            <p style=""font-size:50px; font-weight:bold;""
                            >calm</p>
                            <div style=""width:240px; margin: auto;"">
                                <img src=""images/Y_L_U_05.png"" style= ""width:200px""alt=""img"">
                            </div>
                        </div>","124","","0","images/Y_L_U_05.png","","","","calm","2","05","Y","L","U","",""
"","","","","","html-slider-response","77","224136","0.0-73.0","brrdpc1c4s","4","NaN","<div style=""width:500px;"">
                            <p style=""font-size:50px; font-weight:bold;""
                            >calm</p>
                            <div style=""width:240px; margin: auto;"">
                                <img src=""images/R_L_S_12.png"" style= ""width:200px""alt=""img"">
                            </div>
                        </div>","124","","0","images/R_L_S_12.png","","","","calm","1","12","R","L","S","",""
"","","","","","html-slider-response","78","227290","0.0-74.0","brrdpc1c4s","4","NaN","<div style=""width:500px;"">
                            <p style=""font-size:50px; font-weight:bold;""
                            >calm</p>
                            <div style=""width:240px; margin: auto;"">
                                <img src=""images/R_D_S_15.png"" style= ""width:200px""alt=""img"">
                            </div>
                        </div>","-2","","0","images/R_D_S_15.png","","","","calm","1","15","R","D","S","",""
"","","","","","html-slider-response","79","229677","0.0-75.0","brrdpc1c4s","4","NaN","<div style=""width:500px;"">
                            <p style=""font-size:50px; font-weight:bold;""
                            >calm</p>
                            <div style=""width:240px; margin: auto;"">
                                <img src=""images/G_L_U_27.png"" style= ""width:200px""alt=""img"">
                            </div>
                        </div>","198","","0","images/G_L_U_27.png","","","","calm","2","27","G","L","U","",""
"","","","","","html-slider-response","80","232549","0.0-76.0","brrdpc1c4s","4","NaN","<div style=""width:500px;"">
                            <p style=""font-size:50px; font-weight:bold;""
                            >calm</p>
                            <div style=""width:240px; margin: auto;"">
                                <img src=""images/G_D_S_28.png"" style= ""width:200px""alt=""img"">
                            </div>
                        </div>","-98","","0","images/G_D_S_28.png","","","","calm","2","28","G","D","S","",""
"","","","","","html-slider-response","81","234664","0.0-77.0","brrdpc1c4s","4","NaN","<div style=""width:500px;"">
                            <p style=""font-size:50px; font-weight:bold;""
                            >calm</p>
                            <div style=""width:240px; margin: auto;"">
                                <img src=""images/Y_D_U_10.png"" style= ""width:200px""alt=""img"">
                            </div>
                        </div>","-198","","0","images/Y_D_U_10.png","","","","calm","1","10","Y","D","U","",""
"","","","","","html-slider-response","82","236148","0.0-78.0","brrdpc1c4s","4","NaN","<div style=""width:500px;"">
                            <p style=""font-size:50px; font-weight:bold;""
                            >calm</p>
                            <div style=""width:240px; margin: auto;"">
                                <img src=""images/G_D_U_30.png"" style= ""width:200px""alt=""img"">
                            </div>
                        </div>","-198","","0","images/G_D_U_30.png","","","","calm","2","30","G","D","U","",""
"","","","","","html-slider-response","83","237989","0.0-79.0","brrdpc1c4s","4","NaN","<div style=""width:500px;"">
                            <p style=""font-size:50px; font-weight:bold;""
                            >calm</p>
                            <div style=""width:240px; margin: auto;"">
                                <img src=""images/B_L_U_37.png"" style= ""width:200px""alt=""img"">
                            </div>
                        </div>","194","","0","images/B_L_U_37.png","","","","calm","2","37","B","L","U","",""
"","","","","","html-button-response","84","239694","0.0-80.0","brrdpc1c4s","4","1200","<p>Great Job! You've finished block 2.<br></br> You have 6 block(s) left to go.<br></br></p>","0","","","","","","","","","","","","","",""
"","","","","","html-button-response","85","240630","0.0-81.0","brrdpc1c4s","4","935","<p>In this block of trials, you will be asked to rate how much you associate each map with:</p > <p style = 'font-size:150%; font-weight: bold'>exciting</p><br></br>","0","","","","","","","","","","","","","",""
"","","","","","html-slider-response","86","244815","0.0-82.0","brrdpc1c4s","4","NaN","<div style=""width:500px;"">
                            <p style=""font-size:50px; font-weight:bold;""
                            >exciting</p>
                            <div style=""width:240px; margin: auto;"">
                                <img src=""images/B_L_U_37.png"" style= ""width:200px""alt=""img"">
                            </div>
                        </div>","0","","0","images/B_L_U_37.png","","","","exciting","1","37","B","L","U","",""
"","","","","","html-slider-response","87","246793","0.0-83.0","brrdpc1c4s","4","NaN","<div style=""width:500px;"">
                            <p style=""font-size:50px; font-weight:bold;""
                            >exciting</p>
                            <div style=""width:240px; margin: auto;"">
                                <img src=""images/B_D_U_44.png"" style= ""width:200px""alt=""img"">
                            </div>
                        </div>","106","","0","images/B_D_U_44.png","","","","exciting","2","44","B","D","U","",""
"","","","","","html-slider-response","88","248238","0.0-84.0","brrdpc1c4s","4","NaN","<div style=""width:500px;"">
                            <p style=""font-size:50px; font-weight:bold;""
                            >exciting</p>
                            <div style=""width:240px; margin: auto;"">
                                <img src=""images/R_D_U_23.png"" style= ""width:200px""alt=""img"">
                            </div>
                        </div>","106","","0","images/R_D_U_23.png","","","","exciting","1","23","R","D","U","",""
"","","","","","html-slider-response","89","251147","0.0-85.0","brrdpc1c4s","4","NaN","<div style=""width:500px;"">
                            <p style=""font-size:50px; font-weight:bold;""
                            >exciting</p>
                            <div style=""width:240px; margin: auto;"">
                                <img src=""images/B_L_U_37.png"" style= ""width:200px""alt=""img"">
                            </div>
                        </div>","-102","","0","images/B_L_U_37.png","","","","exciting","2","37","B","L","U","",""
"","","","","","html-slider-response","90","252657","0.0-86.0","brrdpc1c4s","4","NaN","<div style=""width:500px;"">
                            <p style=""font-size:50px; font-weight:bold;""
                            >exciting</p>
                            <div style=""width:240px; margin: auto;"">
                                <img src=""images/Y_L_U_05.png"" style= ""width:200px""alt=""img"">
                            </div>
                        </div>","-102","","0","images/Y_L_U_05.png","","","","exciting","1","05","Y","L","U","",""
"","","","","","html-slider-response","91","255627","0.0-87.0","brrdpc1c4s","4","NaN","<div style=""width:500px;"">
                            <p style=""font-size:50px; font-weight:bold;""
                            >exciting</p>
                            <div style=""width:240px; margin: auto;"">
                                <img src=""images/R_L_U_13.png"" style= ""width:200px""alt=""img"">
                            </div>
                        </div>","-192","","0","images/R_L_U_13.png","","","","exciting","1","13","R","L","U","",""
"","","","","","html-slider-response","92","257237","0.0-88.0","brrdpc1c4s","4","NaN","<div style=""width:500px;"">
                            <p style=""font-size:50px; font-weight:bold;""
                            >exciting</p>
                            <div style=""width:240px; margin: auto;"">
                                <img src=""images/Y_L_S_02.png"" style= ""width:200px""alt=""img"">
                            </div>
                        </div>","-192","","0","images/Y_L_S_02.png","","","","exciting","1","02","Y","L","S","",""
"","","","","","html-slider-response","93","259630","0.0-89.0","brrdpc1c4s","4","NaN","<div style=""width:500px;"">
                            <p style=""font-size:50px; font-weight:bold;""
                            >exciting</p>
                            <div style=""width:240px; margin: auto;"">
                                <img src=""images/G_L_U_27.png"" style= ""width:200px""alt=""img"">
                            </div>
                        </div>","1","","0","images/G_L_U_27.png","","","","exciting","1","27","G","L","U","",""
"","","","","","html-slider-response","94","262425","0.0-90.0","brrdpc1c4s","4","NaN","<div style=""width:500px;"">
                            <p style=""font-size:50px; font-weight:bold;""
                            >exciting</p>
                            <div style=""width:240px; margin: auto;"">
                                <img src=""images/R_L_S_12.png"" style= ""width:200px""alt=""img"">
                            </div>
                        </div>","198","","0","images/R_L_S_12.png","","","","exciting","1","12","R","L","S","",""
"","","","","","html-slider-response","95","266323","0.0-91.0","brrdpc1c4s","4","NaN","<div style=""width:500px;"">
                            <p style=""font-size:50px; font-weight:bold;""
                            >exciting</p>
                            <div style=""width:240px; margin: auto;"">
                                <img src=""images/R_D_U_23.png"" style= ""width:200px""alt=""img"">
                            </div>
                        </div>","198","","0","images/R_D_U_23.png","","","","exciting","2","23","R","D","U","",""
"","","","","","html-slider-response","96","269166","0.0-92.0","brrdpc1c4s","4","NaN","<div style=""width:500px;"">
                            <p style=""font-size:50px; font-weight:bold;""
                            >exciting</p>
                            <div style=""width:240px; margin: auto;"">
                                <img src=""images/B_D_S_41.png"" style= ""width:200px""alt=""img"">
                            </div>
                        </div>","1","","0","images/B_D_S_41.png","","","","exciting","1","41","B","D","S","",""
"","","","","","html-slider-response","97","271229","0.0-93.0","brrdpc1c4s","4","NaN","<div style=""width:500px;"">
                            <p style=""font-size:50px; font-weight:bold;""
                            >exciting</p>
                            <div style=""width:240px; margin: auto;"">
                                <img src=""images/G_D_U_30.png"" style= ""width:200px""alt=""img"">
                            </div>
                        </div>","96","","0","images/G_D_U_30.png","","","","exciting","1","30","G","D","U","",""
"","","","","","html-slider-response","98","273366","0.0-94.0","brrdpc1c4s","4","NaN","<div style=""width:500px;"">
                            <p style=""font-size:50px; font-weight:bold;""
                            >exciting</p>
                            <div style=""width:240px; margin: auto;"">
                                <img src=""images/Y_D_S_07.png"" style= ""width:200px""alt=""img"">
                            </div>
                        </div>","-95","","0","images/Y_D_S_07.png","","","","exciting","2","07","Y","D","S","",""
"","","","","","html-slider-response","99","275895","0.0-95.0","brrdpc1c4s","4","NaN","<div style=""width:500px;"">
                            <p style=""font-size:50px; font-weight:bold;""
                            >exciting</p>
                            <div style=""width:240px; margin: auto;"">
                                <img src=""images/B_L_S_33.png"" style= ""width:200px""alt=""img"">
                            </div>
                        </div>","194","","0","images/B_L_S_33.png","","","","exciting","2","33","B","L","S","",""
"","","","","","html-slider-response","100","277984","0.0-96.0","brrdpc1c4s","4","NaN","<div style=""width:500px;"">
                            <p style=""font-size:50px; font-weight:bold;""
                            >exciting</p>
                            <div style=""width:240px; margin: auto;"">
                                <img src=""images/Y_D_S_07.png"" style= ""width:200px""alt=""img"">
                            </div>
                        </div>","-195","","0","images/Y_D_S_07.png","","","","exciting","1","07","Y","D","S","",""
"","","","","","html-slider-response","101","280762","0.0-97.0","brrdpc1c4s","4","NaN","<div style=""width:500px;"">
                            <p style=""font-size:50px; font-weight:bold;""
                            >exciting</p>
                            <div style=""width:240px; margin: auto;"">
                                <img src=""images/B_D_U_44.png"" style= ""width:200px""alt=""img"">
                            </div>
                        </div>","91","","0","images/B_D_U_44.png","","","","exciting","1","44","B","D","U","",""
"","","","","","html-slider-response","102","283789","0.0-98.0","brrdpc1c4s","4","NaN","<div style=""width:500px;"">
                            <p style=""font-size:50px; font-weight:bold;""
                            >exciting</p>
                            <div style=""width:240px; margin: auto;"">
                                <img src=""images/R_D_S_15.png"" style= ""width:200px""alt=""img"">
                            </div>
                        </div>","3","","0","images/R_D_S_15.png","","","","exciting","2","15","R","D","S","",""
"","","","","","html-slider-response","103","287397","0.0-99.0","brrdpc1c4s","4","NaN","<div style=""width:500px;"">
                            <p style=""font-size:50px; font-weight:bold;""
                            >exciting</p>
                            <div style=""width:240px; margin: auto;"">
                                <img src=""images/G_L_S_26.png"" style= ""width:200px""alt=""img"">
                            </div>
                        </div>","5","","0","images/G_L_S_26.png","","","","exciting","1","26","G","L","S","",""
"","","","","","html-slider-response","104","290004","0.0-100.0","brrdpc1c4s","4","NaN","<div style=""width:500px;"">
                            <p style=""font-size:50px; font-weight:bold;""
                            >exciting</p>
                            <div style=""width:240px; margin: auto;"">
                                <img src=""images/G_D_S_28.png"" style= ""width:200px""alt=""img"">
                            </div>
                        </div>","112","","0","images/G_D_S_28.png","","","","exciting","2","28","G","D","S","",""
"","","","","","html-slider-response","105","292129","0.0-101.0","brrdpc1c4s","4","NaN","<div style=""width:500px;"">
                            <p style=""font-size:50px; font-weight:bold;""
                            >exciting</p>
                            <div style=""width:240px; margin: auto;"">
                                <img src=""images/Y_D_U_10.png"" style= ""width:200px""alt=""img"">
                            </div>
                        </div>","-194","","0","images/Y_D_U_10.png","","","","exciting","1","10","Y","D","U","",""
"","","","","","html-slider-response","106","295536","0.0-102.0","brrdpc1c4s","4","NaN","<div style=""width:500px;"">
                            <p style=""font-size:50px; font-weight:bold;""
                            >exciting</p>
                            <div style=""width:240px; margin: auto;"">
                                <img src=""images/B_L_S_33.png"" style= ""width:200px""alt=""img"">
                            </div>
                        </div>","197","","0","images/B_L_S_33.png","","","","exciting","1","33","B","L","S","",""
"","","","","","html-slider-response","107","298783","0.0-103.0","brrdpc1c4s","4","NaN","<div style=""width:500px;"">
                            <p style=""font-size:50px; font-weight:bold;""
                            >exciting</p>
                            <div style=""width:240px; margin: auto;"">
                                <img src=""images/B_D_S_41.png"" style= ""width:200px""alt=""img"">
                            </div>
                        </div>","-113","","0","images/B_D_S_41.png","","","","exciting","2","41","B","D","S","",""
"","","","","","html-slider-response","108","303116","0.0-104.0","brrdpc1c4s","4","NaN","<div style=""width:500px;"">
                            <p style=""font-size:50px; font-weight:bold;""
                            >exciting</p>
                            <div style=""width:240px; margin: auto;"">
                                <img src=""images/G_D_U_30.png"" style= ""width:200px""alt=""img"">
                            </div>
                        </div>","86","","0","images/G_D_U_30.png","","","","exciting","2","30","G","D","U","",""
"","","","","","html-slider-response","109","305762","0.0-105.0","brrdpc1c4s","4","NaN","<div style=""width:500px;"">
                            <p style=""font-size:50px; font-weight:bold;""
                            >exciting</p>
                            <div style=""width:240px; margin: auto;"">
                                <img src=""images/R_L_S_12.png"" style= ""width:200px""alt=""img"">
                            </div>
                        </div>","199","","0","images/R_L_S_12.png","","","","exciting","2","12","R","L","S","",""
"","","","","","html-slider-response","110","309124","0.0-106.0","brrdpc1c4s","4","NaN","<div style=""width:500px;"">
                            <p style=""font-size:50px; font-weight:bold;""
                            >exciting</p>
                            <div style=""width:240px; margin: auto;"">
                                <img src=""images/G_L_S_26.png"" style= ""width:200px""alt=""img"">
                            </div>
                        </div>","93","","0","images/G_L_S_26.png","","","","exciting","2","26","G","L","S","",""
"","","","","","html-slider-response","111","312493","0.0-107.0","brrdpc1c4s","4","NaN","<div style=""width:500px;"">
                            <p style=""font-size:50px; font-weight:bold;""
                            >exciting</p>
                            <div style=""width:240px; margin: auto;"">
                                <img src=""images/G_D_S_28.png"" style= ""width:200px""alt=""img"">
                            </div>
                        </div>","2","","0","images/G_D_S_28.png","","","","exciting","1","28","G","D","S","",""
"","","","","","html-slider-response","112","314555","0.0-108.0","brrdpc1c4s","4","NaN","<div style=""width:500px;"">
                            <p style=""font-size:50px; font-weight:bold;""
                            >exciting</p>
                            <div style=""width:240px; margin: auto;"">
                                <img src=""images/R_D_S_15.png"" style= ""width:200px""alt=""img"">
                            </div>
                        </div>","-98","","0","images/R_D_S_15.png","","","","exciting","1","15","R","D","S","",""
"","","","","","html-slider-response","113","316812","0.0-109.0","brrdpc1c4s","4","NaN","<div style=""width:500px;"">
                            <p style=""font-size:50px; font-weight:bold;""
                            >exciting</p>
                            <div style=""width:240px; margin: auto;"">
                                <img src=""images/Y_D_U_10.png"" style= ""width:200px""alt=""img"">
                            </div>
                        </div>","-198","","0","images/Y_D_U_10.png","","","","exciting","2","10","Y","D","U","",""
"","","","","","html-slider-response","114","320377","0.0-110.0","brrdpc1c4s","4","NaN","<div style=""width:500px;"">
                            <p style=""font-size:50px; font-weight:bold;""
                            >exciting</p>
                            <div style=""width:240px; margin: auto;"">
                                <img src=""images/Y_L_U_05.png"" style= ""width:200px""alt=""img"">
                            </div>
                        </div>","-95","","0","images/Y_L_U_05.png","","","","exciting","2","05","Y","L","U","",""
"","","","","","html-slider-response","115","321170","0.0-111.0","brrdpc1c4s","4","NaN","<div style=""width:500px;"">
                            <p style=""font-size:50px; font-weight:bold;""
                            >exciting</p>
                            <div style=""width:240px; margin: auto;"">
                                <img src=""images/Y_L_S_02.png"" style= ""width:200px""alt=""img"">
                            </div>
                        </div>","-95","","0","images/Y_L_S_02.png","","","","exciting","2","02","Y","L","S","",""
"","","","","","html-slider-response","116","323095","0.0-112.0","brrdpc1c4s","4","NaN","<div style=""width:500px;"">
                            <p style=""font-size:50px; font-weight:bold;""
                            >exciting</p>
                            <div style=""width:240px; margin: auto;"">
                                <img src=""images/R_L_U_13.png"" style= ""width:200px""alt=""img"">
                            </div>
                        </div>","-95","","0","images/R_L_U_13.png","","","","exciting","2","13","R","L","U","",""
"","","","","","html-slider-response","117","325544","0.0-113.0","brrdpc1c4s","4","NaN","<div style=""width:500px;"">
                            <p style=""font-size:50px; font-weight:bold;""
                            >exciting</p>
                            <div style=""width:240px; margin: auto;"">
                                <img src=""images/G_L_U_27.png"" style= ""width:200px""alt=""img"">
                            </div>
                        </div>","106","","0","images/G_L_U_27.png","","","","exciting","2","27","G","L","U","",""
"","","","","","html-button-response","118","327226","0.0-114.0","brrdpc1c4s","4","1171","<p>Great Job! You've finished block 3.<br></br> You have 5 block(s) left to go.<br></br></p>","0","","","","","","","","","","","","","",""
"","","","","","html-button-response","119","328235","0.0-115.0","brrdpc1c4s","4","1008","<p>In this block of trials, you will be asked to rate how much you associate each map with:</p > <p style = 'font-size:150%; font-weight: bold'>playful</p><br></br>","0","","","","","","","","","","","","","",""
"","","","","","html-slider-response","120","330339","0.0-116.0","brrdpc1c4s","4","NaN","<div style=""width:500px;"">
                            <p style=""font-size:50px; font-weight:bold;""
                            >playful</p>
                            <div style=""width:240px; margin: auto;"">
                                <img src=""images/R_L_U_13.png"" style= ""width:200px""alt=""img"">
                            </div>
                        </div>","-198","","0","images/R_L_U_13.png","","","","playful","2","13","R","L","U","",""
"","","","","","html-slider-response","121","332080","0.0-117.0","brrdpc1c4s","4","NaN","<div style=""width:500px;"">
                            <p style=""font-size:50px; font-weight:bold;""
                            >playful</p>
                            <div style=""width:240px; margin: auto;"">
                                <img src=""images/B_D_U_44.png"" style= ""width:200px""alt=""img"">
                            </div>
                        </div>","-198","","0","images/B_D_U_44.png","","","","playful","2","44","B","D","U","",""
"","","","","","html-slider-response","122","334251","0.0-118.0","brrdpc1c4s","4","NaN","<div style=""width:500px;"">
                            <p style=""font-size:50px; font-weight:bold;""
                            >playful</p>
                            <div style=""width:240px; margin: auto;"">
                                <img src=""images/B_L_U_37.png"" style= ""width:200px""alt=""img"">
                            </div>
                        </div>","198","","0","images/B_L_U_37.png","","","","playful","1","37","B","L","U","",""
"","","","","","html-slider-response","123","337303","0.0-119.0","brrdpc1c4s","4","NaN","<div style=""width:500px;"">
                            <p style=""font-size:50px; font-weight:bold;""
                            >playful</p>
                            <div style=""width:240px; margin: auto;"">
                                <img src=""images/R_D_U_23.png"" style= ""width:200px""alt=""img"">
                            </div>
                        </div>","-90","","0","images/R_D_U_23.png","","","","playful","1","23","R","D","U","",""
"","","","","","html-slider-response","124","339431","0.0-120.0","brrdpc1c4s","4","NaN","<div style=""width:500px;"">
                            <p style=""font-size:50px; font-weight:bold;""
                            >playful</p>
                            <div style=""width:240px; margin: auto;"">
                                <img src=""images/G_L_S_26.png"" style= ""width:200px""alt=""img"">
                            </div>
                        </div>","195","","0","images/G_L_S_26.png","","","","playful","1","26","G","L","S","",""
"","","","","","html-slider-response","125","341944","0.0-121.0","brrdpc1c4s","4","NaN","<div style=""width:500px;"">
                            <p style=""font-size:50px; font-weight:bold;""
                            >playful</p>
                            <div style=""width:240px; margin: auto;"">
                                <img src=""images/G_L_U_27.png"" style= ""width:200px""alt=""img"">
                            </div>
                        </div>","199","","0","images/G_L_U_27.png","","","","playful","2","27","G","L","U","",""
"","","","","","html-slider-response","126","343383","0.0-122.0","brrdpc1c4s","4","NaN","<div style=""width:500px;"">
                            <p style=""font-size:50px; font-weight:bold;""
                            >playful</p>
                            <div style=""width:240px; margin: auto;"">
                                <img src=""images/G_L_S_26.png"" style= ""width:200px""alt=""img"">
                            </div>
                        </div>","199","","0","images/G_L_S_26.png","","","","playful","2","26","G","L","S","",""
"","","","","","html-slider-response","127","346521","0.0-123.0","brrdpc1c4s","4","NaN","<div style=""width:500px;"">
                            <p style=""font-size:50px; font-weight:bold;""
                            >playful</p>
                            <div style=""width:240px; margin: auto;"">
                                <img src=""images/B_D_S_41.png"" style= ""width:200px""alt=""img"">
                            </div>
                        </div>","97","","0","images/B_D_S_41.png","","","","playful","1","41","B","D","S","",""
"","","","","","html-slider-response","128","350247","0.0-124.0","brrdpc1c4s","4","NaN","<div style=""width:500px;"">
                            <p style=""font-size:50px; font-weight:bold;""
                            >playful</p>
                            <div style=""width:240px; margin: auto;"">
                                <img src=""images/Y_L_U_05.png"" style= ""width:200px""alt=""img"">
                            </div>
                        </div>","198","","0","images/Y_L_U_05.png","","","","playful","2","05","Y","L","U","",""
"","","","","","html-slider-response","129","351586","0.0-125.0","brrdpc1c4s","4","NaN","<div style=""width:500px;"">
                            <p style=""font-size:50px; font-weight:bold;""
                            >playful</p>
                            <div style=""width:240px; margin: auto;"">
                                <img src=""images/Y_L_U_05.png"" style= ""width:200px""alt=""img"">
                            </div>
                        </div>","198","","0","images/Y_L_U_05.png","","","","playful","1","05","Y","L","U","",""
"","","","","","html-slider-response","130","354689","0.0-126.0","brrdpc1c4s","4","NaN","<div style=""width:500px;"">
                            <p style=""font-size:50px; font-weight:bold;""
                            >playful</p>
                            <div style=""width:240px; margin: auto;"">
                                <img src=""images/R_D_S_15.png"" style= ""width:200px""alt=""img"">
                            </div>
                        </div>","-117","","0","images/R_D_S_15.png","","","","playful","2","15","R","D","S","",""
"","","","","","html-slider-response","131","357807","0.0-127.0","brrdpc1c4s","4","NaN","<div style=""width:500px;"">
                            <p style=""font-size:50px; font-weight:bold;""
                            >playful</p>
                            <div style=""width:240px; margin: auto;"">
                                <img src=""images/B_L_U_37.png"" style= ""width:200px""alt=""img"">
                            </div>
                        </div>","194","","0","images/B_L_U_37.png","","","","playful","2","37","B","L","U","",""
"","","","","","html-slider-response","132","359999","0.0-128.0","brrdpc1c4s","4","NaN","<div style=""width:500px;"">
                            <p style=""font-size:50px; font-weight:bold;""
                            >playful</p>
                            <div style=""width:240px; margin: auto;"">
                                <img src=""images/B_L_S_33.png"" style= ""width:200px""alt=""img"">
                            </div>
                        </div>","199","","0","images/B_L_S_33.png","","","","playful","2","33","B","L","S","",""
"","","","","","html-slider-response","133","362675","0.0-129.0","brrdpc1c4s","4","NaN","<div style=""width:500px;"">
                            <p style=""font-size:50px; font-weight:bold;""
                            >playful</p>
                            <div style=""width:240px; margin: auto;"">
                                <img src=""images/G_D_S_28.png"" style= ""width:200px""alt=""img"">
                            </div>
                        </div>","-93","","0","images/G_D_S_28.png","","","","playful","2","28","G","D","S","",""
"","","","","","html-slider-response","134","365784","0.0-130.0","brrdpc1c4s","4","NaN","<div style=""width:500px;"">
                            <p style=""font-size:50px; font-weight:bold;""
                            >playful</p>
                            <div style=""width:240px; margin: auto;"">
                                <img src=""images/B_D_S_41.png"" style= ""width:200px""alt=""img"">
                            </div>
                        </div>","3","","0","images/B_D_S_41.png","","","","playful","2","41","B","D","S","",""
"","","","","","html-slider-response","135","368706","0.0-131.0","brrdpc1c4s","4","NaN","<div style=""width:500px;"">
                            <p style=""font-size:50px; font-weight:bold;""
                            >playful</p>
                            <div style=""width:240px; margin: auto;"">
                                <img src=""images/Y_D_S_07.png"" style= ""width:200px""alt=""img"">
                            </div>
                        </div>","-194","","0","images/Y_D_S_07.png","","","","playful","1","07","Y","D","S","",""
"","","","","","html-slider-response","136","371481","0.0-132.0","brrdpc1c4s","4","NaN","<div style=""width:500px;"">
                            <p style=""font-size:50px; font-weight:bold;""
                            >playful</p>
                            <div style=""width:240px; margin: auto;"">
                                <img src=""images/G_D_S_28.png"" style= ""width:200px""alt=""img"">
                            </div>
                        </div>","-93","","0","images/G_D_S_28.png","","","","playful","1","28","G","D","S","",""
"","","","","","html-slider-response","137","375347","0.0-133.0","brrdpc1c4s","4","NaN","<div style=""width:500px;"">
                            <p style=""font-size:50px; font-weight:bold;""
                            >playful</p>
                            <div style=""width:240px; margin: auto;"">
                                <img src=""images/B_D_U_44.png"" style= ""width:200px""alt=""img"">
                            </div>
                        </div>","-103","","0","images/B_D_U_44.png","","","","playful","1","44","B","D","U","",""
"","","","","","html-slider-response","138","376746","0.0-134.0","brrdpc1c4s","4","NaN","<div style=""width:500px;"">
                            <p style=""font-size:50px; font-weight:bold;""
                            >playful</p>
                            <div style=""width:240px; margin: auto;"">
                                <img src=""images/R_D_U_23.png"" style= ""width:200px""alt=""img"">
                            </div>
                        </div>","-103","","0","images/R_D_U_23.png","","","","playful","2","23","R","D","U","",""
"","","","","","html-slider-response","139","378922","0.0-135.0","brrdpc1c4s","4","NaN","<div style=""width:500px;"">
                            <p style=""font-size:50px; font-weight:bold;""
                            >playful</p>
                            <div style=""width:240px; margin: auto;"">
                                <img src=""images/R_L_S_12.png"" style= ""width:200px""alt=""img"">
                            </div>
                        </div>","193","","0","images/R_L_S_12.png","","","","playful","2","12","R","L","S","",""
"","","","","","html-slider-response","140","380856","0.0-136.0","brrdpc1c4s","4","NaN","<div style=""width:500px;"">
                            <p style=""font-size:50px; font-weight:bold;""
                            >playful</p>
                            <div style=""width:240px; margin: auto;"">
                                <img src=""images/Y_D_U_10.png"" style= ""width:200px""alt=""img"">
                            </div>
                        </div>","-193","","0","images/Y_D_U_10.png","","","","playful","1","10","Y","D","U","",""
"","","","","","html-slider-response","141","383862","0.0-137.0","brrdpc1c4s","4","NaN","<div style=""width:500px;"">
                            <p style=""font-size:50px; font-weight:bold;""
                            >playful</p>
                            <div style=""width:240px; margin: auto;"">
                                <img src=""images/Y_L_S_02.png"" style= ""width:200px""alt=""img"">
                            </div>
                        </div>","194","","0","images/Y_L_S_02.png","","","","playful","2","02","Y","L","S","",""
"","","","","","html-slider-response","142","386060","0.0-138.0","brrdpc1c4s","4","NaN","<div style=""width:500px;"">
                            <p style=""font-size:50px; font-weight:bold;""
                            >playful</p>
                            <div style=""width:240px; margin: auto;"">
                                <img src=""images/G_D_U_30.png"" style= ""width:200px""alt=""img"">
                            </div>
                        </div>","-192","","0","images/G_D_U_30.png","","","","playful","1","30","G","D","U","",""
"","","","","","html-slider-response","143","388105","0.0-139.0","brrdpc1c4s","4","NaN","<div style=""width:500px;"">
                            <p style=""font-size:50px; font-weight:bold;""
                            >playful</p>
                            <div style=""width:240px; margin: auto;"">
                                <img src=""images/R_L_S_12.png"" style= ""width:200px""alt=""img"">
                            </div>
                        </div>","192","","0","images/R_L_S_12.png","","","","playful","1","12","R","L","S","",""
"","","","","","html-slider-response","144","389431","0.0-140.0","brrdpc1c4s","4","NaN","<div style=""width:500px;"">
                            <p style=""font-size:50px; font-weight:bold;""
                            >playful</p>
                            <div style=""width:240px; margin: auto;"">
                                <img src=""images/B_L_S_33.png"" style= ""width:200px""alt=""img"">
                            </div>
                        </div>","192","","0","images/B_L_S_33.png","","","","playful","1","33","B","L","S","",""
"","","","","","html-slider-response","145","391407","0.0-141.0","brrdpc1c4s","4","NaN","<div style=""width:500px;"">
                            <p style=""font-size:50px; font-weight:bold;""
                            >playful</p>
                            <div style=""width:240px; margin: auto;"">
                                <img src=""images/G_D_U_30.png"" style= ""width:200px""alt=""img"">
                            </div>
                        </div>","-195","","0","images/G_D_U_30.png","","","","playful","2","30","G","D","U","",""
"","","","","","html-slider-response","146","393042","0.0-142.0","brrdpc1c4s","4","NaN","<div style=""width:500px;"">
                            <p style=""font-size:50px; font-weight:bold;""
                            >playful</p>
                            <div style=""width:240px; margin: auto;"">
                                <img src=""images/Y_D_S_07.png"" style= ""width:200px""alt=""img"">
                            </div>
                        </div>","-197","","0","images/Y_D_S_07.png","","","","playful","2","07","Y","D","S","",""
"","","","","","html-slider-response","147","395229","0.0-143.0","brrdpc1c4s","4","NaN","<div style=""width:500px;"">
                            <p style=""font-size:50px; font-weight:bold;""
                            >playful</p>
                            <div style=""width:240px; margin: auto;"">
                                <img src=""images/G_L_U_27.png"" style= ""width:200px""alt=""img"">
                            </div>
                        </div>","195","","0","images/G_L_U_27.png","","","","playful","1","27","G","L","U","",""
"","","","","","html-slider-response","148","397162","0.0-144.0","brrdpc1c4s","4","NaN","<div style=""width:500px;"">
                            <p style=""font-size:50px; font-weight:bold;""
                            >playful</p>
                            <div style=""width:240px; margin: auto;"">
                                <img src=""images/Y_L_S_02.png"" style= ""width:200px""alt=""img"">
                            </div>
                        </div>","194","","0","images/Y_L_S_02.png","","","","playful","1","02","Y","L","S","",""
"","","","","","html-slider-response","149","399253","0.0-145.0","brrdpc1c4s","4","NaN","<div style=""width:500px;"">
                            <p style=""font-size:50px; font-weight:bold;""
                            >playful</p>
                            <div style=""width:240px; margin: auto;"">
                                <img src=""images/Y_D_U_10.png"" style= ""width:200px""alt=""img"">
                            </div>
                        </div>","-194","","0","images/Y_D_U_10.png","","","","playful","2","10","Y","D","U","",""
"","","","","","html-slider-response","150","401382","0.0-146.0","brrdpc1c4s","4","NaN","<div style=""width:500px;"">
                            <p style=""font-size:50px; font-weight:bold;""
                            >playful</p>
                            <div style=""width:240px; margin: auto;"">
                                <img src=""images/R_L_U_13.png"" style= ""width:200px""alt=""img"">
                            </div>
                        </div>","195","","0","images/R_L_U_13.png","","","","playful","1","13","R","L","U","",""
"","","","","","html-slider-response","151","403746","0.0-147.0","brrdpc1c4s","4","NaN","<div style=""width:500px;"">
                            <p style=""font-size:50px; font-weight:bold;""
                            >playful</p>
                            <div style=""width:240px; margin: auto;"">
                                <img src=""images/R_D_S_15.png"" style= ""width:200px""alt=""img"">
                            </div>
                        </div>","93","","0","images/R_D_S_15.png","","","","playful","1","15","R","D","S","",""
"","","","","","html-button-response","152","405323","0.0-148.0","brrdpc1c4s","4","1068","<p>Great Job! You've finished block 4.<br></br> You have 4 block(s) left to go.<br></br></p>","0","","","","","","","","","","","","","",""
"","","","","","html-button-response","153","406196","0.0-149.0","brrdpc1c4s","4","871","<p>In this block of trials, you will be asked to rate how much you associate each map with:</p > <p style = 'font-size:150%; font-weight: bold'>negative</p><br></br>","0","","","","","","","","","","","","","",""
"","","","","","html-slider-response","154","409251","0.0-150.0","brrdpc1c4s","4","NaN","<div style=""width:500px;"">
                            <p style=""font-size:50px; font-weight:bold;""
                            >negative</p>
                            <div style=""width:240px; margin: auto;"">
                                <img src=""images/B_D_S_41.png"" style= ""width:200px""alt=""img"">
                            </div>
                        </div>","-197","","0","images/B_D_S_41.png","","","","negative","1","41","B","D","S","",""
"","","","","","html-slider-response","155","410579","0.0-151.0","brrdpc1c4s","4","NaN","<div style=""width:500px;"">
                            <p style=""font-size:50px; font-weight:bold;""
                            >negative</p>
                            <div style=""width:240px; margin: auto;"">
                                <img src=""images/R_L_S_12.png"" style= ""width:200px""alt=""img"">
                            </div>
                        </div>","-197","","0","images/R_L_S_12.png","","","","negative","2","12","R","L","S","",""
"","","","","","html-slider-response","156","411866","0.0-152.0","brrdpc1c4s","4","NaN","<div style=""width:500px;"">
                            <p style=""font-size:50px; font-weight:bold;""
                            >negative</p>
                            <div style=""width:240px; margin: auto;"">
                                <img src=""images/B_D_U_44.png"" style= ""width:200px""alt=""img"">
                            </div>
                        </div>","-197","","0","images/B_D_U_44.png","","","","negative","2","44","B","D","U","",""
"","","","","","html-slider-response","157","416114","0.0-153.0","brrdpc1c4s","4","NaN","<div style=""width:500px;"">
                            <p style=""font-size:50px; font-weight:bold;""
                            >negative</p>
                            <div style=""width:240px; margin: auto;"">
                                <img src=""images/B_D_U_44.png"" style= ""width:200px""alt=""img"">
                            </div>
                        </div>","-186","","0","images/B_D_U_44.png","","","","negative","1","44","B","D","U","",""
"","","","","","html-slider-response","158","417284","0.0-154.0","brrdpc1c4s","4","NaN","<div style=""width:500px;"">
                            <p style=""font-size:50px; font-weight:bold;""
                            >negative</p>
                            <div style=""width:240px; margin: auto;"">
                                <img src=""images/B_L_U_37.png"" style= ""width:200px""alt=""img"">
                            </div>
                        </div>","-186","","0","images/B_L_U_37.png","","","","negative","1","37","B","L","U","",""
"","","","","","html-slider-response","159","418484","0.0-155.0","brrdpc1c4s","4","NaN","<div style=""width:500px;"">
                            <p style=""font-size:50px; font-weight:bold;""
                            >negative</p>
                            <div style=""width:240px; margin: auto;"">
                                <img src=""images/B_D_S_41.png"" style= ""width:200px""alt=""img"">
                            </div>
                        </div>","-186","","0","images/B_D_S_41.png","","","","negative","2","41","B","D","S","",""
"","","","","","html-slider-response","160","419653","0.0-156.0","brrdpc1c4s","4","NaN","<div style=""width:500px;"">
                            <p style=""font-size:50px; font-weight:bold;""
                            >negative</p>
                            <div style=""width:240px; margin: auto;"">
                                <img src=""images/B_L_S_33.png"" style= ""width:200px""alt=""img"">
                            </div>
                        </div>","-186","","0","images/B_L_S_33.png","","","","negative","2","33","B","L","S","",""
"","","","","","html-slider-response","161","421249","0.0-157.0","brrdpc1c4s","4","NaN","<div style=""width:500px;"">
                            <p style=""font-size:50px; font-weight:bold;""
                            >negative</p>
                            <div style=""width:240px; margin: auto;"">
                                <img src=""images/G_D_S_28.png"" style= ""width:200px""alt=""img"">
                            </div>
                        </div>","-186","","0","images/G_D_S_28.png","","","","negative","1","28","G","D","S","",""
"","","","","","html-slider-response","162","423627","0.0-158.0","brrdpc1c4s","4","NaN","<div style=""width:500px;"">
                            <p style=""font-size:50px; font-weight:bold;""
                            >negative</p>
                            <div style=""width:240px; margin: auto;"">
                                <img src=""images/G_D_U_30.png"" style= ""width:200px""alt=""img"">
                            </div>
                        </div>","110","","0","images/G_D_U_30.png","","","","negative","2","30","G","D","U","",""
"","","","","","html-slider-response","163","425748","0.0-159.0","brrdpc1c4s","4","NaN","<div style=""width:500px;"">
                            <p style=""font-size:50px; font-weight:bold;""
                            >negative</p>
                            <div style=""width:240px; margin: auto;"">
                                <img src=""images/G_D_S_28.png"" style= ""width:200px""alt=""img"">
                            </div>
                        </div>","-193","","0","images/G_D_S_28.png","","","","negative","2","28","G","D","S","",""
"","","","","","html-slider-response","164","427966","0.0-160.0","brrdpc1c4s","4","NaN","<div style=""width:500px;"">
                            <p style=""font-size:50px; font-weight:bold;""
                            >negative</p>
                            <div style=""width:240px; margin: auto;"">
                                <img src=""images/R_D_U_23.png"" style= ""width:200px""alt=""img"">
                            </div>
                        </div>","98","","0","images/R_D_U_23.png","","","","negative","2","23","R","D","U","",""
"","","","","","html-slider-response","165","429788","0.0-161.0","brrdpc1c4s","4","NaN","<div style=""width:500px;"">
                            <p style=""font-size:50px; font-weight:bold;""
                            >negative</p>
                            <div style=""width:240px; margin: auto;"">
                                <img src=""images/G_L_U_27.png"" style= ""width:200px""alt=""img"">
                            </div>
                        </div>","-194","","0","images/G_L_U_27.png","","","","negative","2","27","G","L","U","",""
"","","","","","html-slider-response","166","431029","0.0-162.0","brrdpc1c4s","4","NaN","<div style=""width:500px;"">
                            <p style=""font-size:50px; font-weight:bold;""
                            >negative</p>
                            <div style=""width:240px; margin: auto;"">
                                <img src=""images/R_L_U_13.png"" style= ""width:200px""alt=""img"">
                            </div>
                        </div>","-194","","0","images/R_L_U_13.png","","","","negative","2","13","R","L","U","",""
"","","","","","html-slider-response","167","432360","0.0-163.0","brrdpc1c4s","4","NaN","<div style=""width:500px;"">
                            <p style=""font-size:50px; font-weight:bold;""
                            >negative</p>
                            <div style=""width:240px; margin: auto;"">
                                <img src=""images/R_L_U_13.png"" style= ""width:200px""alt=""img"">
                            </div>
                        </div>","-194","","0","images/R_L_U_13.png","","","","negative","1","13","R","L","U","",""
"","","","","","html-slider-response","168","434528","0.0-164.0","brrdpc1c4s","4","NaN","<div style=""width:500px;"">
                            <p style=""font-size:50px; font-weight:bold;""
                            >negative</p>
                            <div style=""width:240px; margin: auto;"">
                                <img src=""images/Y_D_U_10.png"" style= ""width:200px""alt=""img"">
                            </div>
                        </div>","195","","0","images/Y_D_U_10.png","","","","negative","1","10","Y","D","U","",""
"","","","","","html-slider-response","169","436518","0.0-165.0","brrdpc1c4s","4","NaN","<div style=""width:500px;"">
                            <p style=""font-size:50px; font-weight:bold;""
                            >negative</p>
                            <div style=""width:240px; margin: auto;"">
                                <img src=""images/G_L_S_26.png"" style= ""width:200px""alt=""img"">
                            </div>
                        </div>","-195","","0","images/G_L_S_26.png","","","","negative","2","26","G","L","S","",""
"","","","","","html-slider-response","170","438512","0.0-166.0","brrdpc1c4s","4","NaN","<div style=""width:500px;"">
                            <p style=""font-size:50px; font-weight:bold;""
                            >negative</p>
                            <div style=""width:240px; margin: auto;"">
                                <img src=""images/R_D_U_23.png"" style= ""width:200px""alt=""img"">
                            </div>
                        </div>","109","","0","images/R_D_U_23.png","","","","negative","1","23","R","D","U","",""
"","","","","","html-slider-response","171","440422","0.0-167.0","brrdpc1c4s","4","NaN","<div style=""width:500px;"">
                            <p style=""font-size:50px; font-weight:bold;""
                            >negative</p>
                            <div style=""width:240px; margin: auto;"">
                                <img src=""images/Y_D_U_10.png"" style= ""width:200px""alt=""img"">
                            </div>
                        </div>","197","","0","images/Y_D_U_10.png","","","","negative","2","10","Y","D","U","",""
"","","","","","html-slider-response","172","442471","0.0-168.0","brrdpc1c4s","4","NaN","<div style=""width:500px;"">
                            <p style=""font-size:50px; font-weight:bold;""
                            >negative</p>
                            <div style=""width:240px; margin: auto;"">
                                <img src=""images/B_L_S_33.png"" style= ""width:200px""alt=""img"">
                            </div>
                        </div>","-190","","0","images/B_L_S_33.png","","","","negative","1","33","B","L","S","",""
"","","","","","html-slider-response","173","444091","0.0-169.0","brrdpc1c4s","4","NaN","<div style=""width:500px;"">
                            <p style=""font-size:50px; font-weight:bold;""
                            >negative</p>
                            <div style=""width:240px; margin: auto;"">
                                <img src=""images/B_L_U_37.png"" style= ""width:200px""alt=""img"">
                            </div>
                        </div>","-190","","0","images/B_L_U_37.png","","","","negative","2","37","B","L","U","",""
"","","","","","html-slider-response","174","445366","0.0-170.0","brrdpc1c4s","4","NaN","<div style=""width:500px;"">
                            <p style=""font-size:50px; font-weight:bold;""
                            >negative</p>
                            <div style=""width:240px; margin: auto;"">
                                <img src=""images/Y_L_S_02.png"" style= ""width:200px""alt=""img"">
                            </div>
                        </div>","-190","","0","images/Y_L_S_02.png","","","","negative","2","02","Y","L","S","",""
"","","","","","html-slider-response","175","447144","0.0-171.0","brrdpc1c4s","4","NaN","<div style=""width:500px;"">
                            <p style=""font-size:50px; font-weight:bold;""
                            >negative</p>
                            <div style=""width:240px; margin: auto;"">
                                <img src=""images/Y_D_S_07.png"" style= ""width:200px""alt=""img"">
                            </div>
                        </div>","96","","0","images/Y_D_S_07.png","","","","negative","2","07","Y","D","S","",""
"","","","","","html-slider-response","176","448696","0.0-172.0","brrdpc1c4s","4","NaN","<div style=""width:500px;"">
                            <p style=""font-size:50px; font-weight:bold;""
                            >negative</p>
                            <div style=""width:240px; margin: auto;"">
                                <img src=""images/Y_L_S_02.png"" style= ""width:200px""alt=""img"">
                            </div>
                        </div>","-196","","0","images/Y_L_S_02.png","","","","negative","1","02","Y","L","S","",""
"","","","","","html-slider-response","177","449966","0.0-173.0","brrdpc1c4s","4","NaN","<div style=""width:500px;"">
                            <p style=""font-size:50px; font-weight:bold;""
                            >negative</p>
                            <div style=""width:240px; margin: auto;"">
                                <img src=""images/G_L_S_26.png"" style= ""width:200px""alt=""img"">
                            </div>
                        </div>","-196","","0","images/G_L_S_26.png","","","","negative","1","26","G","L","S","",""
"","","","","","html-slider-response","178","451377","0.0-174.0","brrdpc1c4s","4","NaN","<div style=""width:500px;"">
                            <p style=""font-size:50px; font-weight:bold;""
                            >negative</p>
                            <div style=""width:240px; margin: auto;"">
                                <img src=""images/Y_L_U_05.png"" style= ""width:200px""alt=""img"">
                            </div>
                        </div>","-196","","0","images/Y_L_U_05.png","","","","negative","2","05","Y","L","U","",""
"","","","","","html-slider-response","179","452781","0.0-175.0","brrdpc1c4s","4","NaN","<div style=""width:500px;"">
                            <p style=""font-size:50px; font-weight:bold;""
                            >negative</p>
                            <div style=""width:240px; margin: auto;"">
                                <img src=""images/R_D_S_15.png"" style= ""width:200px""alt=""img"">
                            </div>
                        </div>","-196","","0","images/R_D_S_15.png","","","","negative","2","15","R","D","S","",""
"","","","","","html-slider-response","180","454771","0.0-176.0","brrdpc1c4s","4","NaN","<div style=""width:500px;"">
                            <p style=""font-size:50px; font-weight:bold;""
                            >negative</p>
                            <div style=""width:240px; margin: auto;"">
                                <img src=""images/G_D_U_30.png"" style= ""width:200px""alt=""img"">
                            </div>
                        </div>","94","","0","images/G_D_U_30.png","","","","negative","1","30","G","D","U","",""
"","","","","","html-slider-response","181","456337","0.0-177.0","brrdpc1c4s","4","NaN","<div style=""width:500px;"">
                            <p style=""font-size:50px; font-weight:bold;""
                            >negative</p>
                            <div style=""width:240px; margin: auto;"">
                                <img src=""images/G_L_U_27.png"" style= ""width:200px""alt=""img"">
                            </div>
                        </div>","-195","","0","images/G_L_U_27.png","","","","negative","1","27","G","L","U","",""
"","","","","","html-slider-response","182","457612","0.0-178.0","brrdpc1c4s","4","NaN","<div style=""width:500px;"">
                            <p style=""font-size:50px; font-weight:bold;""
                            >negative</p>
                            <div style=""width:240px; margin: auto;"">
                                <img src=""images/R_L_S_12.png"" style= ""width:200px""alt=""img"">
                            </div>
                        </div>","-195","","0","images/R_L_S_12.png","","","","negative","1","12","R","L","S","",""
"","","","","","html-slider-response","183","459518","0.0-179.0","brrdpc1c4s","4","NaN","<div style=""width:500px;"">
                            <p style=""font-size:50px; font-weight:bold;""
                            >negative</p>
                            <div style=""width:240px; margin: auto;"">
                                <img src=""images/Y_D_S_07.png"" style= ""width:200px""alt=""img"">
                            </div>
                        </div>","110","","0","images/Y_D_S_07.png","","","","negative","1","07","Y","D","S","",""
"","","","","","html-slider-response","184","461081","0.0-180.0","brrdpc1c4s","4","NaN","<div style=""width:500px;"">
                            <p style=""font-size:50px; font-weight:bold;""
                            >negative</p>
                            <div style=""width:240px; margin: auto;"">
                                <img src=""images/R_D_S_15.png"" style= ""width:200px""alt=""img"">
                            </div>
                        </div>","-200","","0","images/R_D_S_15.png","","","","negative","1","15","R","D","S","",""
"","","","","","html-slider-response","185","462492","0.0-181.0","brrdpc1c4s","4","NaN","<div style=""width:500px;"">
