"success","timeout","failed_images","failed_audio","failed_video","trial_type","trial_index","time_elapsed","internal_node_id","subject_id","condition_num","rt","stimulus","response","question_order","slider_start","image_path","practiceTrial","practiceTrialNum","correct","concept","repetition","map_id","hue","lightness","saturation","ishihara_plate","correct_response"
"true","false","[]","[]","[]","preload","0","683","0.0-0.0","c99pnpsd6c","5","","","","","","","","","","","","","","","","",""
"","","","","","html-button-response","1","4056","0.0-1.0","c99pnpsd6c","5","3372","Welcome to our experiment!<p>At the bottom of this screen, you will see a button that says ""Begin Experiment"".<br>Please only click that button when you are ready to complete the 25 minute experiment in one sitting.</p><p> Once you click that button, it will not be possible to restart the experiment.","0","","","","","","","","","","","","","",""
"true","","","","","fullscreen","2","6318","0.0-2.0","c99pnpsd6c","5","1258","","","","","","","","","","","","","","","",""
"","","","","","survey-multi-select","3","15488","0.0-3.0","c99pnpsd6c","5","9163","","{""Consent"":[""<strong>I consent</strong>""]}","[0]","","","","","","","","","","","","",""
"","","","","","html-button-response","4","20857","0.0-4.0","c99pnpsd6c","5","5366","Welcome! <p> This experiment involves two parts: demographic information, followed by the experimental task.<p> It will take about 25 minutes to complete both parts.","0","","","","","","","","","","","","","",""
"","","","","","survey-text","5","46219","0.0-5.0","c99pnpsd6c","5","25355","","{""Age"":""23"",""Gender"":""Man"",""Race/ethnicity"":""Asian"",""Languages"":""CN,US""}","","","","","","","","","","","","","",""
"","","","","","html-slider-response","6","49719","0.0-6.0","c99pnpsd6c","5","3496","
                            <div style='text-align:left; font-size:20px; line-height:25px; width: 1400px;'>
                                During this experiment you will be asked to rate how much you associate maps with                    different concepts.<br> Below, you can see some examples of the maps you will be asked to rate. Next to the maps
                    is the list of concepts.<br>You will be asked                    to rate how much you associate each map with each concept on a scale from 'not at all' to 'very much' like the
                    one below. <br><br>
                    Now, please look at the list of concepts and maps. For each concept, think about the map you associate 'very
                    much' with the concept.<br>                     When you see that map during the experiment, please rate it near the 'very much' endpoint of the
                    scale.<br>Now, please think about which map you associate 'not at all'                     with each concept. When you see that map during the experiment, please rate it near the 'not at all' endpoint
                    of the scale.<br>
                    Please use the full range of the scale. That is, if a map is somewhat associated with the concept, you would
                    click partway between the middle point and right side of the scale.                    You will be asked to rate each map for a given concept before moving on to the next concept.<br><br>Press the
                    'Continue' button for instructions on how to use the slider.                    <br><br>
                </div>

                <div style=""width: 500px; margin: 0 auto;"">
                    <!-- Centered text paragraphs -->
                    <div style=""text-align: center; width: 500px;"">
                        <p style=""font-size:25px; line-height:18px;"">calm</p>
                        <p style=""font-size:25px; line-height:18px;"">exciting</p>
                        <p style=""font-size:25px;line-height:18px;"">positive</p>
                        <p style=""font-size:25px;line-height:18px;"">negative</p>
                        <p style=""font-size:25px;line-height:18px;"">serious</p>
                        <p style=""font-size:25px;line-height:18px;"">playful</p>
                        <p style=""font-size:25px;line-height:18px;"">trustworthy</p>
                        <p style=""font-size:25px;line-height:18px;"">disturbing</p>
                    </div>

                    <!-- Grid section -->
                   <div style=""display: flex; justify-content: center; padding-top: 15px;"">
                    <div style=""display: grid; grid-template-columns: repeat(8, 80px); grid-gap: 5px; width: auto;"">
                        <img src=""images/G_L_U_28.png"" alt=""map"" style=""width: 100%;""><img src=""images/B_L_U_41.png"" alt=""map"" style=""width: 100%;""><img src=""images/G_D_S_30.png"" alt=""map"" style=""width: 100%;""><img src=""images/Y_L_U_07.png"" alt=""map"" style=""width: 100%;""><img src=""images/R_L_S_13.png"" alt=""map"" style=""width: 100%;""><img src=""images/Y_L_S_05.png"" alt=""map"" style=""width: 100%;""><img src=""images/B_D_S_44.png"" alt=""map"" style=""width: 100%;""><img src=""images/Y_D_S_10.png"" alt=""map"" style=""width: 100%;""><img src=""images/R_L_U_15.png"" alt=""map"" style=""width: 100%;""><img src=""images/B_L_S_37.png"" alt=""map"" style=""width: 100%;""><img src=""images/G_D_U_33.png"" alt=""map"" style=""width: 100%;""><img src=""images/G_L_S_27.png"" alt=""map"" style=""width: 100%;""><img src=""images/B_D_U_02.png"" alt=""map"" style=""width: 100%;""><img src=""images/R_D_U_26.png"" alt=""map"" style=""width: 100%;""><img src=""images/Y_D_U_12.png"" alt=""map"" style=""width: 100%;""><img src=""images/R_D_S_23.png"" alt=""map"" style=""width: 100%;"">
                    </div>
                </div>

                    <!-- Clear floats -->
                    <div style=""clear: both;""></div>
                </div>
                            ","200","","0","maps_anchoring.png","true","","","","","","","","","",""
"","","","","","html-button-response","7","50855","0.0-7.0","c99pnpsd6c","5","1134","<div style=""width:800px;""><p style=""text-align:left"">To move the slider, click and drag your cursor to the location of the scale where you would like to make your rating and then let go. When you let go of the slider, your response will be recorded and the next trial will begin. <br>
                    We are interested in your initial impressions of each map for the given concept, so please go with your first intuition. <br>
                    Before you begin the experiment, there will be four training trials for you to practice using the scale. <br>
                     When you are ready to start the training trials, please click ""Continue"".</p><br></div>","0","","","","","","","","","","","","","",""
"","","","","","html-slider-response","8","51885","0.0-8.0-0.0","c99pnpsd6c","5","NaN","<div style=""width:500px;"">
                                    <p style=""font-size:25px;"">Please move the slider all the way to the <br> right endpoint of the scale</p>

                                    </div>
                                </div>","200","","0","","true","0","true","","","","","","","",""
"","","","","","html-button-response","9","53030","0.0-8.0-1.0","c99pnpsd6c","5","642","<p align='center'><b>Good job!</b> Click on 'Continue' to proceed.</p>","0","","","","","","","","","","","","","",""
"","","","","","html-slider-response","10","54014","0.0-9.0-0.0","c99pnpsd6c","5","NaN","<div style=""width:500px;"">
                                    <p style=""font-size:25px;"">Please move the slider all the way to the <br> left endpoint of the scale</p>

                                    </div>
                                </div>","200","","0","","true","1","false","","","","","","","",""
"","","","","","html-button-response","11","55983","0.0-9.0-1.0","c99pnpsd6c","5","1466","<p align='center'><b>Not quite!</b> The slider was not placed near the instructed located. Click on 'Continue' to try again. </p>","0","","","","","","","","","","","","","",""
"","","","","","html-slider-response","12","57872","0.0-9.1-0.1","c99pnpsd6c","5","NaN","<div style=""width:500px;"">
                                    <p style=""font-size:25px;"">Please move the slider all the way to the <br> left endpoint of the scale</p>

                                    </div>
                                </div>","-200","","0","","true","1","true","","","","","","","",""
"","","","","","html-button-response","13","59060","0.0-9.1-1.1","c99pnpsd6c","5","686","<p align='center'><b>Good job!</b> Click on 'Continue' to proceed.</p>","0","","","","","","","","","","","","","",""
"","","","","","html-slider-response","14","62325","0.0-10.0-0.0","c99pnpsd6c","5","NaN","<div style=""width:500px;"">
                                    <p style=""font-size:25px;"">Please move the slider halfway between the center and right endpoint of the scale</p>

                                    </div>
                                </div>","2","","0","","true","2","false","","","","","","","",""
"","","","","","html-button-response","15","63499","0.0-10.0-1.0","c99pnpsd6c","5","670","<p align='center'><b>Not quite!</b> The slider was not placed near the instructed located. Click on 'Continue' to try again. </p>","0","","","","","","","","","","","","","",""
"","","","","","html-slider-response","16","66781","0.0-10.1-0.1","c99pnpsd6c","5","NaN","<div style=""width:500px;"">
                                    <p style=""font-size:25px;"">Please move the slider halfway between the center and right endpoint of the scale</p>

                                    </div>
                                </div>","108","","0","","true","2","true","","","","","","","",""
"","","","","","html-button-response","17","67926","0.0-10.1-1.1","c99pnpsd6c","5","641","<p align='center'><b>Good job!</b> Click on 'Continue' to proceed.</p>","0","","","","","","","","","","","","","",""
"","","","","","html-slider-response","18","69840","0.0-11.0-0.0","c99pnpsd6c","5","NaN","<div style=""width:500px;"">
                                    <p style=""font-size:25px;"">Please move the slider halfway between the center and left endpoint of the scale</p>

                                    </div>
                                </div>","-105","","0","","true","3","true","","","","","","","",""
"","","","","","html-button-response","19","70910","0.0-11.0-1.0","c99pnpsd6c","5","565","<p align='center'><b>Good job!</b> Click on 'Continue' to proceed.</p>","0","","","","","","","","","","","","","",""
"","","","","","html-button-response","20","72033","0.0-12.0","c99pnpsd6c","5","1121","<p>Great job! You've completed the practice trials. Now you will begin the main task.</p>","0","","","","","","","","","","","","","",""
"","","","","","html-button-response","21","72829","0.0-13.0","c99pnpsd6c","5","794","<p>In this block of trials, you will be asked to rate how much you associate each map with:</p > <p style = 'font-size:150%; font-weight: bold'>positive</p><br></br>","0","","","","","","","","","","","","","",""
"","","","","","html-slider-response","22","73858","0.0-14.0","c99pnpsd6c","5","NaN","<div style=""width:500px;"">
                            <p style=""font-size:50px; font-weight:bold;""
                            >positive</p>
                            <div style=""width:240px; margin: auto;"">
                                <img src=""images/Y_L_S_05.png"" style= ""width:200px""alt=""img"">
                            </div>
                        </div>","95","","0","images/Y_L_S_05.png","","","","positive","2","05","Y","L","S","",""
"","","","","","html-slider-response","23","74926","0.0-15.0","c99pnpsd6c","5","NaN","<div style=""width:500px;"">
                            <p style=""font-size:50px; font-weight:bold;""
                            >positive</p>
                            <div style=""width:240px; margin: auto;"">
                                <img src=""images/Y_L_U_07.png"" style= ""width:200px""alt=""img"">
                            </div>
                        </div>","98","","0","images/Y_L_U_07.png","","","","positive","1","07","Y","L","U","",""
"","","","","","html-slider-response","24","75539","0.0-16.0","c99pnpsd6c","5","NaN","<div style=""width:500px;"">
                            <p style=""font-size:50px; font-weight:bold;""
                            >positive</p>
                            <div style=""width:240px; margin: auto;"">
                                <img src=""images/G_L_S_27.png"" style= ""width:200px""alt=""img"">
                            </div>
                        </div>","98","","0","images/G_L_S_27.png","","","","positive","2","27","G","L","S","",""
"","","","","","html-slider-response","25","76141","0.0-17.0","c99pnpsd6c","5","NaN","<div style=""width:500px;"">
                            <p style=""font-size:50px; font-weight:bold;""
                            >positive</p>
                            <div style=""width:240px; margin: auto;"">
                                <img src=""images/Y_L_U_07.png"" style= ""width:200px""alt=""img"">
                            </div>
                        </div>","98","","0","images/Y_L_U_07.png","","","","positive","2","07","Y","L","U","",""
"","","","","","html-slider-response","26","76801","0.0-18.0","c99pnpsd6c","5","NaN","<div style=""width:500px;"">
                            <p style=""font-size:50px; font-weight:bold;""
                            >positive</p>
                            <div style=""width:240px; margin: auto;"">
                                <img src=""images/R_D_U_26.png"" style= ""width:200px""alt=""img"">
                            </div>
                        </div>","98","","0","images/R_D_U_26.png","","","","positive","1","26","R","D","U","",""
"","","","","","html-slider-response","27","77461","0.0-19.0","c99pnpsd6c","5","NaN","<div style=""width:500px;"">
                            <p style=""font-size:50px; font-weight:bold;""
                            >positive</p>
                            <div style=""width:240px; margin: auto;"">
                                <img src=""images/G_D_U_33.png"" style= ""width:200px""alt=""img"">
                            </div>
                        </div>","98","","0","images/G_D_U_33.png","","","","positive","2","33","G","D","U","",""
"","","","","","html-slider-response","28","78210","0.0-20.0","c99pnpsd6c","5","NaN","<div style=""width:500px;"">
                            <p style=""font-size:50px; font-weight:bold;""
                            >positive</p>
                            <div style=""width:240px; margin: auto;"">
                                <img src=""images/B_D_U_02.png"" style= ""width:200px""alt=""img"">
                            </div>
                        </div>","150","","0","images/B_D_U_02.png","","","","positive","1","02","B","D","U","",""
"","","","","","html-slider-response","29","78868","0.0-21.0","c99pnpsd6c","5","NaN","<div style=""width:500px;"">
                            <p style=""font-size:50px; font-weight:bold;""
                            >positive</p>
                            <div style=""width:240px; margin: auto;"">
                                <img src=""images/R_D_S_23.png"" style= ""width:200px""alt=""img"">
                            </div>
                        </div>","75","","0","images/R_D_S_23.png","","","","positive","2","23","R","D","S","",""
"","","","","","html-slider-response","30","79577","0.0-22.0","c99pnpsd6c","5","NaN","<div style=""width:500px;"">
                            <p style=""font-size:50px; font-weight:bold;""
                            >positive</p>
                            <div style=""width:240px; margin: auto;"">
                                <img src=""images/R_L_U_15.png"" style= ""width:200px""alt=""img"">
                            </div>
                        </div>","159","","0","images/R_L_U_15.png","","","","positive","1","15","R","L","U","",""
"","","","","","html-slider-response","31","80218","0.0-23.0","c99pnpsd6c","5","NaN","<div style=""width:500px;"">
                            <p style=""font-size:50px; font-weight:bold;""
                            >positive</p>
                            <div style=""width:240px; margin: auto;"">
                                <img src=""images/Y_D_U_12.png"" style= ""width:200px""alt=""img"">
                            </div>
                        </div>","85","","0","images/Y_D_U_12.png","","","","positive","1","12","Y","D","U","",""
"","","","","","html-slider-response","32","80912","0.0-24.0","c99pnpsd6c","5","NaN","<div style=""width:500px;"">
                            <p style=""font-size:50px; font-weight:bold;""
                            >positive</p>
                            <div style=""width:240px; margin: auto;"">
                                <img src=""images/B_D_U_02.png"" style= ""width:200px""alt=""img"">
                            </div>
                        </div>","184","","0","images/B_D_U_02.png","","","","positive","2","02","B","D","U","",""
"","","","","","html-slider-response","33","81627","0.0-25.0","c99pnpsd6c","5","NaN","<div style=""width:500px;"">
                            <p style=""font-size:50px; font-weight:bold;""
                            >positive</p>
                            <div style=""width:240px; margin: auto;"">
                                <img src=""images/G_L_S_27.png"" style= ""width:200px""alt=""img"">
                            </div>
                        </div>","95","","0","images/G_L_S_27.png","","","","positive","1","27","G","L","S","",""
"","","","","","html-slider-response","34","82365","0.0-26.0","c99pnpsd6c","5","NaN","<div style=""width:500px;"">
                            <p style=""font-size:50px; font-weight:bold;""
                            >positive</p>
                            <div style=""width:240px; margin: auto;"">
                                <img src=""images/R_L_S_13.png"" style= ""width:200px""alt=""img"">
                            </div>
                        </div>","170","","0","images/R_L_S_13.png","","","","positive","1","13","R","L","S","",""
"","","","","","html-slider-response","35","83069","0.0-27.0","c99pnpsd6c","5","NaN","<div style=""width:500px;"">
                            <p style=""font-size:50px; font-weight:bold;""
                            >positive</p>
                            <div style=""width:240px; margin: auto;"">
                                <img src=""images/R_L_S_13.png"" style= ""width:200px""alt=""img"">
                            </div>
                        </div>","150","","0","images/R_L_S_13.png","","","","positive","2","13","R","L","S","",""
"","","","","","html-slider-response","36","83821","0.0-28.0","c99pnpsd6c","5","NaN","<div style=""width:500px;"">
                            <p style=""font-size:50px; font-weight:bold;""
                            >positive</p>
                            <div style=""width:240px; margin: auto;"">
                                <img src=""images/B_D_S_44.png"" style= ""width:200px""alt=""img"">
                            </div>
                        </div>","86","","0","images/B_D_S_44.png","","","","positive","2","44","B","D","S","",""
"","","","","","html-slider-response","37","84511","0.0-29.0","c99pnpsd6c","5","NaN","<div style=""width:500px;"">
                            <p style=""font-size:50px; font-weight:bold;""
                            >positive</p>
                            <div style=""width:240px; margin: auto;"">
                                <img src=""images/G_D_U_33.png"" style= ""width:200px""alt=""img"">
                            </div>
                        </div>","142","","0","images/G_D_U_33.png","","","","positive","1","33","G","D","U","",""
"","","","","","html-slider-response","38","85214","0.0-30.0","c99pnpsd6c","5","NaN","<div style=""width:500px;"">
                            <p style=""font-size:50px; font-weight:bold;""
                            >positive</p>
                            <div style=""width:240px; margin: auto;"">
                                <img src=""images/Y_L_S_05.png"" style= ""width:200px""alt=""img"">
                            </div>
                        </div>","170","","0","images/Y_L_S_05.png","","","","positive","1","05","Y","L","S","",""
"","","","","","html-slider-response","39","85798","0.0-31.0","c99pnpsd6c","5","NaN","<div style=""width:500px;"">
                            <p style=""font-size:50px; font-weight:bold;""
                            >positive</p>
                            <div style=""width:240px; margin: auto;"">
                                <img src=""images/B_L_U_41.png"" style= ""width:200px""alt=""img"">
                            </div>
                        </div>","136","","0","images/B_L_U_41.png","","","","positive","2","41","B","L","U","",""
"","","","","","html-slider-response","40","86583","0.0-32.0","c99pnpsd6c","5","NaN","<div style=""width:500px;"">
                            <p style=""font-size:50px; font-weight:bold;""
                            >positive</p>
                            <div style=""width:240px; margin: auto;"">
                                <img src=""images/G_D_S_30.png"" style= ""width:200px""alt=""img"">
                            </div>
                        </div>","109","","0","images/G_D_S_30.png","","","","positive","2","30","G","D","S","",""
"","","","","","html-slider-response","41","87285","0.0-33.0","c99pnpsd6c","5","NaN","<div style=""width:500px;"">
                            <p style=""font-size:50px; font-weight:bold;""
                            >positive</p>
                            <div style=""width:240px; margin: auto;"">
                                <img src=""images/B_D_S_44.png"" style= ""width:200px""alt=""img"">
                            </div>
                        </div>","78","","0","images/B_D_S_44.png","","","","positive","1","44","B","D","S","",""
"","","","","","html-slider-response","42","88021","0.0-34.0","c99pnpsd6c","5","NaN","<div style=""width:500px;"">
                            <p style=""font-size:50px; font-weight:bold;""
                            >positive</p>
                            <div style=""width:240px; margin: auto;"">
                                <img src=""images/G_D_S_30.png"" style= ""width:200px""alt=""img"">
                            </div>
                        </div>","176","","0","images/G_D_S_30.png","","","","positive","1","30","G","D","S","",""
"","","","","","html-slider-response","43","88818","0.0-35.0","c99pnpsd6c","5","NaN","<div style=""width:500px;"">
                            <p style=""font-size:50px; font-weight:bold;""
                            >positive</p>
                            <div style=""width:240px; margin: auto;"">
                                <img src=""images/B_L_S_37.png"" style= ""width:200px""alt=""img"">
                            </div>
                        </div>","82","","0","images/B_L_S_37.png","","","","positive","2","37","B","L","S","",""
"","","","","","html-slider-response","44","89551","0.0-36.0","c99pnpsd6c","5","NaN","<div style=""width:500px;"">
                            <p style=""font-size:50px; font-weight:bold;""
                            >positive</p>
                            <div style=""width:240px; margin: auto;"">
                                <img src=""images/R_L_U_15.png"" style= ""width:200px""alt=""img"">
                            </div>
                        </div>","180","","0","images/R_L_U_15.png","","","","positive","2","15","R","L","U","",""
"","","","","","html-slider-response","45","90149","0.0-37.0","c99pnpsd6c","5","NaN","<div style=""width:500px;"">
                            <p style=""font-size:50px; font-weight:bold;""
                            >positive</p>
                            <div style=""width:240px; margin: auto;"">
                                <img src=""images/Y_D_S_10.png"" style= ""width:200px""alt=""img"">
                            </div>
                        </div>","150","","0","images/Y_D_S_10.png","","","","positive","1","10","Y","D","S","",""
"","","","","","html-slider-response","46","90869","0.0-38.0","c99pnpsd6c","5","NaN","<div style=""width:500px;"">
                            <p style=""font-size:50px; font-weight:bold;""
                            >positive</p>
                            <div style=""width:240px; margin: auto;"">
                                <img src=""images/G_L_U_28.png"" style= ""width:200px""alt=""img"">
                            </div>
                        </div>","178","","0","images/G_L_U_28.png","","","","positive","2","28","G","L","U","",""
"","","","","","html-slider-response","47","91487","0.0-39.0","c99pnpsd6c","5","NaN","<div style=""width:500px;"">
                            <p style=""font-size:50px; font-weight:bold;""
                            >positive</p>
                            <div style=""width:240px; margin: auto;"">
                                <img src=""images/B_L_U_41.png"" style= ""width:200px""alt=""img"">
                            </div>
                        </div>","85","","0","images/B_L_U_41.png","","","","positive","1","41","B","L","U","",""
"","","","","","html-slider-response","48","92250","0.0-40.0","c99pnpsd6c","5","NaN","<div style=""width:500px;"">
                            <p style=""font-size:50px; font-weight:bold;""
                            >positive</p>
                            <div style=""width:240px; margin: auto;"">
                                <img src=""images/G_L_U_28.png"" style= ""width:200px""alt=""img"">
                            </div>
                        </div>","178","","0","images/G_L_U_28.png","","","","positive","1","28","G","L","U","",""
"","","","","","html-slider-response","49","92866","0.0-41.0","c99pnpsd6c","5","NaN","<div style=""width:500px;"">
                            <p style=""font-size:50px; font-weight:bold;""
                            >positive</p>
                            <div style=""width:240px; margin: auto;"">
                                <img src=""images/R_D_S_23.png"" style= ""width:200px""alt=""img"">
                            </div>
                        </div>","105","","0","images/R_D_S_23.png","","","","positive","1","23","R","D","S","",""
"","","","","","html-slider-response","50","93674","0.0-42.0","c99pnpsd6c","5","NaN","<div style=""width:500px;"">
                            <p style=""font-size:50px; font-weight:bold;""
                            >positive</p>
                            <div style=""width:240px; margin: auto;"">
                                <img src=""images/B_L_S_37.png"" style= ""width:200px""alt=""img"">
                            </div>
                        </div>","177","","0","images/B_L_S_37.png","","","","positive","1","37","B","L","S","",""
"","","","","","html-slider-response","51","94471","0.0-43.0","c99pnpsd6c","5","NaN","<div style=""width:500px;"">
                            <p style=""font-size:50px; font-weight:bold;""
                            >positive</p>
                            <div style=""width:240px; margin: auto;"">
                                <img src=""images/R_D_U_26.png"" style= ""width:200px""alt=""img"">
                            </div>
                        </div>","42","","0","images/R_D_U_26.png","","","","positive","2","26","R","D","U","",""
"","","","","","html-slider-response","52","95267","0.0-44.0","c99pnpsd6c","5","NaN","<div style=""width:500px;"">
                            <p style=""font-size:50px; font-weight:bold;""
                            >positive</p>
                            <div style=""width:240px; margin: auto;"">
                                <img src=""images/Y_D_S_10.png"" style= ""width:200px""alt=""img"">
                            </div>
                        </div>","-11","","0","images/Y_D_S_10.png","","","","positive","2","10","Y","D","S","",""
"","","","","","html-slider-response","53","95984","0.0-45.0","c99pnpsd6c","5","NaN","<div style=""width:500px;"">
                            <p style=""font-size:50px; font-weight:bold;""
                            >positive</p>
                            <div style=""width:240px; margin: auto;"">
                                <img src=""images/Y_D_U_12.png"" style= ""width:200px""alt=""img"">
                            </div>
                        </div>","-46","","0","images/Y_D_U_12.png","","","","positive","2","12","Y","D","U","",""
"","","","","","html-button-response","54","98390","0.0-46.0","c99pnpsd6c","5","1903","<p>Great Job! You've finished block 1.<br></br> You have 7 block(s) left to go.<br></br></p>","0","","","","","","","","","","","","","",""
"","","","","","html-button-response","55","98853","0.0-47.0","c99pnpsd6c","5","461","<p>In this block of trials, you will be asked to rate how much you associate each map with:</p > <p style = 'font-size:150%; font-weight: bold'>playful</p><br></br>","0","","","","","","","","","","","","","",""
"","","","","","html-slider-response","56","99222","0.0-48.0","c99pnpsd6c","5","NaN","<div style=""width:500px;"">
                            <p style=""font-size:50px; font-weight:bold;""
                            >playful</p>
                            <div style=""width:240px; margin: auto;"">
                                <img src=""images/R_L_S_13.png"" style= ""width:200px""alt=""img"">
                            </div>
                        </div>","-79","","0","images/R_L_S_13.png","","","","playful","2","13","R","L","S","",""
"","","","","","html-slider-response","57","99974","0.0-49.0","c99pnpsd6c","5","NaN","<div style=""width:500px;"">
                            <p style=""font-size:50px; font-weight:bold;""
                            >playful</p>
                            <div style=""width:240px; margin: auto;"">
                                <img src=""images/B_L_U_41.png"" style= ""width:200px""alt=""img"">
                            </div>
                        </div>","-102","","0","images/B_L_U_41.png","","","","playful","1","41","B","L","U","",""
"","","","","","html-slider-response","58","100685","0.0-50.0","c99pnpsd6c","5","NaN","<div style=""width:500px;"">
                            <p style=""font-size:50px; font-weight:bold;""
                            >playful</p>
                            <div style=""width:240px; margin: auto;"">
                                <img src=""images/G_L_U_28.png"" style= ""width:200px""alt=""img"">
                            </div>
                        </div>","-80","","0","images/G_L_U_28.png","","","","playful","2","28","G","L","U","",""
"","","","","","html-slider-response","59","101416","0.0-51.0","c99pnpsd6c","5","NaN","<div style=""width:500px;"">
                            <p style=""font-size:50px; font-weight:bold;""
                            >playful</p>
                            <div style=""width:240px; margin: auto;"">
                                <img src=""images/Y_L_S_05.png"" style= ""width:200px""alt=""img"">
                            </div>
                        </div>","-68","","0","images/Y_L_S_05.png","","","","playful","2","05","Y","L","S","",""
"","","","","","html-slider-response","60","102122","0.0-52.0","c99pnpsd6c","5","NaN","<div style=""width:500px;"">
                            <p style=""font-size:50px; font-weight:bold;""
                            >playful</p>
                            <div style=""width:240px; margin: auto;"">
                                <img src=""images/R_L_U_15.png"" style= ""width:200px""alt=""img"">
                            </div>
                        </div>","-124","","0","images/R_L_U_15.png","","","","playful","2","15","R","L","U","",""
"","","","","","html-slider-response","61","102886","0.0-53.0","c99pnpsd6c","5","NaN","<div style=""width:500px;"">
                            <p style=""font-size:50px; font-weight:bold;""
                            >playful</p>
                            <div style=""width:240px; margin: auto;"">
                                <img src=""images/B_L_S_37.png"" style= ""width:200px""alt=""img"">
                            </div>
                        </div>","-44","","0","images/B_L_S_37.png","","","","playful","1","37","B","L","S","",""
"","","","","","html-slider-response","62","103656","0.0-54.0","c99pnpsd6c","5","NaN","<div style=""width:500px;"">
                            <p style=""font-size:50px; font-weight:bold;""
                            >playful</p>
                            <div style=""width:240px; margin: auto;"">
                                <img src=""images/R_L_U_15.png"" style= ""width:200px""alt=""img"">
                            </div>
                        </div>","-126","","0","images/R_L_U_15.png","","","","playful","1","15","R","L","U","",""
"","","","","","html-slider-response","63","104445","0.0-55.0","c99pnpsd6c","5","NaN","<div style=""width:500px;"">
                            <p style=""font-size:50px; font-weight:bold;""
                            >playful</p>
                            <div style=""width:240px; margin: auto;"">
                                <img src=""images/G_D_S_30.png"" style= ""width:200px""alt=""img"">
                            </div>
                        </div>","68","","0","images/G_D_S_30.png","","","","playful","1","30","G","D","S","",""
"","","","","","html-slider-response","64","105254","0.0-56.0","c99pnpsd6c","5","NaN","<div style=""width:500px;"">
                            <p style=""font-size:50px; font-weight:bold;""
                            >playful</p>
                            <div style=""width:240px; margin: auto;"">
                                <img src=""images/Y_D_S_10.png"" style= ""width:200px""alt=""img"">
                            </div>
                        </div>","54","","0","images/Y_D_S_10.png","","","","playful","2","10","Y","D","S","",""
"","","","","","html-slider-response","65","106008","0.0-57.0","c99pnpsd6c","5","NaN","<div style=""width:500px;"">
                            <p style=""font-size:50px; font-weight:bold;""
                            >playful</p>
                            <div style=""width:240px; margin: auto;"">
                                <img src=""images/G_L_S_27.png"" style= ""width:200px""alt=""img"">
                            </div>
                        </div>","-34","","0","images/G_L_S_27.png","","","","playful","2","27","G","L","S","",""
"","","","","","html-slider-response","66","106815","0.0-58.0","c99pnpsd6c","5","NaN","<div style=""width:500px;"">
                            <p style=""font-size:50px; font-weight:bold;""
                            >playful</p>
                            <div style=""width:240px; margin: auto;"">
                                <img src=""images/R_L_S_13.png"" style= ""width:200px""alt=""img"">
                            </div>
                        </div>","94","","0","images/R_L_S_13.png","","","","playful","1","13","R","L","S","",""
"","","","","","html-slider-response","67","107400","0.0-59.0","c99pnpsd6c","5","NaN","<div style=""width:500px;"">
                            <p style=""font-size:50px; font-weight:bold;""
                            >playful</p>
                            <div style=""width:240px; margin: auto;"">
                                <img src=""images/R_D_S_23.png"" style= ""width:200px""alt=""img"">
                            </div>
                        </div>","-100","","0","images/R_D_S_23.png","","","","playful","2","23","R","D","S","",""
"","","","","","html-slider-response","68","107987","0.0-60.0","c99pnpsd6c","5","NaN","<div style=""width:500px;"">
                            <p style=""font-size:50px; font-weight:bold;""
                            >playful</p>
                            <div style=""width:240px; margin: auto;"">
                                <img src=""images/Y_D_S_10.png"" style= ""width:200px""alt=""img"">
                            </div>
                        </div>","128","","0","images/Y_D_S_10.png","","","","playful","1","10","Y","D","S","",""
"","","","","","html-slider-response","69","108601","0.0-61.0","c99pnpsd6c","5","NaN","<div style=""width:500px;"">
                            <p style=""font-size:50px; font-weight:bold;""
                            >playful</p>
                            <div style=""width:240px; margin: auto;"">
                                <img src=""images/B_L_S_37.png"" style= ""width:200px""alt=""img"">
                            </div>
                        </div>","108","","0","images/B_L_S_37.png","","","","playful","2","37","B","L","S","",""
"","","","","","html-slider-response","70","109365","0.0-62.0","c99pnpsd6c","5","NaN","<div style=""width:500px;"">
                            <p style=""font-size:50px; font-weight:bold;""
                            >playful</p>
                            <div style=""width:240px; margin: auto;"">
                                <img src=""images/G_D_U_33.png"" style= ""width:200px""alt=""img"">
                            </div>
                        </div>","128","","0","images/G_D_U_33.png","","","","playful","1","33","G","D","U","",""
"","","","","","html-slider-response","71","110180","0.0-63.0","c99pnpsd6c","5","NaN","<div style=""width:500px;"">
                            <p style=""font-size:50px; font-weight:bold;""
                            >playful</p>
                            <div style=""width:240px; margin: auto;"">
                                <img src=""images/Y_L_U_07.png"" style= ""width:200px""alt=""img"">
                            </div>
                        </div>","114","","0","images/Y_L_U_07.png","","","","playful","1","07","Y","L","U","",""
"","","","","","html-slider-response","72","110790","0.0-64.0","c99pnpsd6c","5","NaN","<div style=""width:500px;"">
                            <p style=""font-size:50px; font-weight:bold;""
                            >playful</p>
                            <div style=""width:240px; margin: auto;"">
                                <img src=""images/R_D_U_26.png"" style= ""width:200px""alt=""img"">
                            </div>
                        </div>","122","","0","images/R_D_U_26.png","","","","playful","2","26","R","D","U","",""
"","","","","","html-slider-response","73","111600","0.0-65.0","c99pnpsd6c","5","NaN","<div style=""width:500px;"">
                            <p style=""font-size:50px; font-weight:bold;""
                            >playful</p>
                            <div style=""width:240px; margin: auto;"">
                                <img src=""images/G_L_U_28.png"" style= ""width:200px""alt=""img"">
                            </div>
                        </div>","97","","0","images/G_L_U_28.png","","","","playful","1","28","G","L","U","",""
"","","","","","html-slider-response","74","112200","0.0-66.0","c99pnpsd6c","5","NaN","<div style=""width:500px;"">
                            <p style=""font-size:50px; font-weight:bold;""
                            >playful</p>
                            <div style=""width:240px; margin: auto;"">
                                <img src=""images/B_D_S_44.png"" style= ""width:200px""alt=""img"">
                            </div>
                        </div>","130","","0","images/B_D_S_44.png","","","","playful","1","44","B","D","S","",""
"","","","","","html-slider-response","75","112919","0.0-67.0","c99pnpsd6c","5","NaN","<div style=""width:500px;"">
                            <p style=""font-size:50px; font-weight:bold;""
                            >playful</p>
                            <div style=""width:240px; margin: auto;"">
                                <img src=""images/B_D_S_44.png"" style= ""width:200px""alt=""img"">
                            </div>
                        </div>","128","","0","images/B_D_S_44.png","","","","playful","2","44","B","D","S","",""
"","","","","","html-slider-response","76","113504","0.0-68.0","c99pnpsd6c","5","NaN","<div style=""width:500px;"">
                            <p style=""font-size:50px; font-weight:bold;""
                            >playful</p>
                            <div style=""width:240px; margin: auto;"">
                                <img src=""images/Y_D_U_12.png"" style= ""width:200px""alt=""img"">
                            </div>
                        </div>","102","","0","images/Y_D_U_12.png","","","","playful","2","12","Y","D","U","",""
"","","","","","html-slider-response","77","114164","0.0-69.0","c99pnpsd6c","5","NaN","<div style=""width:500px;"">
                            <p style=""font-size:50px; font-weight:bold;""
                            >playful</p>
                            <div style=""width:240px; margin: auto;"">
                                <img src=""images/Y_D_U_12.png"" style= ""width:200px""alt=""img"">
                            </div>
                        </div>","114","","0","images/Y_D_U_12.png","","","","playful","1","12","Y","D","U","",""
"","","","","","html-slider-response","78","114810","0.0-70.0","c99pnpsd6c","5","NaN","<div style=""width:500px;"">
                            <p style=""font-size:50px; font-weight:bold;""
                            >playful</p>
                            <div style=""width:240px; margin: auto;"">
                                <img src=""images/G_D_S_30.png"" style= ""width:200px""alt=""img"">
                            </div>
                        </div>","62","","0","images/G_D_S_30.png","","","","playful","2","30","G","D","S","",""
"","","","","","html-slider-response","79","115455","0.0-71.0","c99pnpsd6c","5","NaN","<div style=""width:500px;"">
                            <p style=""font-size:50px; font-weight:bold;""
                            >playful</p>
                            <div style=""width:240px; margin: auto;"">
                                <img src=""images/B_L_U_41.png"" style= ""width:200px""alt=""img"">
                            </div>
                        </div>","114","","0","images/B_L_U_41.png","","","","playful","2","41","B","L","U","",""
"","","","","","html-slider-response","80","116160","0.0-72.0","c99pnpsd6c","5","NaN","<div style=""width:500px;"">
                            <p style=""font-size:50px; font-weight:bold;""
                            >playful</p>
                            <div style=""width:240px; margin: auto;"">
                                <img src=""images/G_L_S_27.png"" style= ""width:200px""alt=""img"">
                            </div>
                        </div>","109","","0","images/G_L_S_27.png","","","","playful","1","27","G","L","S","",""
"","","","","","html-slider-response","81","116909","0.0-73.0","c99pnpsd6c","5","NaN","<div style=""width:500px;"">
                            <p style=""font-size:50px; font-weight:bold;""
                            >playful</p>
                            <div style=""width:240px; margin: auto;"">
                                <img src=""images/R_D_S_23.png"" style= ""width:200px""alt=""img"">
                            </div>
                        </div>","104","","0","images/R_D_S_23.png","","","","playful","1","23","R","D","S","",""
"","","","","","html-slider-response","82","117647","0.0-74.0","c99pnpsd6c","5","NaN","<div style=""width:500px;"">
                            <p style=""font-size:50px; font-weight:bold;""
                            >playful</p>
                            <div style=""width:240px; margin: auto;"">
                                <img src=""images/B_D_U_02.png"" style= ""width:200px""alt=""img"">
                            </div>
                        </div>","150","","0","images/B_D_U_02.png","","","","playful","2","02","B","D","U","",""
"","","","","","html-slider-response","83","118440","0.0-75.0","c99pnpsd6c","5","NaN","<div style=""width:500px;"">
                            <p style=""font-size:50px; font-weight:bold;""
                            >playful</p>
                            <div style=""width:240px; margin: auto;"">
                                <img src=""images/G_D_U_33.png"" style= ""width:200px""alt=""img"">
                            </div>
                        </div>","174","","0","images/G_D_U_33.png","","","","playful","2","33","G","D","U","",""
"","","","","","html-slider-response","84","119056","0.0-76.0","c99pnpsd6c","5","NaN","<div style=""width:500px;"">
                            <p style=""font-size:50px; font-weight:bold;""
                            >playful</p>
                            <div style=""width:240px; margin: auto;"">
                                <img src=""images/B_D_U_02.png"" style= ""width:200px""alt=""img"">
                            </div>
                        </div>","126","","0","images/B_D_U_02.png","","","","playful","1","02","B","D","U","",""
"","","","","","html-slider-response","85","119710","0.0-77.0","c99pnpsd6c","5","NaN","<div style=""width:500px;"">
                            <p style=""font-size:50px; font-weight:bold;""
                            >playful</p>
                            <div style=""width:240px; margin: auto;"">
                                <img src=""images/Y_L_S_05.png"" style= ""width:200px""alt=""img"">
                            </div>
                        </div>","148","","0","images/Y_L_S_05.png","","","","playful","1","05","Y","L","S","",""
"","","","","","html-slider-response","86","120514","0.0-78.0","c99pnpsd6c","5","NaN","<div style=""width:500px;"">
                            <p style=""font-size:50px; font-weight:bold;""
                            >playful</p>
                            <div style=""width:240px; margin: auto;"">
                                <img src=""images/Y_L_U_07.png"" style= ""width:200px""alt=""img"">
                            </div>
                        </div>","120","","0","images/Y_L_U_07.png","","","","playful","2","07","Y","L","U","",""
"","","","","","html-slider-response","87","121318","0.0-79.0","c99pnpsd6c","5","NaN","<div style=""width:500px;"">
                            <p style=""font-size:50px; font-weight:bold;""
                            >playful</p>
                            <div style=""width:240px; margin: auto;"">
                                <img src=""images/R_D_U_26.png"" style= ""width:200px""alt=""img"">
                            </div>
                        </div>","146","","0","images/R_D_U_26.png","","","","playful","1","26","R","D","U","",""
"","","","","","html-button-response","88","143108","0.0-80.0","c99pnpsd6c","5","21299","<p>Great Job! You've finished block 2.<br></br> You have 6 block(s) left to go.<br></br></p>","0","","","","","","","","","","","","","",""
"","","","","","html-button-response","89","143871","0.0-81.0","c99pnpsd6c","5","762","<p>In this block of trials, you will be asked to rate how much you associate each map with:</p > <p style = 'font-size:150%; font-weight: bold'>trustworthy</p><br></br>","0","","","","","","","","","","","","","",""
"","","","","","html-slider-response","90","144482","0.0-82.0","c99pnpsd6c","5","NaN","<div style=""width:500px;"">
                            <p style=""font-size:50px; font-weight:bold;""
                            >trustworthy</p>
                            <div style=""width:240px; margin: auto;"">
                                <img src=""images/B_L_U_41.png"" style= ""width:200px""alt=""img"">
                            </div>
                        </div>","110","","0","images/B_L_U_41.png","","","","trustworthy","1","41","B","L","U","",""
"","","","","","html-slider-response","91","145248","0.0-83.0","c99pnpsd6c","5","NaN","<div style=""width:500px;"">
                            <p style=""font-size:50px; font-weight:bold;""
                            >trustworthy</p>
                            <div style=""width:240px; margin: auto;"">
                                <img src=""images/G_L_S_27.png"" style= ""width:200px""alt=""img"">
                            </div>
                        </div>","102","","0","images/G_L_S_27.png","","","","trustworthy","1","27","G","L","S","",""
"","","","","","html-slider-response","92","146313","0.0-84.0","c99pnpsd6c","5","NaN","<div style=""width:500px;"">
                            <p style=""font-size:50px; font-weight:bold;""
                            >trustworthy</p>
                            <div style=""width:240px; margin: auto;"">
                                <img src=""images/G_L_S_27.png"" style= ""width:200px""alt=""img"">
                            </div>
                        </div>","102","","0","images/G_L_S_27.png","","","","trustworthy","2","27","G","L","S","",""
"","","","","","html-slider-response","93","146967","0.0-85.0","c99pnpsd6c","5","NaN","<div style=""width:500px;"">
                            <p style=""font-size:50px; font-weight:bold;""
                            >trustworthy</p>
                            <div style=""width:240px; margin: auto;"">
                                <img src=""images/Y_D_U_12.png"" style= ""width:200px""alt=""img"">
                            </div>
                        </div>","102","","0","images/Y_D_U_12.png","","","","trustworthy","2","12","Y","D","U","",""
"","","","","","html-slider-response","94","147717","0.0-86.0","c99pnpsd6c","5","NaN","<div style=""width:500px;"">
                            <p style=""font-size:50px; font-weight:bold;""
                            >trustworthy</p>
                            <div style=""width:240px; margin: auto;"">
                                <img src=""images/G_L_U_28.png"" style= ""width:200px""alt=""img"">
                            </div>
                        </div>","102","","0","images/G_L_U_28.png","","","","trustworthy","1","28","G","L","U","",""
"","","","","","html-slider-response","95","148271","0.0-87.0","c99pnpsd6c","5","NaN","<div style=""width:500px;"">
                            <p style=""font-size:50px; font-weight:bold;""
                            >trustworthy</p>
                            <div style=""width:240px; margin: auto;"">
                                <img src=""images/Y_L_U_07.png"" style= ""width:200px""alt=""img"">
                            </div>
                        </div>","102","","0","images/Y_L_U_07.png","","","","trustworthy","1","07","Y","L","U","",""
"","","","","","html-slider-response","96","148817","0.0-88.0","c99pnpsd6c","5","NaN","<div style=""width:500px;"">
                            <p style=""font-size:50px; font-weight:bold;""
                            >trustworthy</p>
                            <div style=""width:240px; margin: auto;"">
                                <img src=""images/R_L_U_15.png"" style= ""width:200px""alt=""img"">
                            </div>
                        </div>","102","","0","images/R_L_U_15.png","","","","trustworthy","2","15","R","L","U","",""
"","","","","","html-slider-response","97","149456","0.0-89.0","c99pnpsd6c","5","NaN","<div style=""width:500px;"">
                            <p style=""font-size:50px; font-weight:bold;""
                            >trustworthy</p>
                            <div style=""width:240px; margin: auto;"">
                                <img src=""images/Y_L_S_05.png"" style= ""width:200px""alt=""img"">
                            </div>
                        </div>","102","","0","images/Y_L_S_05.png","","","","trustworthy","2","05","Y","L","S","",""
"","","","","","html-slider-response","98","150344","0.0-90.0","c99pnpsd6c","5","NaN","<div style=""width:500px;"">
                            <p style=""font-size:50px; font-weight:bold;""
                            >trustworthy</p>
                            <div style=""width:240px; margin: auto;"">
                                <img src=""images/B_L_U_41.png"" style= ""width:200px""alt=""img"">
                            </div>
                        </div>","133","","0","images/B_L_U_41.png","","","","trustworthy","2","41","B","L","U","",""
"","","","","","html-slider-response","99","151070","0.0-91.0","c99pnpsd6c","5","NaN","<div style=""width:500px;"">
                            <p style=""font-size:50px; font-weight:bold;""
                            >trustworthy</p>
                            <div style=""width:240px; margin: auto;"">
                                <img src=""images/R_D_U_26.png"" style= ""width:200px""alt=""img"">
                            </div>
                        </div>","120","","0","images/R_D_U_26.png","","","","trustworthy","1","26","R","D","U","",""
"","","","","","html-slider-response","100","151592","0.0-92.0","c99pnpsd6c","5","NaN","<div style=""width:500px;"">
                            <p style=""font-size:50px; font-weight:bold;""
                            >trustworthy</p>
                            <div style=""width:240px; margin: auto;"">
                                <img src=""images/R_D_S_23.png"" style= ""width:200px""alt=""img"">
                            </div>
                        </div>","120","","0","images/R_D_S_23.png","","","","trustworthy","1","23","R","D","S","",""
"","","","","","html-slider-response","101","152194","0.0-93.0","c99pnpsd6c","5","NaN","<div style=""width:500px;"">
                            <p style=""font-size:50px; font-weight:bold;""
                            >trustworthy</p>
                            <div style=""width:240px; margin: auto;"">
                                <img src=""images/R_D_U_26.png"" style= ""width:200px""alt=""img"">
                            </div>
                        </div>","120","","0","images/R_D_U_26.png","","","","trustworthy","2","26","R","D","U","",""
"","","","","","html-slider-response","102","152823","0.0-94.0","c99pnpsd6c","5","NaN","<div style=""width:500px;"">
                            <p style=""font-size:50px; font-weight:bold;""
                            >trustworthy</p>
                            <div style=""width:240px; margin: auto;"">
                                <img src=""images/B_D_S_44.png"" style= ""width:200px""alt=""img"">
                            </div>
                        </div>","120","","0","images/B_D_S_44.png","","","","trustworthy","2","44","B","D","S","",""
"","","","","","html-slider-response","103","153420","0.0-95.0","c99pnpsd6c","5","NaN","<div style=""width:500px;"">
                            <p style=""font-size:50px; font-weight:bold;""
                            >trustworthy</p>
                            <div style=""width:240px; margin: auto;"">
                                <img src=""images/Y_D_U_12.png"" style= ""width:200px""alt=""img"">
                            </div>
                        </div>","120","","0","images/Y_D_U_12.png","","","","trustworthy","1","12","Y","D","U","",""
"","","","","","html-slider-response","104","154058","0.0-96.0","c99pnpsd6c","5","NaN","<div style=""width:500px;"">
                            <p style=""font-size:50px; font-weight:bold;""
                            >trustworthy</p>
                            <div style=""width:240px; margin: auto;"">
                                <img src=""images/R_L_U_15.png"" style= ""width:200px""alt=""img"">
                            </div>
                        </div>","120","","0","images/R_L_U_15.png","","","","trustworthy","1","15","R","L","U","",""
"","","","","","html-slider-response","105","154645","0.0-97.0","c99pnpsd6c","5","NaN","<div style=""width:500px;"">
                            <p style=""font-size:50px; font-weight:bold;""
                            >trustworthy</p>
                            <div style=""width:240px; margin: auto;"">
                                <img src=""images/B_L_S_37.png"" style= ""width:200px""alt=""img"">
                            </div>
                        </div>","120","","0","images/B_L_S_37.png","","","","trustworthy","2","37","B","L","S","",""
"","","","","","html-slider-response","106","155256","0.0-98.0","c99pnpsd6c","5","NaN","<div style=""width:500px;"">
                            <p style=""font-size:50px; font-weight:bold;""
                            >trustworthy</p>
                            <div style=""width:240px; margin: auto;"">
                                <img src=""images/B_D_S_44.png"" style= ""width:200px""alt=""img"">
                            </div>
                        </div>","120","","0","images/B_D_S_44.png","","","","trustworthy","1","44","B","D","S","",""
"","","","","","html-slider-response","107","155869","0.0-99.0","c99pnpsd6c","5","NaN","<div style=""width:500px;"">
                            <p style=""font-size:50px; font-weight:bold;""
                            >trustworthy</p>
                            <div style=""width:240px; margin: auto;"">
                                <img src=""images/B_D_U_02.png"" style= ""width:200px""alt=""img"">
                            </div>
                        </div>","120","","0","images/B_D_U_02.png","","","","trustworthy","1","02","B","D","U","",""
"","","","","","html-slider-response","108","156521","0.0-100.0","c99pnpsd6c","5","NaN","<div style=""width:500px;"">
                            <p style=""font-size:50px; font-weight:bold;""
                            >trustworthy</p>
                            <div style=""width:240px; margin: auto;"">
                                <img src=""images/Y_D_S_10.png"" style= ""width:200px""alt=""img"">
                            </div>
                        </div>","120","","0","images/Y_D_S_10.png","","","","trustworthy","1","10","Y","D","S","",""
"","","","","","html-slider-response","109","157177","0.0-101.0","c99pnpsd6c","5","NaN","<div style=""width:500px;"">
                            <p style=""font-size:50px; font-weight:bold;""
                            >trustworthy</p>
                            <div style=""width:240px; margin: auto;"">
                                <img src=""images/Y_D_S_10.png"" style= ""width:200px""alt=""img"">
                            </div>
                        </div>","120","","0","images/Y_D_S_10.png","","","","trustworthy","2","10","Y","D","S","",""
"","","","","","html-slider-response","110","157844","0.0-102.0","c99pnpsd6c","5","NaN","<div style=""width:500px;"">
                            <p style=""font-size:50px; font-weight:bold;""
                            >trustworthy</p>
                            <div style=""width:240px; margin: auto;"">
                                <img src=""images/R_L_S_13.png"" style= ""width:200px""alt=""img"">
                            </div>
                        </div>","120","","0","images/R_L_S_13.png","","","","trustworthy","2","13","R","L","S","",""
"","","","","","html-slider-response","111","158377","0.0-103.0","c99pnpsd6c","5","NaN","<div style=""width:500px;"">
                            <p style=""font-size:50px; font-weight:bold;""
                            >trustworthy</p>
                            <div style=""width:240px; margin: auto;"">
                                <img src=""images/G_D_S_30.png"" style= ""width:200px""alt=""img"">
                            </div>
                        </div>","120","","0","images/G_D_S_30.png","","","","trustworthy","1","30","G","D","S","",""
"","","","","","html-slider-response","112","159083","0.0-104.0","c99pnpsd6c","5","NaN","<div style=""width:500px;"">
                            <p style=""font-size:50px; font-weight:bold;""
                            >trustworthy</p>
                            <div style=""width:240px; margin: auto;"">
                                <img src=""images/G_D_S_30.png"" style= ""width:200px""alt=""img"">
                            </div>
                        </div>","120","","0","images/G_D_S_30.png","","","","trustworthy","2","30","G","D","S","",""
"","","","","","html-slider-response","113","159790","0.0-105.0","c99pnpsd6c","5","NaN","<div style=""width:500px;"">
                            <p style=""font-size:50px; font-weight:bold;""
                            >trustworthy</p>
                            <div style=""width:240px; margin: auto;"">
                                <img src=""images/R_D_S_23.png"" style= ""width:200px""alt=""img"">
                            </div>
                        </div>","120","","0","images/R_D_S_23.png","","","","trustworthy","2","23","R","D","S","",""
"","","","","","html-slider-response","114","160401","0.0-106.0","c99pnpsd6c","5","NaN","<div style=""width:500px;"">
                            <p style=""font-size:50px; font-weight:bold;""
                            >trustworthy</p>
                            <div style=""width:240px; margin: auto;"">
                                <img src=""images/Y_L_U_07.png"" style= ""width:200px""alt=""img"">
                            </div>
                        </div>","120","","0","images/Y_L_U_07.png","","","","trustworthy","2","07","Y","L","U","",""
"","","","","","html-slider-response","115","161157","0.0-107.0","c99pnpsd6c","5","NaN","<div style=""width:500px;"">
                            <p style=""font-size:50px; font-weight:bold;""
                            >trustworthy</p>
                            <div style=""width:240px; margin: auto;"">
                                <img src=""images/G_D_U_33.png"" style= ""width:200px""alt=""img"">
                            </div>
                        </div>","120","","0","images/G_D_U_33.png","","","","trustworthy","2","33","G","D","U","",""
"","","","","","html-slider-response","116","161771","0.0-108.0","c99pnpsd6c","5","NaN","<div style=""width:500px;"">
                            <p style=""font-size:50px; font-weight:bold;""
                            >trustworthy</p>
                            <div style=""width:240px; margin: auto;"">
                                <img src=""images/B_L_S_37.png"" style= ""width:200px""alt=""img"">
                            </div>
                        </div>","120","","0","images/B_L_S_37.png","","","","trustworthy","1","37","B","L","S","",""
"","","","","","html-slider-response","117","162421","0.0-109.0","c99pnpsd6c","5","NaN","<div style=""width:500px;"">
                            <p style=""font-size:50px; font-weight:bold;""
                            >trustworthy</p>
                            <div style=""width:240px; margin: auto;"">
                                <img src=""images/Y_L_S_05.png"" style= ""width:200px""alt=""img"">
                            </div>
                        </div>","120","","0","images/Y_L_S_05.png","","","","trustworthy","1","05","Y","L","S","",""
"","","","","","html-slider-response","118","163118","0.0-110.0","c99pnpsd6c","5","NaN","<div style=""width:500px;"">
                            <p style=""font-size:50px; font-weight:bold;""
                            >trustworthy</p>
                            <div style=""width:240px; margin: auto;"">
                                <img src=""images/G_D_U_33.png"" style= ""width:200px""alt=""img"">
                            </div>
                        </div>","120","","0","images/G_D_U_33.png","","","","trustworthy","1","33","G","D","U","",""
"","","","","","html-slider-response","119","163939","0.0-111.0","c99pnpsd6c","5","NaN","<div style=""width:500px;"">
                            <p style=""font-size:50px; font-weight:bold;""
                            >trustworthy</p>
                            <div style=""width:240px; margin: auto;"">
                                <img src=""images/B_D_U_02.png"" style= ""width:200px""alt=""img"">
                            </div>
                        </div>","120","","0","images/B_D_U_02.png","","","","trustworthy","2","02","B","D","U","",""
"","","","","","html-slider-response","120","164673","0.0-112.0","c99pnpsd6c","5","NaN","<div style=""width:500px;"">
                            <p style=""font-size:50px; font-weight:bold;""
                            >trustworthy</p>
                            <div style=""width:240px; margin: auto;"">
                                <img src=""images/R_L_S_13.png"" style= ""width:200px""alt=""img"">
                            </div>
                        </div>","117","","0","images/R_L_S_13.png","","","","trustworthy","1","13","R","L","S","",""
"","","","","","html-slider-response","121","165313","0.0-113.0","c99pnpsd6c","5","NaN","<div style=""width:500px;"">
                            <p style=""font-size:50px; font-weight:bold;""
                            >trustworthy</p>
                            <div style=""width:240px; margin: auto;"">
                                <img src=""images/G_L_U_28.png"" style= ""width:200px""alt=""img"">
                            </div>
                        </div>","83","","0","images/G_L_U_28.png","","","","trustworthy","2","28","G","L","U","",""
"","","","","","html-button-response","122","174404","0.0-114.0","c99pnpsd6c","5","8590","<p>Great Job! You've finished block 3.<br></br> You have 5 block(s) left to go.<br></br></p>","0","","","","","","","","","","","","","",""
"","","","","","html-button-response","123","175008","0.0-115.0","c99pnpsd6c","5","602","<p>In this block of trials, you will be asked to rate how much you associate each map with:</p > <p style = 'font-size:150%; font-weight: bold'>disturbing</p><br></br>","0","","","","","","","","","","","","","",""
"","","","","","html-slider-response","124","175653","0.0-116.0","c99pnpsd6c","5","NaN","<div style=""width:500px;"">
                            <p style=""font-size:50px; font-weight:bold;""
                            >disturbing</p>
                            <div style=""width:240px; margin: auto;"">
                                <img src=""images/B_D_S_44.png"" style= ""width:200px""alt=""img"">
                            </div>
                        </div>","-108","","0","images/B_D_S_44.png","","","","disturbing","2","44","B","D","S","",""
"","","","","","html-slider-response","125","176402","0.0-117.0","c99pnpsd6c","5","NaN","<div style=""width:500px;"">
                            <p style=""font-size:50px; font-weight:bold;""
                            >disturbing</p>
                            <div style=""width:240px; margin: auto;"">
                                <img src=""images/G_L_U_28.png"" style= ""width:200px""alt=""img"">
                            </div>
                        </div>","-108","","0","images/G_L_U_28.png","","","","disturbing","1","28","G","L","U","",""
"","","","","","html-slider-response","126","176964","0.0-118.0","c99pnpsd6c","5","NaN","<div style=""width:500px;"">
                            <p style=""font-size:50px; font-weight:bold;""
                            >disturbing</p>
                            <div style=""width:240px; margin: auto;"">
                                <img src=""images/Y_L_U_07.png"" style= ""width:200px""alt=""img"">
                            </div>
                        </div>","-108","","0","images/Y_L_U_07.png","","","","disturbing","2","07","Y","L","U","",""
"","","","","","html-slider-response","127","177529","0.0-119.0","c99pnpsd6c","5","NaN","<div style=""width:500px;"">
                            <p style=""font-size:50px; font-weight:bold;""
                            >disturbing</p>
                            <div style=""width:240px; margin: auto;"">
                                <img src=""images/R_L_S_13.png"" style= ""width:200px""alt=""img"">
                            </div>
                        </div>","-108","","0","images/R_L_S_13.png","","","","disturbing","2","13","R","L","S","",""
"","","","","","html-slider-response","128","178167","0.0-120.0","c99pnpsd6c","5","NaN","<div style=""width:500px;"">
                            <p style=""font-size:50px; font-weight:bold;""
                            >disturbing</p>
                            <div style=""width:240px; margin: auto;"">
                                <img src=""images/R_L_U_15.png"" style= ""width:200px""alt=""img"">
                            </div>
                        </div>","-108","","0","images/R_L_U_15.png","","","","disturbing","1","15","R","L","U","",""
"","","","","","html-slider-response","129","178951","0.0-121.0","c99pnpsd6c","5","NaN","<div style=""width:500px;"">
                            <p style=""font-size:50px; font-weight:bold;""
                            >disturbing</p>
                            <div style=""width:240px; margin: auto;"">
                                <img src=""images/R_L_U_15.png"" style= ""width:200px""alt=""img"">
                            </div>
                        </div>","-108","","0","images/R_L_U_15.png","","","","disturbing","2","15","R","L","U","",""
"","","","","","html-slider-response","130","179641","0.0-122.0","c99pnpsd6c","5","NaN","<div style=""width:500px;"">
                            <p style=""font-size:50px; font-weight:bold;""
                            >disturbing</p>
                            <div style=""width:240px; margin: auto;"">
                                <img src=""images/Y_L_S_05.png"" style= ""width:200px""alt=""img"">
                            </div>
                        </div>","-108","","0","images/Y_L_S_05.png","","","","disturbing","2","05","Y","L","S","",""
"","","","","","html-slider-response","131","180167","0.0-123.0","c99pnpsd6c","5","NaN","<div style=""width:500px;"">
                            <p style=""font-size:50px; font-weight:bold;""
                            >disturbing</p>
                            <div style=""width:240px; margin: auto;"">
                                <img src=""images/G_D_S_30.png"" style= ""width:200px""alt=""img"">
                            </div>
                        </div>","-108","","0","images/G_D_S_30.png","","","","disturbing","2","30","G","D","S","",""
"","","","","","html-slider-response","132","180862","0.0-124.0","c99pnpsd6c","5","NaN","<div style=""width:500px;"">
                            <p style=""font-size:50px; font-weight:bold;""
                            >disturbing</p>
                            <div style=""width:240px; margin: auto;"">
                                <img src=""images/Y_D_U_12.png"" style= ""width:200px""alt=""img"">
                            </div>
                        </div>","-108","","0","images/Y_D_U_12.png","","","","disturbing","2","12","Y","D","U","",""
"","","","","","html-slider-response","133","181592","0.0-125.0","c99pnpsd6c","5","NaN","<div style=""width:500px;"">
                            <p style=""font-size:50px; font-weight:bold;""
                            >disturbing</p>
                            <div style=""width:240px; margin: auto;"">
                                <img src=""images/R_D_U_26.png"" style= ""width:200px""alt=""img"">
                            </div>
                        </div>","-108","","0","images/R_D_U_26.png","","","","disturbing","2","26","R","D","U","",""
"","","","","","html-slider-response","134","182499","0.0-126.0","c99pnpsd6c","5","NaN","<div style=""width:500px;"">
                            <p style=""font-size:50px; font-weight:bold;""
                            >disturbing</p>
                            <div style=""width:240px; margin: auto;"">
                                <img src=""images/G_D_S_30.png"" style= ""width:200px""alt=""img"">
                            </div>
                        </div>","-108","","0","images/G_D_S_30.png","","","","disturbing","1","30","G","D","S","",""
"","","","","","html-slider-response","135","183248","0.0-127.0","c99pnpsd6c","5","NaN","<div style=""width:500px;"">
                            <p style=""font-size:50px; font-weight:bold;""
                            >disturbing</p>
                            <div style=""width:240px; margin: auto;"">
                                <img src=""images/B_L_U_41.png"" style= ""width:200px""alt=""img"">
                            </div>
                        </div>","-108","","0","images/B_L_U_41.png","","","","disturbing","2","41","B","L","U","",""
"","","","","","html-slider-response","136","184249","0.0-128.0","c99pnpsd6c","5","NaN","<div style=""width:500px;"">
                            <p style=""font-size:50px; font-weight:bold;""
                            >disturbing</p>
                            <div style=""width:240px; margin: auto;"">
                                <img src=""images/R_D_S_23.png"" style= ""width:200px""alt=""img"">
                            </div>
                        </div>","-108","","0","images/R_D_S_23.png","","","","disturbing","1","23","R","D","S","",""
"","","","","","html-slider-response","137","184837","0.0-129.0","c99pnpsd6c","5","NaN","<div style=""width:500px;"">
                            <p style=""font-size:50px; font-weight:bold;""
                            >disturbing</p>
                            <div style=""width:240px; margin: auto;"">
                                <img src=""images/B_D_U_02.png"" style= ""width:200px""alt=""img"">
                            </div>
                        </div>","-108","","0","images/B_D_U_02.png","","","","disturbing","1","02","B","D","U","",""
"","","","","","html-slider-response","138","185545","0.0-130.0","c99pnpsd6c","5","NaN","<div style=""width:500px;"">
                            <p style=""font-size:50px; font-weight:bold;""
                            >disturbing</p>
                            <div style=""width:240px; margin: auto;"">
                                <img src=""images/R_D_S_23.png"" style= ""width:200px""alt=""img"">
                            </div>
                        </div>","-108","","0","images/R_D_S_23.png","","","","disturbing","2","23","R","D","S","",""
"","","","","","html-slider-response","139","186309","0.0-131.0","c99pnpsd6c","5","NaN","<div style=""width:500px;"">
                            <p style=""font-size:50px; font-weight:bold;""
                            >disturbing</p>
                            <div style=""width:240px; margin: auto;"">
                                <img src=""images/Y_L_S_05.png"" style= ""width:200px""alt=""img"">
                            </div>
                        </div>","-108","","0","images/Y_L_S_05.png","","","","disturbing","1","05","Y","L","S","",""
"","","","","","html-slider-response","140","187263","0.0-132.0","c99pnpsd6c","5","NaN","<div style=""width:500px;"">
                            <p style=""font-size:50px; font-weight:bold;""
                            >disturbing</p>
                            <div style=""width:240px; margin: auto;"">
                                <img src=""images/B_L_U_41.png"" style= ""width:200px""alt=""img"">
                            </div>
                        </div>","-108","","0","images/B_L_U_41.png","","","","disturbing","1","41","B","L","U","",""
"","","","","","html-slider-response","141","188412","0.0-133.0","c99pnpsd6c","5","NaN","<div style=""width:500px;"">
                            <p style=""font-size:50px; font-weight:bold;""
                            >disturbing</p>
                            <div style=""width:240px; margin: auto;"">
                                <img src=""images/G_L_S_27.png"" style= ""width:200px""alt=""img"">
                            </div>
                        </div>","-108","","0","images/G_L_S_27.png","","","","disturbing","1","27","G","L","S","",""
"","","","","","html-slider-response","142","190005","0.0-134.0","c99pnpsd6c","5","NaN","<div style=""width:500px;"">
                            <p style=""font-size:50px; font-weight:bold;""
                            >disturbing</p>
                            <div style=""width:240px; margin: auto;"">
                                <img src=""images/Y_D_S_10.png"" style= ""width:200px""alt=""img"">
                            </div>
                        </div>","-108","","0","images/Y_D_S_10.png","","","","disturbing","2","10","Y","D","S","",""
"","","","","","html-slider-response","143","191056","0.0-135.0","c99pnpsd6c","5","NaN","<div style=""width:500px;"">
                            <p style=""font-size:50px; font-weight:bold;""
                            >disturbing</p>
                            <div style=""width:240px; margin: auto;"">
                                <img src=""images/Y_D_U_12.png"" style= ""width:200px""alt=""img"">
                            </div>
                        </div>","-108","","0","images/Y_D_U_12.png","","","","disturbing","1","12","Y","D","U","",""
"","","","","","html-slider-response","144","191660","0.0-136.0","c99pnpsd6c","5","NaN","<div style=""width:500px;"">
                            <p style=""font-size:50px; font-weight:bold;""
                            >disturbing</p>
                            <div style=""width:240px; margin: auto;"">
                                <img src=""images/G_L_S_27.png"" style= ""width:200px""alt=""img"">
                            </div>
                        </div>","-108","","0","images/G_L_S_27.png","","","","disturbing","2","27","G","L","S","",""
"","","","","","html-slider-response","145","192301","0.0-137.0","c99pnpsd6c","5","NaN","<div style=""width:500px;"">
                            <p style=""font-size:50px; font-weight:bold;""
                            >disturbing</p>
                            <div style=""width:240px; margin: auto;"">
                                <img src=""images/B_D_S_44.png"" style= ""width:200px""alt=""img"">
                            </div>
                        </div>","-108","","0","images/B_D_S_44.png","","","","disturbing","1","44","B","D","S","",""
"","","","","","html-slider-response","146","194964","0.0-138.0","c99pnpsd6c","5","NaN","<div style=""width:500px;"">
                            <p style=""font-size:50px; font-weight:bold;""
                            >disturbing</p>
                            <div style=""width:240px; margin: auto;"">
                                <img src=""images/G_D_U_33.png"" style= ""width:200px""alt=""img"">
                            </div>
                        </div>","-67","","0","images/G_D_U_33.png","","","","disturbing","2","33","G","D","U","",""
"","","","","","html-slider-response","147","195520","0.0-139.0","c99pnpsd6c","5","NaN","<div style=""width:500px;"">
                            <p style=""font-size:50px; font-weight:bold;""
                            >disturbing</p>
                            <div style=""width:240px; margin: auto;"">
                                <img src=""images/G_L_U_28.png"" style= ""width:200px""alt=""img"">
                            </div>
                        </div>","-67","","0","images/G_L_U_28.png","","","","disturbing","2","28","G","L","U","",""
"","","","","","html-slider-response","148","196088","0.0-140.0","c99pnpsd6c","5","NaN","<div style=""width:500px;"">
                            <p style=""font-size:50px; font-weight:bold;""
                            >disturbing</p>
                            <div style=""width:240px; margin: auto;"">
                                <img src=""images/B_L_S_37.png"" style= ""width:200px""alt=""img"">
                            </div>
                        </div>","-67","","0","images/B_L_S_37.png","","","","disturbing","1","37","B","L","S","",""
"","","","","","html-slider-response","149","196732","0.0-141.0","c99pnpsd6c","5","NaN","<div style=""width:500px;"">
                            <p style=""font-size:50px; font-weight:bold;""
                            >disturbing</p>
                            <div style=""width:240px; margin: auto;"">
                                <img src=""images/R_L_S_13.png"" style= ""width:200px""alt=""img"">
                            </div>
                        </div>","-67","","0","images/R_L_S_13.png","","","","disturbing","1","13","R","L","S","",""
"","","","","","html-slider-response","150","198422","0.0-142.0","c99pnpsd6c","5","NaN","<div style=""width:500px;"">
                            <p style=""font-size:50px; font-weight:bold;""
                            >disturbing</p>
                            <div style=""width:240px; margin: auto;"">
                                <img src=""images/B_D_U_02.png"" style= ""width:200px""alt=""img"">
                            </div>
                        </div>","-142","","0","images/B_D_U_02.png","","","","disturbing","2","02","B","D","U","",""
"","","","","","html-slider-response","151","199069","0.0-143.0","c99pnpsd6c","5","NaN","<div style=""width:500px;"">
                            <p style=""font-size:50px; font-weight:bold;""
                            >disturbing</p>
                            <div style=""width:240px; margin: auto;"">
                                <img src=""images/Y_D_S_10.png"" style= ""width:200px""alt=""img"">
                            </div>
                        </div>","-142","","0","images/Y_D_S_10.png","","","","disturbing","1","10","Y","D","S","",""
"","","","","","html-slider-response","152","199706","0.0-144.0","c99pnpsd6c","5","NaN","<div style=""width:500px;"">
                            <p style=""font-size:50px; font-weight:bold;""
                            >disturbing</p>
                            <div style=""width:240px; margin: auto;"">
                                <img src=""images/G_D_U_33.png"" style= ""width:200px""alt=""img"">
                            </div>
                        </div>","-142","","0","images/G_D_U_33.png","","","","disturbing","1","33","G","D","U","",""
"","","","","","html-slider-response","153","200354","0.0-145.0","c99pnpsd6c","5","NaN","<div style=""width:500px;"">
                            <p style=""font-size:50px; font-weight:bold;""
                            >disturbing</p>
                            <div style=""width:240px; margin: auto;"">
                                <img src=""images/R_D_U_26.png"" style= ""width:200px""alt=""img"">
                            </div>
                        </div>","-142","","0","images/R_D_U_26.png","","","","disturbing","1","26","R","D","U","",""
"","","","","","html-slider-response","154","201046","0.0-146.0","c99pnpsd6c","5","NaN","<div style=""width:500px;"">
                            <p style=""font-size:50px; font-weight:bold;""
                            >disturbing</p>
                            <div style=""width:240px; margin: auto;"">
                                <img src=""images/Y_L_U_07.png"" style= ""width:200px""alt=""img"">
                            </div>
                        </div>","-142","","0","images/Y_L_U_07.png","","","","disturbing","1","07","Y","L","U","",""
"","","","","","html-slider-response","155","201573","0.0-147.0","c99pnpsd6c","5","NaN","<div style=""width:500px;"">
                            <p style=""font-size:50px; font-weight:bold;""
                            >disturbing</p>
                            <div style=""width:240px; margin: auto;"">
                                <img src=""images/B_L_S_37.png"" style= ""width:200px""alt=""img"">
                            </div>
                        </div>","-142","","0","images/B_L_S_37.png","","","","disturbing","2","37","B","L","S","",""
"","","","","","html-button-response","156","207179","0.0-148.0","c99pnpsd6c","5","5102","<p>Great Job! You've finished block 4.<br></br> You have 4 block(s) left to go.<br></br></p>","0","","","","","","","","","","","","","",""
"","","","","","html-button-response","157","207690","0.0-149.0","c99pnpsd6c","5","509","<p>In this block of trials, you will be asked to rate how much you associate each map with:</p > <p style = 'font-size:150%; font-weight: bold'>serious</p><br></br>","0","","","","","","","","","","","","","",""
"","","","","","html-slider-response","158","208405","0.0-150.0","c99pnpsd6c","5","NaN","<div style=""width:500px;"">
                            <p style=""font-size:50px; font-weight:bold;""
                            >serious</p>
                            <div style=""width:240px; margin: auto;"">
                                <img src=""images/R_D_U_26.png"" style= ""width:200px""alt=""img"">
                            </div>
                        </div>","-97","","0","images/R_D_U_26.png","","","","serious","1","26","R","D","U","",""
"","","","","","html-slider-response","159","208990","0.0-151.0","c99pnpsd6c","5","NaN","<div style=""width:500px;"">
                            <p style=""font-size:50px; font-weight:bold;""
                            >serious</p>
                            <div style=""width:240px; margin: auto;"">
                                <img src=""images/B_D_U_02.png"" style= ""width:200px""alt=""img"">
                            </div>
                        </div>","-163","","0","images/B_D_U_02.png","","","","serious","2","02","B","D","U","",""
"","","","","","html-slider-response","160","209949","0.0-152.0","c99pnpsd6c","5","NaN","<div style=""width:500px;"">
                            <p style=""font-size:50px; font-weight:bold;""
                            >serious</p>
                            <div style=""width:240px; margin: auto;"">
                                <img src=""images/Y_D_S_10.png"" style= ""width:200px""alt=""img"">
                            </div>
                        </div>","-180","","0","images/Y_D_S_10.png","","","","serious","2","10","Y","D","S","",""
"","","","","","html-slider-response","161","210701","0.0-153.0","c99pnpsd6c","5","NaN","<div style=""width:500px;"">
                            <p style=""font-size:50px; font-weight:bold;""
                            >serious</p>
                            <div style=""width:240px; margin: auto;"">
                                <img src=""images/Y_L_S_05.png"" style= ""width:200px""alt=""img"">
                            </div>
                        </div>","-171","","0","images/Y_L_S_05.png","","","","serious","1","05","Y","L","S","",""
"","","","","","html-slider-response","162","211436","0.0-154.0","c99pnpsd6c","5","NaN","<div style=""width:500px;"">
                            <p style=""font-size:50px; font-weight:bold;""
                            >serious</p>
                            <div style=""width:240px; margin: auto;"">
                                <img src=""images/R_L_U_15.png"" style= ""width:200px""alt=""img"">
                            </div>
                        </div>","-173","","0","images/R_L_U_15.png","","","","serious","2","15","R","L","U","",""
"","","","","","html-slider-response","163","212155","0.0-155.0","c99pnpsd6c","5","NaN","<div style=""width:500px;"">
                            <p style=""font-size:50px; font-weight:bold;""
                            >serious</p>
                            <div style=""width:240px; margin: auto;"">
                                <img src=""images/B_L_U_41.png"" style= ""width:200px""alt=""img"">
                            </div>
                        </div>","-173","","0","images/B_L_U_41.png","","","","serious","1","41","B","L","U","",""
"","","","","","html-slider-response","164","212817","0.0-156.0","c99pnpsd6c","5","NaN","<div style=""width:500px;"">
                            <p style=""font-size:50px; font-weight:bold;""
                            >serious</p>
                            <div style=""width:240px; margin: auto;"">
                                <img src=""images/Y_L_S_05.png"" style= ""width:200px""alt=""img"">
                            </div>
                        </div>","-165","","0","images/Y_L_S_05.png","","","","serious","2","05","Y","L","S","",""
"","","","","","html-slider-response","165","213655","0.0-157.0","c99pnpsd6c","5","NaN","<div style=""width:500px;"">
                            <p style=""font-size:50px; font-weight:bold;""
                            >serious</p>
                            <div style=""width:240px; margin: auto;"">
                                <img src=""images/B_L_S_37.png"" style= ""width:200px""alt=""img"">
                            </div>
                        </div>","-163","","0","images/B_L_S_37.png","","","","serious","1","37","B","L","S","",""
"","","","","","html-slider-response","166","214283","0.0-158.0","c99pnpsd6c","5","NaN","<div style=""width:500px;"">
                            <p style=""font-size:50px; font-weight:bold;""
                            >serious</p>
                            <div style=""width:240px; margin: auto;"">
                                <img src=""images/R_L_S_13.png"" style= ""width:200px""alt=""img"">
                            </div>
                        </div>","-166","","0","images/R_L_S_13.png","","","","serious","1","13","R","L","S","",""
"","","","","","html-slider-response","167","214979","0.0-159.0","c99pnpsd6c","5","NaN","<div style=""width:500px;"">
                            <p style=""font-size:50px; font-weight:bold;""
                            >serious</p>
                            <div style=""width:240px; margin: auto;"">
                                <img src=""images/B_L_S_37.png"" style= ""width:200px""alt=""img"">
                            </div>
                        </div>","-142","","0","images/B_L_S_37.png","","","","serious","2","37","B","L","S","",""
"","","","","","html-slider-response","168","215621","0.0-160.0","c99pnpsd6c","5","NaN","<div style=""width:500px;"">
                            <p style=""font-size:50px; font-weight:bold;""
                            >serious</p>
                            <div style=""width:240px; margin: auto;"">
                                <img src=""images/Y_D_S_10.png"" style= ""width:200px""alt=""img"">
                            </div>
                        </div>","-144","","0","images/Y_D_S_10.png","","","","serious","1","10","Y","D","S","",""
"","","","","","html-slider-response","169","216238","0.0-161.0","c99pnpsd6c","5","NaN","<div style=""width:500px;"">
                            <p style=""font-size:50px; font-weight:bold;""
                            >serious</p>
                            <div style=""width:240px; margin: auto;"">
                                <img src=""images/B_D_U_02.png"" style= ""width:200px""alt=""img"">
                            </div>
                        </div>","-146","","0","images/B_D_U_02.png","","","","serious","1","02","B","D","U","",""
"","","","","","html-slider-response","170","216986","0.0-162.0","c99pnpsd6c","5","NaN","<div style=""width:500px;"">
                            <p style=""font-size:50px; font-weight:bold;""
                            >serious</p>
                            <div style=""width:240px; margin: auto;"">
                                <img src=""images/B_D_S_44.png"" style= ""width:200px""alt=""img"">
                            </div>
                        </div>","-142","","0","images/B_D_S_44.png","","","","serious","1","44","B","D","S","",""
"","","","","","html-slider-response","171","217645","0.0-163.0","c99pnpsd6c","5","NaN","<div style=""width:500px;"">
                            <p style=""font-size:50px; font-weight:bold;""
                            >serious</p>
                            <div style=""width:240px; margin: auto;"">
                                <img src=""images/G_D_S_30.png"" style= ""width:200px""alt=""img"">
                            </div>
                        </div>","-140","","0","images/G_D_S_30.png","","","","serious","1","30","G","D","S","",""
"","","","","","html-slider-response","172","218321","0.0-164.0","c99pnpsd6c","5","NaN","<div style=""width:500px;"">
                            <p style=""font-size:50px; font-weight:bold;""
                            >serious</p>
                            <div style=""width:240px; margin: auto;"">
                                <img src=""images/Y_D_U_12.png"" style= ""width:200px""alt=""img"">
                            </div>
                        </div>","-140","","0","images/Y_D_U_12.png","","","","serious","2","12","Y","D","U","",""
"","","","","","html-slider-response","173","219088","0.0-165.0","c99pnpsd6c","5","NaN","<div style=""width:500px;"">
                            <p style=""font-size:50px; font-weight:bold;""
                            >serious</p>
                            <div style=""width:240px; margin: auto;"">
                                <img src=""images/Y_L_U_07.png"" style= ""width:200px""alt=""img"">
                            </div>
                        </div>","-150","","0","images/Y_L_U_07.png","","","","serious","2","07","Y","L","U","",""
"","","","","","html-slider-response","174","219777","0.0-166.0","c99pnpsd6c","5","NaN","<div style=""width:500px;"">
                            <p style=""font-size:50px; font-weight:bold;""
                            >serious</p>
                            <div style=""width:240px; margin: auto;"">
                                <img src=""images/G_L_U_28.png"" style= ""width:200px""alt=""img"">
                            </div>
                        </div>","-152","","0","images/G_L_U_28.png","","","","serious","1","28","G","L","U","",""
"","","","","","html-slider-response","175","220405","0.0-167.0","c99pnpsd6c","5","NaN","<div style=""width:500px;"">
                            <p style=""font-size:50px; font-weight:bold;""
                            >serious</p>
                            <div style=""width:240px; margin: auto;"">
                                <img src=""images/G_L_S_27.png"" style= ""width:200px""alt=""img"">
                            </div>
                        </div>","-156","","0","images/G_L_S_27.png","","","","serious","2","27","G","L","S","",""
"","","","","","html-slider-response","176","221098","0.0-168.0","c99pnpsd6c","5","NaN","<div style=""width:500px;"">
                            <p style=""font-size:50px; font-weight:bold;""
                            >serious</p>
                            <div style=""width:240px; margin: auto;"">
                                <img src=""images/G_L_S_27.png"" style= ""width:200px""alt=""img"">
                            </div>
                        </div>","-156","","0","images/G_L_S_27.png","","","","serious","1","27","G","L","S","",""
"","","","","","html-slider-response","177","221766","0.0-169.0","c99pnpsd6c","5","NaN","<div style=""width:500px;"">
                            <p style=""font-size:50px; font-weight:bold;""
                            >serious</p>
                            <div style=""width:240px; margin: auto;"">
                                <img src=""images/Y_D_U_12.png"" style= ""width:200px""alt=""img"">
                            </div>
                        </div>","-134","","0","images/Y_D_U_12.png","","","","serious","1","12","Y","D","U","",""
"","","","","","html-slider-response","178","222416","0.0-170.0","c99pnpsd6c","5","NaN","<div style=""width:500px;"">
                            <p style=""font-size:50px; font-weight:bold;""
                            >serious</p>
                            <div style=""width:240px; margin: auto;"">
                                <img src=""images/R_L_U_15.png"" style= ""width:200px""alt=""img"">
                            </div>
                        </div>","-160","","0","images/R_L_U_15.png","","","","serious","1","15","R","L","U","",""
"","","","","","html-slider-response","179","223062","0.0-171.0","c99pnpsd6c","5","NaN","<div style=""width:500px;"">
                            <p style=""font-size:50px; font-weight:bold;""
                            >serious</p>
                            <div style=""width:240px; margin: auto;"">
                                <img src=""images/R_D_S_23.png"" style= ""width:200px""alt=""img"">
                            </div>
                        </div>","-96","","0","images/R_D_S_23.png","","","","serious","1","23","R","D","S","",""
"","","","","","html-slider-response","180","223869","0.0-172.0","c99pnpsd6c","5","NaN","<div style=""width:500px;"">
                            <p style=""font-size:50px; font-weight:bold;""
                            >serious</p>
                            <div style=""width:240px; margin: auto;"">
                                <img src=""images/R_D_S_23.png"" style= ""width:200px""alt=""img"">
                            </div>
                        </div>","-82","","0","images/R_D_S_23.png","","","","serious","2","23","R","D","S","",""
"","","","","","html-slider-response","181","224621","0.0-173.0","c99pnpsd6c","5","NaN","<div style=""width:500px;"">
                            <p style=""font-size:50px; font-weight:bold;""
                            >serious</p>
                            <div style=""width:240px; margin: auto;"">
                                <img src=""images/B_L_U_41.png"" style= ""width:200px""alt=""img"">
                            </div>
                        </div>","-74","","0","images/B_L_U_41.png","","","","serious","2","41","B","L","U","",""
"","","","","","html-slider-response","182","225249","0.0-174.0","c99pnpsd6c","5","NaN","<div style=""width:500px;"">
                            <p style=""font-size:50px; font-weight:bold;""
                            >serious</p>
                            <div style=""width:240px; margin: auto;"">
                                <img src=""images/G_D_S_30.png"" style= ""width:200px""alt=""img"">
                            </div>
                        </div>","-126","","0","images/G_D_S_30.png","","","","serious","2","30","G","D","S","",""
"","","","","","html-slider-response","183","225852","0.0-175.0","c99pnpsd6c","5","NaN","<div style=""width:500px;"">
                            <p style=""font-size:50px; font-weight:bold;""
                            >serious</p>
                            <div style=""width:240px; margin: auto;"">
                                <img src=""images/G_D_U_33.png"" style= ""width:200px""alt=""img"">
                            </div>
                        </div>","-162","","0","images/G_D_U_33.png","","","","serious","1","33","G","D","U","",""
"","","","","","html-slider-response","184","226466","0.0-176.0","c99pnpsd6c","5","NaN","<div style=""width:500px;"">
                            <p style=""font-size:50px; font-weight:bold;""
                            >serious</p>
                            <div style=""width:240px; margin: auto;"">
                                <img src=""images/R_L_S_13.png"" style= ""width:200px""alt=""img"">
                            </div>
                        </div>","-186","","0","images/R_L_S_13.png","","","","serious","2","13","R","L","S","",""
"","","","","","html-slider-response","185","227083","0.0-177.0","c99pnpsd6c","5","NaN","<div style=""width:500px;"">
                            <p style=""font-size:50px; font-weight:bold;""
                            >serious</p>
                            <div style=""width:240px; margin: auto;"">
                                <img src=""images/G_L_U_28.png"" style= ""width:200px""alt=""img"">
                            </div>
