"success","timeout","failed_images","failed_audio","failed_video","trial_type","trial_index","time_elapsed","internal_node_id","subject_id","condition_num","rt","stimulus","response","question_order","slider_start","image_path","practiceTrial","practiceTrialNum","correct","concept","repetition","map_id","hue","lightness","saturation","ishihara_plate","correct_response"
"true","false","[]","[]","[]","preload","0","1181","0.0-0.0","em1ap7atr9","9","","","","","","","","","","","","","","","","",""
"","","","","","html-button-response","1","2528","0.0-1.0","em1ap7atr9","9","1345","Welcome to our experiment!<p>At the bottom of this screen, you will see a button that says ""Begin Experiment"".<br>Please only click that button when you are ready to complete the 25 minute experiment in one sitting.</p><p> Once you click that button, it will not be possible to restart the experiment.","0","","","","","","","","","","","","","",""
"true","","","","","fullscreen","2","6214","0.0-2.0","em1ap7atr9","9","2671","","","","","","","","","","","","","","","",""
"","","","","","survey-multi-select","3","24637","0.0-3.0","em1ap7atr9","9","18414","","{""Consent"":[""<strong>I consent</strong>""]}","[0]","","","","","","","","","","","","",""
"","","","","","html-button-response","4","28012","0.0-4.0","em1ap7atr9","9","3373","Welcome! <p> This experiment involves two parts: demographic information, followed by the experimental task.<p> It will take about 25 minutes to complete both parts.","0","","","","","","","","","","","","","",""
"","","","","","survey-text","5","40824","0.0-5.0","em1ap7atr9","9","12799","","{""Age"":""18"",""Gender"":""Male"",""Race/ethnicity"":""White"",""Languages"":""English""}","","","","","","","","","","","","","",""
"","","","","","html-slider-response","6","64292","0.0-6.0","em1ap7atr9","9","23464","
                            <div style='text-align:left; font-size:20px; line-height:25px; width: 1400px;'>
                                During this experiment you will be asked to rate how much you associate maps with                    different concepts.<br> Below, you can see some examples of the maps you will be asked to rate. Next to the maps
                    is the list of concepts.<br>You will be asked                    to rate how much you associate each map with each concept on a scale from 'not at all' to 'very much' like the
                    one below. <br><br>
                    Now, please look at the list of concepts and maps. For each concept, think about the map you associate 'very
                    much' with the concept.<br>                     When you see that map during the experiment, please rate it near the 'very much' endpoint of the
                    scale.<br>Now, please think about which map you associate 'not at all'                     with each concept. When you see that map during the experiment, please rate it near the 'not at all' endpoint
                    of the scale.<br>
                    Please use the full range of the scale. That is, if a map is somewhat associated with the concept, you would
                    click partway between the middle point and right side of the scale.                    You will be asked to rate each map for a given concept before moving on to the next concept.<br><br>Press the
                    'Continue' button for instructions on how to use the slider.                    <br><br>
                </div>

                <div style=""width: 500px; margin: 0 auto;"">
                    <!-- Centered text paragraphs -->
                    <div style=""text-align: center; width: 500px;"">
                        <p style=""font-size:25px; line-height:18px;"">calm</p>
                        <p style=""font-size:25px; line-height:18px;"">exciting</p>
                        <p style=""font-size:25px;line-height:18px;"">positive</p>
                        <p style=""font-size:25px;line-height:18px;"">negative</p>
                        <p style=""font-size:25px;line-height:18px;"">serious</p>
                        <p style=""font-size:25px;line-height:18px;"">playful</p>
                        <p style=""font-size:25px;line-height:18px;"">trustworthy</p>
                        <p style=""font-size:25px;line-height:18px;"">disturbing</p>
                    </div>

                    <!-- Grid section -->
                   <div style=""display: flex; justify-content: center; padding-top: 15px;"">
                    <div style=""display: grid; grid-template-columns: repeat(8, 80px); grid-gap: 5px; width: auto;"">
                        <img src=""images/G_L_S_37.png"" alt=""map"" style=""width: 100%;""><img src=""images/Y_D_U_26.png"" alt=""map"" style=""width: 100%;""><img src=""images/R_L_S_27.png"" alt=""map"" style=""width: 100%;""><img src=""images/G_D_S_44.png"" alt=""map"" style=""width: 100%;""><img src=""images/Y_D_S_23.png"" alt=""map"" style=""width: 100%;""><img src=""images/Y_L_S_13.png"" alt=""map"" style=""width: 100%;""><img src=""images/G_L_U_41.png"" alt=""map"" style=""width: 100%;""><img src=""images/G_D_U_02.png"" alt=""map"" style=""width: 100%;""><img src=""images/B_L_U_07.png"" alt=""map"" style=""width: 100%;""><img src=""images/B_D_U_12.png"" alt=""map"" style=""width: 100%;""><img src=""images/Y_L_U_15.png"" alt=""map"" style=""width: 100%;""><img src=""images/B_D_S_10.png"" alt=""map"" style=""width: 100%;""><img src=""images/R_L_U_28.png"" alt=""map"" style=""width: 100%;""><img src=""images/B_L_S_05.png"" alt=""map"" style=""width: 100%;""><img src=""images/R_D_S_30.png"" alt=""map"" style=""width: 100%;""><img src=""images/R_D_U_33.png"" alt=""map"" style=""width: 100%;"">
                    </div>
                </div>

                    <!-- Clear floats -->
                    <div style=""clear: both;""></div>
                </div>
                            ","null","","0","maps_anchoring.png","true","","","","","","","","","",""
"","","","","","html-button-response","7","67650","0.0-7.0","em1ap7atr9","9","3355","<div style=""width:800px;""><p style=""text-align:left"">To move the slider, click and drag your cursor to the location of the scale where you would like to make your rating and then let go. When you let go of the slider, your response will be recorded and the next trial will begin. <br>
                    We are interested in your initial impressions of each map for the given concept, so please go with your first intuition. <br>
                    Before you begin the experiment, there will be four training trials for you to practice using the scale. <br>
                     When you are ready to start the training trials, please click ""Continue"".</p><br></div>","0","","","","","","","","","","","","","",""
"","","","","","html-slider-response","8","71732","0.0-8.0-0.0","em1ap7atr9","9","NaN","<div style=""width:500px;"">
                                    <p style=""font-size:25px;"">Please move the slider all the way to the <br> right endpoint of the scale</p>

                                    </div>
                                </div>","197","","0","","true","0","true","","","","","","","",""
"","","","","","html-button-response","9","73385","0.0-8.0-1.0","em1ap7atr9","9","1148","<p align='center'><b>Good job!</b> Click on 'Continue' to proceed.</p>","0","","","","","","","","","","","","","",""
"","","","","","html-slider-response","10","76018","0.0-9.0-0.0","em1ap7atr9","9","NaN","<div style=""width:500px;"">
                                    <p style=""font-size:25px;"">Please move the slider all the way to the <br> left endpoint of the scale</p>

                                    </div>
                                </div>","-196","","0","","true","1","true","","","","","","","",""
"","","","","","html-button-response","11","84066","0.0-9.0-1.0","em1ap7atr9","9","7530","<p align='center'><b>Good job!</b> Click on 'Continue' to proceed.</p>","0","","","","","","","","","","","","","",""
"","","","","","html-slider-response","12","87464","0.0-10.0-0.0","em1ap7atr9","9","NaN","<div style=""width:500px;"">
                                    <p style=""font-size:25px;"">Please move the slider halfway between the center and right endpoint of the scale</p>

                                    </div>
                                </div>","106","","0","","true","2","true","","","","","","","",""
"","","","","","html-button-response","13","88581","0.0-10.0-1.0","em1ap7atr9","9","614","<p align='center'><b>Good job!</b> Click on 'Continue' to proceed.</p>","0","","","","","","","","","","","","","",""
"","","","","","html-slider-response","14","91085","0.0-11.0-0.0","em1ap7atr9","9","NaN","<div style=""width:500px;"">
                                    <p style=""font-size:25px;"">Please move the slider halfway between the center and left endpoint of the scale</p>

                                    </div>
                                </div>","-96","","0","","true","3","true","","","","","","","",""
"","","","","","html-button-response","15","92278","0.0-11.0-1.0","em1ap7atr9","9","688","<p align='center'><b>Good job!</b> Click on 'Continue' to proceed.</p>","0","","","","","","","","","","","","","",""
"","","","","","html-button-response","16","93067","0.0-12.0","em1ap7atr9","9","788","<p>Great job! You've completed the practice trials. Now you will begin the main task.</p>","0","","","","","","","","","","","","","",""
"","","","","","html-button-response","17","95889","0.0-13.0","em1ap7atr9","9","2821","<p>In this block of trials, you will be asked to rate how much you associate each map with:</p > <p style = 'font-size:150%; font-weight: bold'>disturbing</p><br></br>","0","","","","","","","","","","","","","",""
"","","","","","html-slider-response","18","98613","0.0-14.0","em1ap7atr9","9","NaN","<div style=""width:500px;"">
                            <p style=""font-size:50px; font-weight:bold;""
                            >disturbing</p>
                            <div style=""width:240px; margin: auto;"">
                                <img src=""images/Y_D_S_23.png"" style= ""width:200px""alt=""img"">
                            </div>
                        </div>","-118","","0","images/Y_D_S_23.png","","","","disturbing","1","23","Y","D","S","",""
"","","","","","html-slider-response","19","100892","0.0-15.0","em1ap7atr9","9","NaN","<div style=""width:500px;"">
                            <p style=""font-size:50px; font-weight:bold;""
                            >disturbing</p>
                            <div style=""width:240px; margin: auto;"">
                                <img src=""images/R_D_S_30.png"" style= ""width:200px""alt=""img"">
                            </div>
                        </div>","-122","","0","images/R_D_S_30.png","","","","disturbing","1","30","R","D","S","",""
"","","","","","html-slider-response","20","102652","0.0-16.0","em1ap7atr9","9","NaN","<div style=""width:500px;"">
                            <p style=""font-size:50px; font-weight:bold;""
                            >disturbing</p>
                            <div style=""width:240px; margin: auto;"">
                                <img src=""images/B_D_S_10.png"" style= ""width:200px""alt=""img"">
                            </div>
                        </div>","-170","","0","images/B_D_S_10.png","","","","disturbing","2","10","B","D","S","",""
"","","","","","html-slider-response","21","104712","0.0-17.0","em1ap7atr9","9","NaN","<div style=""width:500px;"">
                            <p style=""font-size:50px; font-weight:bold;""
                            >disturbing</p>
                            <div style=""width:240px; margin: auto;"">
                                <img src=""images/G_D_U_02.png"" style= ""width:200px""alt=""img"">
                            </div>
                        </div>","-165","","0","images/G_D_U_02.png","","","","disturbing","1","02","G","D","U","",""
"","","","","","html-slider-response","22","106227","0.0-18.0","em1ap7atr9","9","NaN","<div style=""width:500px;"">
                            <p style=""font-size:50px; font-weight:bold;""
                            >disturbing</p>
                            <div style=""width:240px; margin: auto;"">
                                <img src=""images/R_L_U_28.png"" style= ""width:200px""alt=""img"">
                            </div>
                        </div>","-144","","0","images/R_L_U_28.png","","","","disturbing","2","28","R","L","U","",""
"","","","","","html-slider-response","23","107648","0.0-19.0","em1ap7atr9","9","NaN","<div style=""width:500px;"">
                            <p style=""font-size:50px; font-weight:bold;""
                            >disturbing</p>
                            <div style=""width:240px; margin: auto;"">
                                <img src=""images/Y_L_S_13.png"" style= ""width:200px""alt=""img"">
                            </div>
                        </div>","-142","","0","images/Y_L_S_13.png","","","","disturbing","2","13","Y","L","S","",""
"","","","","","html-slider-response","24","108978","0.0-20.0","em1ap7atr9","9","NaN","<div style=""width:500px;"">
                            <p style=""font-size:50px; font-weight:bold;""
                            >disturbing</p>
                            <div style=""width:240px; margin: auto;"">
                                <img src=""images/B_D_U_12.png"" style= ""width:200px""alt=""img"">
                            </div>
                        </div>","-131","","0","images/B_D_U_12.png","","","","disturbing","2","12","B","D","U","",""
"","","","","","html-slider-response","25","110308","0.0-21.0","em1ap7atr9","9","NaN","<div style=""width:500px;"">
                            <p style=""font-size:50px; font-weight:bold;""
                            >disturbing</p>
                            <div style=""width:240px; margin: auto;"">
                                <img src=""images/B_L_S_05.png"" style= ""width:200px""alt=""img"">
                            </div>
                        </div>","-136","","0","images/B_L_S_05.png","","","","disturbing","2","05","B","L","S","",""
"","","","","","html-slider-response","26","112212","0.0-22.0","em1ap7atr9","9","NaN","<div style=""width:500px;"">
                            <p style=""font-size:50px; font-weight:bold;""
                            >disturbing</p>
                            <div style=""width:240px; margin: auto;"">
                                <img src=""images/B_D_U_12.png"" style= ""width:200px""alt=""img"">
                            </div>
                        </div>","-149","","0","images/B_D_U_12.png","","","","disturbing","1","12","B","D","U","",""
"","","","","","html-slider-response","27","113588","0.0-23.0","em1ap7atr9","9","NaN","<div style=""width:500px;"">
                            <p style=""font-size:50px; font-weight:bold;""
                            >disturbing</p>
                            <div style=""width:240px; margin: auto;"">
                                <img src=""images/R_D_U_33.png"" style= ""width:200px""alt=""img"">
                            </div>
                        </div>","-149","","0","images/R_D_U_33.png","","","","disturbing","1","33","R","D","U","",""
"","","","","","html-slider-response","28","114825","0.0-24.0","em1ap7atr9","9","NaN","<div style=""width:500px;"">
                            <p style=""font-size:50px; font-weight:bold;""
                            >disturbing</p>
                            <div style=""width:240px; margin: auto;"">
                                <img src=""images/G_D_S_44.png"" style= ""width:200px""alt=""img"">
                            </div>
                        </div>","-149","","0","images/G_D_S_44.png","","","","disturbing","1","44","G","D","S","",""
"","","","","","html-slider-response","29","116166","0.0-25.0","em1ap7atr9","9","NaN","<div style=""width:500px;"">
                            <p style=""font-size:50px; font-weight:bold;""
                            >disturbing</p>
                            <div style=""width:240px; margin: auto;"">
                                <img src=""images/Y_L_U_15.png"" style= ""width:200px""alt=""img"">
                            </div>
                        </div>","-149","","0","images/Y_L_U_15.png","","","","disturbing","2","15","Y","L","U","",""
"","","","","","html-slider-response","30","119113","0.0-26.0","em1ap7atr9","9","NaN","<div style=""width:500px;"">
                            <p style=""font-size:50px; font-weight:bold;""
                            >disturbing</p>
                            <div style=""width:240px; margin: auto;"">
                                <img src=""images/Y_D_U_26.png"" style= ""width:200px""alt=""img"">
                            </div>
                        </div>","-55","","0","images/Y_D_U_26.png","","","","disturbing","2","26","Y","D","U","",""
"","","","","","html-slider-response","31","121080","0.0-27.0","em1ap7atr9","9","NaN","<div style=""width:500px;"">
                            <p style=""font-size:50px; font-weight:bold;""
                            >disturbing</p>
                            <div style=""width:240px; margin: auto;"">
                                <img src=""images/R_D_S_30.png"" style= ""width:200px""alt=""img"">
                            </div>
                        </div>","-145","","0","images/R_D_S_30.png","","","","disturbing","2","30","R","D","S","",""
"","","","","","html-slider-response","32","122816","0.0-28.0","em1ap7atr9","9","NaN","<div style=""width:500px;"">
                            <p style=""font-size:50px; font-weight:bold;""
                            >disturbing</p>
                            <div style=""width:240px; margin: auto;"">
                                <img src=""images/G_D_S_44.png"" style= ""width:200px""alt=""img"">
                            </div>
                        </div>","-79","","0","images/G_D_S_44.png","","","","disturbing","2","44","G","D","S","",""
"","","","","","html-slider-response","33","125179","0.0-29.0","em1ap7atr9","9","NaN","<div style=""width:500px;"">
                            <p style=""font-size:50px; font-weight:bold;""
                            >disturbing</p>
                            <div style=""width:240px; margin: auto;"">
                                <img src=""images/R_L_S_27.png"" style= ""width:200px""alt=""img"">
                            </div>
                        </div>","-156","","0","images/R_L_S_27.png","","","","disturbing","1","27","R","L","S","",""
"","","","","","html-slider-response","34","127037","0.0-30.0","em1ap7atr9","9","NaN","<div style=""width:500px;"">
                            <p style=""font-size:50px; font-weight:bold;""
                            >disturbing</p>
                            <div style=""width:240px; margin: auto;"">
                                <img src=""images/Y_D_S_23.png"" style= ""width:200px""alt=""img"">
                            </div>
                        </div>","-90","","0","images/Y_D_S_23.png","","","","disturbing","2","23","Y","D","S","",""
"","","","","","html-slider-response","35","128467","0.0-31.0","em1ap7atr9","9","NaN","<div style=""width:500px;"">
                            <p style=""font-size:50px; font-weight:bold;""
                            >disturbing</p>
                            <div style=""width:240px; margin: auto;"">
                                <img src=""images/Y_D_U_26.png"" style= ""width:200px""alt=""img"">
                            </div>
                        </div>","-115","","0","images/Y_D_U_26.png","","","","disturbing","1","26","Y","D","U","",""
"","","","","","html-slider-response","36","130150","0.0-32.0","em1ap7atr9","9","NaN","<div style=""width:500px;"">
                            <p style=""font-size:50px; font-weight:bold;""
                            >disturbing</p>
                            <div style=""width:240px; margin: auto;"">
                                <img src=""images/R_L_U_28.png"" style= ""width:200px""alt=""img"">
                            </div>
                        </div>","-146","","0","images/R_L_U_28.png","","","","disturbing","1","28","R","L","U","",""
"","","","","","html-slider-response","37","131933","0.0-33.0","em1ap7atr9","9","NaN","<div style=""width:500px;"">
                            <p style=""font-size:50px; font-weight:bold;""
                            >disturbing</p>
                            <div style=""width:240px; margin: auto;"">
                                <img src=""images/Y_L_U_15.png"" style= ""width:200px""alt=""img"">
                            </div>
                        </div>","-132","","0","images/Y_L_U_15.png","","","","disturbing","1","15","Y","L","U","",""
"","","","","","html-slider-response","38","133181","0.0-34.0","em1ap7atr9","9","NaN","<div style=""width:500px;"">
                            <p style=""font-size:50px; font-weight:bold;""
                            >disturbing</p>
                            <div style=""width:240px; margin: auto;"">
                                <img src=""images/B_D_S_10.png"" style= ""width:200px""alt=""img"">
                            </div>
                        </div>","-85","","0","images/B_D_S_10.png","","","","disturbing","1","10","B","D","S","",""
"","","","","","html-slider-response","39","135241","0.0-35.0","em1ap7atr9","9","NaN","<div style=""width:500px;"">
                            <p style=""font-size:50px; font-weight:bold;""
                            >disturbing</p>
                            <div style=""width:240px; margin: auto;"">
                                <img src=""images/R_L_S_27.png"" style= ""width:200px""alt=""img"">
                            </div>
                        </div>","-159","","0","images/R_L_S_27.png","","","","disturbing","2","27","R","L","S","",""
"","","","","","html-slider-response","40","136568","0.0-36.0","em1ap7atr9","9","NaN","<div style=""width:500px;"">
                            <p style=""font-size:50px; font-weight:bold;""
                            >disturbing</p>
                            <div style=""width:240px; margin: auto;"">
                                <img src=""images/G_L_U_41.png"" style= ""width:200px""alt=""img"">
                            </div>
                        </div>","-134","","0","images/G_L_U_41.png","","","","disturbing","2","41","G","L","U","",""
"","","","","","html-slider-response","41","138183","0.0-37.0","em1ap7atr9","9","NaN","<div style=""width:500px;"">
                            <p style=""font-size:50px; font-weight:bold;""
                            >disturbing</p>
                            <div style=""width:240px; margin: auto;"">
                                <img src=""images/Y_L_S_13.png"" style= ""width:200px""alt=""img"">
                            </div>
                        </div>","-86","","0","images/Y_L_S_13.png","","","","disturbing","1","13","Y","L","S","",""
"","","","","","html-slider-response","42","139667","0.0-38.0","em1ap7atr9","9","NaN","<div style=""width:500px;"">
                            <p style=""font-size:50px; font-weight:bold;""
                            >disturbing</p>
                            <div style=""width:240px; margin: auto;"">
                                <img src=""images/B_L_U_07.png"" style= ""width:200px""alt=""img"">
                            </div>
                        </div>","-112","","0","images/B_L_U_07.png","","","","disturbing","1","07","B","L","U","",""
"","","","","","html-slider-response","43","141723","0.0-39.0","em1ap7atr9","9","NaN","<div style=""width:500px;"">
                            <p style=""font-size:50px; font-weight:bold;""
                            >disturbing</p>
                            <div style=""width:240px; margin: auto;"">
                                <img src=""images/G_D_U_02.png"" style= ""width:200px""alt=""img"">
                            </div>
                        </div>","-83","","0","images/G_D_U_02.png","","","","disturbing","2","02","G","D","U","",""
"","","","","","html-slider-response","44","143569","0.0-40.0","em1ap7atr9","9","NaN","<div style=""width:500px;"">
                            <p style=""font-size:50px; font-weight:bold;""
                            >disturbing</p>
                            <div style=""width:240px; margin: auto;"">
                                <img src=""images/B_L_S_05.png"" style= ""width:200px""alt=""img"">
                            </div>
                        </div>","-162","","0","images/B_L_S_05.png","","","","disturbing","1","05","B","L","S","",""
"","","","","","html-slider-response","45","144906","0.0-41.0","em1ap7atr9","9","NaN","<div style=""width:500px;"">
                            <p style=""font-size:50px; font-weight:bold;""
                            >disturbing</p>
                            <div style=""width:240px; margin: auto;"">
                                <img src=""images/B_L_U_07.png"" style= ""width:200px""alt=""img"">
                            </div>
                        </div>","-154","","0","images/B_L_U_07.png","","","","disturbing","2","07","B","L","U","",""
"","","","","","html-slider-response","46","146666","0.0-42.0","em1ap7atr9","9","NaN","<div style=""width:500px;"">
                            <p style=""font-size:50px; font-weight:bold;""
                            >disturbing</p>
                            <div style=""width:240px; margin: auto;"">
                                <img src=""images/G_L_S_37.png"" style= ""width:200px""alt=""img"">
                            </div>
                        </div>","-109","","0","images/G_L_S_37.png","","","","disturbing","1","37","G","L","S","",""
"","","","","","html-slider-response","47","147983","0.0-43.0","em1ap7atr9","9","NaN","<div style=""width:500px;"">
                            <p style=""font-size:50px; font-weight:bold;""
                            >disturbing</p>
                            <div style=""width:240px; margin: auto;"">
                                <img src=""images/G_L_U_41.png"" style= ""width:200px""alt=""img"">
                            </div>
                        </div>","-126","","0","images/G_L_U_41.png","","","","disturbing","1","41","G","L","U","",""
"","","","","","html-slider-response","48","149628","0.0-44.0","em1ap7atr9","9","NaN","<div style=""width:500px;"">
                            <p style=""font-size:50px; font-weight:bold;""
                            >disturbing</p>
                            <div style=""width:240px; margin: auto;"">
                                <img src=""images/G_L_S_37.png"" style= ""width:200px""alt=""img"">
                            </div>
                        </div>","-135","","0","images/G_L_S_37.png","","","","disturbing","2","37","G","L","S","",""
"","","","","","html-slider-response","49","152216","0.0-45.0","em1ap7atr9","9","NaN","<div style=""width:500px;"">
                            <p style=""font-size:50px; font-weight:bold;""
                            >disturbing</p>
                            <div style=""width:240px; margin: auto;"">
                                <img src=""images/R_D_U_33.png"" style= ""width:200px""alt=""img"">
                            </div>
                        </div>","-61","","0","images/R_D_U_33.png","","","","disturbing","2","33","R","D","U","",""
"","","","","","html-button-response","50","156239","0.0-46.0","em1ap7atr9","9","3515","<p>Great Job! You've finished block 1.<br></br> You have 7 block(s) left to go.<br></br></p>","0","","","","","","","","","","","","","",""
"","","","","","html-button-response","51","158334","0.0-47.0","em1ap7atr9","9","2094","<p>In this block of trials, you will be asked to rate how much you associate each map with:</p > <p style = 'font-size:150%; font-weight: bold'>trustworthy</p><br></br>","0","","","","","","","","","","","","","",""
"","","","","","html-slider-response","52","163846","0.0-48.0","em1ap7atr9","9","NaN","<div style=""width:500px;"">
                            <p style=""font-size:50px; font-weight:bold;""
                            >trustworthy</p>
                            <div style=""width:240px; margin: auto;"">
                                <img src=""images/R_L_U_28.png"" style= ""width:200px""alt=""img"">
                            </div>
                        </div>","-54","","0","images/R_L_U_28.png","","","","trustworthy","1","28","R","L","U","",""
"","","","","","html-slider-response","53","165653","0.0-49.0","em1ap7atr9","9","NaN","<div style=""width:500px;"">
                            <p style=""font-size:50px; font-weight:bold;""
                            >trustworthy</p>
                            <div style=""width:240px; margin: auto;"">
                                <img src=""images/G_L_U_41.png"" style= ""width:200px""alt=""img"">
                            </div>
                        </div>","89","","0","images/G_L_U_41.png","","","","trustworthy","2","41","G","L","U","",""
"","","","","","html-slider-response","54","167617","0.0-50.0","em1ap7atr9","9","NaN","<div style=""width:500px;"">
                            <p style=""font-size:50px; font-weight:bold;""
                            >trustworthy</p>
                            <div style=""width:240px; margin: auto;"">
                                <img src=""images/G_D_U_02.png"" style= ""width:200px""alt=""img"">
                            </div>
                        </div>","30","","0","images/G_D_U_02.png","","","","trustworthy","2","02","G","D","U","",""
"","","","","","html-slider-response","55","169449","0.0-51.0","em1ap7atr9","9","NaN","<div style=""width:500px;"">
                            <p style=""font-size:50px; font-weight:bold;""
                            >trustworthy</p>
                            <div style=""width:240px; margin: auto;"">
                                <img src=""images/B_L_U_07.png"" style= ""width:200px""alt=""img"">
                            </div>
                        </div>","154","","0","images/B_L_U_07.png","","","","trustworthy","2","07","B","L","U","",""
"","","","","","html-slider-response","56","170867","0.0-52.0","em1ap7atr9","9","NaN","<div style=""width:500px;"">
                            <p style=""font-size:50px; font-weight:bold;""
                            >trustworthy</p>
                            <div style=""width:240px; margin: auto;"">
                                <img src=""images/Y_D_S_23.png"" style= ""width:200px""alt=""img"">
                            </div>
                        </div>","-77","","0","images/Y_D_S_23.png","","","","trustworthy","1","23","Y","D","S","",""
"","","","","","html-slider-response","57","172749","0.0-53.0","em1ap7atr9","9","NaN","<div style=""width:500px;"">
                            <p style=""font-size:50px; font-weight:bold;""
                            >trustworthy</p>
                            <div style=""width:240px; margin: auto;"">
                                <img src=""images/Y_L_S_13.png"" style= ""width:200px""alt=""img"">
                            </div>
                        </div>","-17","","0","images/Y_L_S_13.png","","","","trustworthy","2","13","Y","L","S","",""
"","","","","","html-slider-response","58","175031","0.0-54.0","em1ap7atr9","9","NaN","<div style=""width:500px;"">
                            <p style=""font-size:50px; font-weight:bold;""
                            >trustworthy</p>
                            <div style=""width:240px; margin: auto;"">
                                <img src=""images/G_D_S_44.png"" style= ""width:200px""alt=""img"">
                            </div>
                        </div>","38","","0","images/G_D_S_44.png","","","","trustworthy","2","44","G","D","S","",""
"","","","","","html-slider-response","59","177882","0.0-55.0","em1ap7atr9","9","NaN","<div style=""width:500px;"">
                            <p style=""font-size:50px; font-weight:bold;""
                            >trustworthy</p>
                            <div style=""width:240px; margin: auto;"">
                                <img src=""images/Y_L_U_15.png"" style= ""width:200px""alt=""img"">
                            </div>
                        </div>","-1","","0","images/Y_L_U_15.png","","","","trustworthy","1","15","Y","L","U","",""
"","","","","","html-slider-response","60","179901","0.0-56.0","em1ap7atr9","9","NaN","<div style=""width:500px;"">
                            <p style=""font-size:50px; font-weight:bold;""
                            >trustworthy</p>
                            <div style=""width:240px; margin: auto;"">
                                <img src=""images/B_L_U_07.png"" style= ""width:200px""alt=""img"">
                            </div>
                        </div>","123","","0","images/B_L_U_07.png","","","","trustworthy","1","07","B","L","U","",""
"","","","","","html-slider-response","61","181331","0.0-57.0","em1ap7atr9","9","NaN","<div style=""width:500px;"">
                            <p style=""font-size:50px; font-weight:bold;""
                            >trustworthy</p>
                            <div style=""width:240px; margin: auto;"">
                                <img src=""images/G_L_U_41.png"" style= ""width:200px""alt=""img"">
                            </div>
                        </div>","56","","0","images/G_L_U_41.png","","","","trustworthy","1","41","G","L","U","",""
"","","","","","html-slider-response","62","182914","0.0-58.0","em1ap7atr9","9","NaN","<div style=""width:500px;"">
                            <p style=""font-size:50px; font-weight:bold;""
                            >trustworthy</p>
                            <div style=""width:240px; margin: auto;"">
                                <img src=""images/B_D_S_10.png"" style= ""width:200px""alt=""img"">
                            </div>
                        </div>","65","","0","images/B_D_S_10.png","","","","trustworthy","2","10","B","D","S","",""
"","","","","","html-slider-response","63","185481","0.0-59.0","em1ap7atr9","9","NaN","<div style=""width:500px;"">
                            <p style=""font-size:50px; font-weight:bold;""
                            >trustworthy</p>
                            <div style=""width:240px; margin: auto;"">
                                <img src=""images/R_D_S_30.png"" style= ""width:200px""alt=""img"">
                            </div>
                        </div>","-17","","0","images/R_D_S_30.png","","","","trustworthy","1","30","R","D","S","",""
"","","","","","html-slider-response","64","187398","0.0-60.0","em1ap7atr9","9","NaN","<div style=""width:500px;"">
                            <p style=""font-size:50px; font-weight:bold;""
                            >trustworthy</p>
                            <div style=""width:240px; margin: auto;"">
                                <img src=""images/G_D_S_44.png"" style= ""width:200px""alt=""img"">
                            </div>
                        </div>","158","","0","images/G_D_S_44.png","","","","trustworthy","1","44","G","D","S","",""
"","","","","","html-slider-response","65","189030","0.0-61.0","em1ap7atr9","9","NaN","<div style=""width:500px;"">
                            <p style=""font-size:50px; font-weight:bold;""
                            >trustworthy</p>
                            <div style=""width:240px; margin: auto;"">
                                <img src=""images/R_D_S_30.png"" style= ""width:200px""alt=""img"">
                            </div>
                        </div>","-37","","0","images/R_D_S_30.png","","","","trustworthy","2","30","R","D","S","",""
"","","","","","html-slider-response","66","190742","0.0-62.0","em1ap7atr9","9","NaN","<div style=""width:500px;"">
                            <p style=""font-size:50px; font-weight:bold;""
                            >trustworthy</p>
                            <div style=""width:240px; margin: auto;"">
                                <img src=""images/R_L_U_28.png"" style= ""width:200px""alt=""img"">
                            </div>
                        </div>","-14","","0","images/R_L_U_28.png","","","","trustworthy","2","28","R","L","U","",""
"","","","","","html-slider-response","67","192215","0.0-63.0","em1ap7atr9","9","NaN","<div style=""width:500px;"">
                            <p style=""font-size:50px; font-weight:bold;""
                            >trustworthy</p>
                            <div style=""width:240px; margin: auto;"">
                                <img src=""images/B_D_U_12.png"" style= ""width:200px""alt=""img"">
                            </div>
                        </div>","154","","0","images/B_D_U_12.png","","","","trustworthy","1","12","B","D","U","",""
"","","","","","html-slider-response","68","194647","0.0-64.0","em1ap7atr9","9","NaN","<div style=""width:500px;"">
                            <p style=""font-size:50px; font-weight:bold;""
                            >trustworthy</p>
                            <div style=""width:240px; margin: auto;"">
                                <img src=""images/Y_D_S_23.png"" style= ""width:200px""alt=""img"">
                            </div>
                        </div>","92","","0","images/Y_D_S_23.png","","","","trustworthy","2","23","Y","D","S","",""
"","","","","","html-slider-response","69","198708","0.0-65.0","em1ap7atr9","9","NaN","<div style=""width:500px;"">
                            <p style=""font-size:50px; font-weight:bold;""
                            >trustworthy</p>
                            <div style=""width:240px; margin: auto;"">
                                <img src=""images/B_L_S_05.png"" style= ""width:200px""alt=""img"">
                            </div>
                        </div>","80","","0","images/B_L_S_05.png","","","","trustworthy","1","05","B","L","S","",""
"","","","","","html-slider-response","70","201214","0.0-66.0","em1ap7atr9","9","NaN","<div style=""width:500px;"">
                            <p style=""font-size:50px; font-weight:bold;""
                            >trustworthy</p>
                            <div style=""width:240px; margin: auto;"">
                                <img src=""images/Y_D_U_26.png"" style= ""width:200px""alt=""img"">
                            </div>
                        </div>","-74","","0","images/Y_D_U_26.png","","","","trustworthy","1","26","Y","D","U","",""
"","","","","","html-slider-response","71","203537","0.0-67.0","em1ap7atr9","9","NaN","<div style=""width:500px;"">
                            <p style=""font-size:50px; font-weight:bold;""
                            >trustworthy</p>
                            <div style=""width:240px; margin: auto;"">
                                <img src=""images/Y_D_U_26.png"" style= ""width:200px""alt=""img"">
                            </div>
                        </div>","-92","","0","images/Y_D_U_26.png","","","","trustworthy","2","26","Y","D","U","",""
"","","","","","html-slider-response","72","206818","0.0-68.0","em1ap7atr9","9","NaN","<div style=""width:500px;"">
                            <p style=""font-size:50px; font-weight:bold;""
                            >trustworthy</p>
                            <div style=""width:240px; margin: auto;"">
                                <img src=""images/G_D_U_02.png"" style= ""width:200px""alt=""img"">
                            </div>
                        </div>","33","","0","images/G_D_U_02.png","","","","trustworthy","1","02","G","D","U","",""
"","","","","","html-slider-response","73","209611","0.0-69.0","em1ap7atr9","9","NaN","<div style=""width:500px;"">
                            <p style=""font-size:50px; font-weight:bold;""
                            >trustworthy</p>
                            <div style=""width:240px; margin: auto;"">
                                <img src=""images/R_D_U_33.png"" style= ""width:200px""alt=""img"">
                            </div>
                        </div>","-10","","0","images/R_D_U_33.png","","","","trustworthy","1","33","R","D","U","",""
"","","","","","html-slider-response","74","211678","0.0-70.0","em1ap7atr9","9","NaN","<div style=""width:500px;"">
                            <p style=""font-size:50px; font-weight:bold;""
                            >trustworthy</p>
                            <div style=""width:240px; margin: auto;"">
                                <img src=""images/Y_L_S_13.png"" style= ""width:200px""alt=""img"">
                            </div>
                        </div>","13","","0","images/Y_L_S_13.png","","","","trustworthy","1","13","Y","L","S","",""
"","","","","","html-slider-response","75","213593","0.0-71.0","em1ap7atr9","9","NaN","<div style=""width:500px;"">
                            <p style=""font-size:50px; font-weight:bold;""
                            >trustworthy</p>
                            <div style=""width:240px; margin: auto;"">
                                <img src=""images/R_L_S_27.png"" style= ""width:200px""alt=""img"">
                            </div>
                        </div>","-13","","0","images/R_L_S_27.png","","","","trustworthy","2","27","R","L","S","",""
"","","","","","html-slider-response","76","215139","0.0-72.0","em1ap7atr9","9","NaN","<div style=""width:500px;"">
                            <p style=""font-size:50px; font-weight:bold;""
                            >trustworthy</p>
                            <div style=""width:240px; margin: auto;"">
                                <img src=""images/B_D_U_12.png"" style= ""width:200px""alt=""img"">
                            </div>
                        </div>","102","","0","images/B_D_U_12.png","","","","trustworthy","2","12","B","D","U","",""
"","","","","","html-slider-response","77","217163","0.0-73.0","em1ap7atr9","9","NaN","<div style=""width:500px;"">
                            <p style=""font-size:50px; font-weight:bold;""
                            >trustworthy</p>
                            <div style=""width:240px; margin: auto;"">
                                <img src=""images/Y_L_U_15.png"" style= ""width:200px""alt=""img"">
                            </div>
                        </div>","-6","","0","images/Y_L_U_15.png","","","","trustworthy","2","15","Y","L","U","",""
"","","","","","html-slider-response","78","219201","0.0-74.0","em1ap7atr9","9","NaN","<div style=""width:500px;"">
                            <p style=""font-size:50px; font-weight:bold;""
                            >trustworthy</p>
                            <div style=""width:240px; margin: auto;"">
                                <img src=""images/B_D_S_10.png"" style= ""width:200px""alt=""img"">
                            </div>
                        </div>","129","","0","images/B_D_S_10.png","","","","trustworthy","1","10","B","D","S","",""
"","","","","","html-slider-response","79","220814","0.0-75.0","em1ap7atr9","9","NaN","<div style=""width:500px;"">
                            <p style=""font-size:50px; font-weight:bold;""
                            >trustworthy</p>
                            <div style=""width:240px; margin: auto;"">
                                <img src=""images/G_L_S_37.png"" style= ""width:200px""alt=""img"">
                            </div>
                        </div>","82","","0","images/G_L_S_37.png","","","","trustworthy","2","37","G","L","S","",""
"","","","","","html-slider-response","80","222596","0.0-76.0","em1ap7atr9","9","NaN","<div style=""width:500px;"">
                            <p style=""font-size:50px; font-weight:bold;""
                            >trustworthy</p>
                            <div style=""width:240px; margin: auto;"">
                                <img src=""images/B_L_S_05.png"" style= ""width:200px""alt=""img"">
                            </div>
                        </div>","113","","0","images/B_L_S_05.png","","","","trustworthy","2","05","B","L","S","",""
"","","","","","html-slider-response","81","225080","0.0-77.0","em1ap7atr9","9","NaN","<div style=""width:500px;"">
                            <p style=""font-size:50px; font-weight:bold;""
                            >trustworthy</p>
                            <div style=""width:240px; margin: auto;"">
                                <img src=""images/R_D_U_33.png"" style= ""width:200px""alt=""img"">
                            </div>
                        </div>","-10","","0","images/R_D_U_33.png","","","","trustworthy","2","33","R","D","U","",""
"","","","","","html-slider-response","82","230080","0.0-78.0","em1ap7atr9","9","NaN","<div style=""width:500px;"">
                            <p style=""font-size:50px; font-weight:bold;""
                            >trustworthy</p>
                            <div style=""width:240px; margin: auto;"">
                                <img src=""images/R_L_S_27.png"" style= ""width:200px""alt=""img"">
                            </div>
                        </div>","-22","","0","images/R_L_S_27.png","","","","trustworthy","1","27","R","L","S","",""
"","","","","","html-slider-response","83","232368","0.0-79.0","em1ap7atr9","9","NaN","<div style=""width:500px;"">
                            <p style=""font-size:50px; font-weight:bold;""
                            >trustworthy</p>
                            <div style=""width:240px; margin: auto;"">
                                <img src=""images/G_L_S_37.png"" style= ""width:200px""alt=""img"">
                            </div>
                        </div>","102","","0","images/G_L_S_37.png","","","","trustworthy","1","37","G","L","S","",""
"","","","","","html-button-response","84","234114","0.0-80.0","em1ap7atr9","9","1241","<p>Great Job! You've finished block 2.<br></br> You have 6 block(s) left to go.<br></br></p>","0","","","","","","","","","","","","","",""
"","","","","","html-button-response","85","234712","0.0-81.0","em1ap7atr9","9","598","<p>In this block of trials, you will be asked to rate how much you associate each map with:</p > <p style = 'font-size:150%; font-weight: bold'>negative</p><br></br>","0","","","","","","","","","","","","","",""
"","","","","","html-slider-response","86","237342","0.0-82.0","em1ap7atr9","9","NaN","<div style=""width:500px;"">
                            <p style=""font-size:50px; font-weight:bold;""
                            >negative</p>
                            <div style=""width:240px; margin: auto;"">
                                <img src=""images/B_D_U_12.png"" style= ""width:200px""alt=""img"">
                            </div>
                        </div>","-156","","0","images/B_D_U_12.png","","","","negative","1","12","B","D","U","",""
"","","","","","html-slider-response","87","239672","0.0-83.0","em1ap7atr9","9","NaN","<div style=""width:500px;"">
                            <p style=""font-size:50px; font-weight:bold;""
                            >negative</p>
                            <div style=""width:240px; margin: auto;"">
                                <img src=""images/Y_L_S_13.png"" style= ""width:200px""alt=""img"">
                            </div>
                        </div>","-61","","0","images/Y_L_S_13.png","","","","negative","1","13","Y","L","S","",""
"","","","","","html-slider-response","88","241310","0.0-84.0","em1ap7atr9","9","NaN","<div style=""width:500px;"">
                            <p style=""font-size:50px; font-weight:bold;""
                            >negative</p>
                            <div style=""width:240px; margin: auto;"">
                                <img src=""images/B_D_U_12.png"" style= ""width:200px""alt=""img"">
                            </div>
                        </div>","-153","","0","images/B_D_U_12.png","","","","negative","2","12","B","D","U","",""
"","","","","","html-slider-response","89","243010","0.0-85.0","em1ap7atr9","9","NaN","<div style=""width:500px;"">
                            <p style=""font-size:50px; font-weight:bold;""
                            >negative</p>
                            <div style=""width:240px; margin: auto;"">
                                <img src=""images/B_D_S_10.png"" style= ""width:200px""alt=""img"">
                            </div>
                        </div>","-162","","0","images/B_D_S_10.png","","","","negative","1","10","B","D","S","",""
"","","","","","html-slider-response","90","244693","0.0-86.0","em1ap7atr9","9","NaN","<div style=""width:500px;"">
                            <p style=""font-size:50px; font-weight:bold;""
                            >negative</p>
                            <div style=""width:240px; margin: auto;"">
                                <img src=""images/R_D_U_33.png"" style= ""width:200px""alt=""img"">
                            </div>
                        </div>","136","","0","images/R_D_U_33.png","","","","negative","1","33","R","D","U","",""
"","","","","","html-slider-response","91","246226","0.0-87.0","em1ap7atr9","9","NaN","<div style=""width:500px;"">
                            <p style=""font-size:50px; font-weight:bold;""
                            >negative</p>
                            <div style=""width:240px; margin: auto;"">
                                <img src=""images/B_L_S_05.png"" style= ""width:200px""alt=""img"">
                            </div>
                        </div>","-115","","0","images/B_L_S_05.png","","","","negative","1","05","B","L","S","",""
"","","","","","html-slider-response","92","247700","0.0-88.0","em1ap7atr9","9","NaN","<div style=""width:500px;"">
                            <p style=""font-size:50px; font-weight:bold;""
                            >negative</p>
                            <div style=""width:240px; margin: auto;"">
                                <img src=""images/R_D_S_30.png"" style= ""width:200px""alt=""img"">
                            </div>
                        </div>","80","","0","images/R_D_S_30.png","","","","negative","1","30","R","D","S","",""
"","","","","","html-slider-response","93","249374","0.0-89.0","em1ap7atr9","9","NaN","<div style=""width:500px;"">
                            <p style=""font-size:50px; font-weight:bold;""
                            >negative</p>
                            <div style=""width:240px; margin: auto;"">
                                <img src=""images/Y_D_S_23.png"" style= ""width:200px""alt=""img"">
                            </div>
                        </div>","-17","","0","images/Y_D_S_23.png","","","","negative","2","23","Y","D","S","",""
"","","","","","html-slider-response","94","250666","0.0-90.0","em1ap7atr9","9","NaN","<div style=""width:500px;"">
                            <p style=""font-size:50px; font-weight:bold;""
                            >negative</p>
                            <div style=""width:240px; margin: auto;"">
                                <img src=""images/B_L_S_05.png"" style= ""width:200px""alt=""img"">
                            </div>
                        </div>","-106","","0","images/B_L_S_05.png","","","","negative","2","05","B","L","S","",""
"","","","","","html-slider-response","95","252931","0.0-91.0","em1ap7atr9","9","NaN","<div style=""width:500px;"">
                            <p style=""font-size:50px; font-weight:bold;""
                            >negative</p>
                            <div style=""width:240px; margin: auto;"">
                                <img src=""images/Y_L_U_15.png"" style= ""width:200px""alt=""img"">
                            </div>
                        </div>","-14","","0","images/Y_L_U_15.png","","","","negative","1","15","Y","L","U","",""
"","","","","","html-slider-response","96","254712","0.0-92.0","em1ap7atr9","9","NaN","<div style=""width:500px;"">
                            <p style=""font-size:50px; font-weight:bold;""
                            >negative</p>
                            <div style=""width:240px; margin: auto;"">
                                <img src=""images/Y_L_U_15.png"" style= ""width:200px""alt=""img"">
                            </div>
                        </div>","-45","","0","images/Y_L_U_15.png","","","","negative","2","15","Y","L","U","",""
"","","","","","html-slider-response","97","257226","0.0-93.0","em1ap7atr9","9","NaN","<div style=""width:500px;"">
                            <p style=""font-size:50px; font-weight:bold;""
                            >negative</p>
                            <div style=""width:240px; margin: auto;"">
                                <img src=""images/Y_D_U_26.png"" style= ""width:200px""alt=""img"">
                            </div>
                        </div>","33","","0","images/Y_D_U_26.png","","","","negative","1","26","Y","D","U","",""
"","","","","","html-slider-response","98","258921","0.0-94.0","em1ap7atr9","9","NaN","<div style=""width:500px;"">
                            <p style=""font-size:50px; font-weight:bold;""
                            >negative</p>
                            <div style=""width:240px; margin: auto;"">
                                <img src=""images/R_D_S_30.png"" style= ""width:200px""alt=""img"">
                            </div>
                        </div>","125","","0","images/R_D_S_30.png","","","","negative","2","30","R","D","S","",""
"","","","","","html-slider-response","99","260593","0.0-95.0","em1ap7atr9","9","NaN","<div style=""width:500px;"">
                            <p style=""font-size:50px; font-weight:bold;""
                            >negative</p>
                            <div style=""width:240px; margin: auto;"">
                                <img src=""images/R_L_U_28.png"" style= ""width:200px""alt=""img"">
                            </div>
                        </div>","19","","0","images/R_L_U_28.png","","","","negative","2","28","R","L","U","",""
"","","","","","html-slider-response","100","262056","0.0-96.0","em1ap7atr9","9","NaN","<div style=""width:500px;"">
                            <p style=""font-size:50px; font-weight:bold;""
                            >negative</p>
                            <div style=""width:240px; margin: auto;"">
                                <img src=""images/R_D_U_33.png"" style= ""width:200px""alt=""img"">
                            </div>
                        </div>","57","","0","images/R_D_U_33.png","","","","negative","2","33","R","D","U","",""
"","","","","","html-slider-response","101","264342","0.0-97.0","em1ap7atr9","9","NaN","<div style=""width:500px;"">
                            <p style=""font-size:50px; font-weight:bold;""
                            >negative</p>
                            <div style=""width:240px; margin: auto;"">
                                <img src=""images/R_L_S_27.png"" style= ""width:200px""alt=""img"">
                            </div>
                        </div>","-15","","0","images/R_L_S_27.png","","","","negative","2","27","R","L","S","",""
"","","","","","html-slider-response","102","265848","0.0-98.0","em1ap7atr9","9","NaN","<div style=""width:500px;"">
                            <p style=""font-size:50px; font-weight:bold;""
                            >negative</p>
                            <div style=""width:240px; margin: auto;"">
                                <img src=""images/B_L_U_07.png"" style= ""width:200px""alt=""img"">
                            </div>
                        </div>","-171","","0","images/B_L_U_07.png","","","","negative","1","07","B","L","U","",""
"","","","","","html-slider-response","103","267292","0.0-99.0","em1ap7atr9","9","NaN","<div style=""width:500px;"">
                            <p style=""font-size:50px; font-weight:bold;""
                            >negative</p>
                            <div style=""width:240px; margin: auto;"">
                                <img src=""images/G_L_U_41.png"" style= ""width:200px""alt=""img"">
                            </div>
                        </div>","-148","","0","images/G_L_U_41.png","","","","negative","1","41","G","L","U","",""
"","","","","","html-slider-response","104","269052","0.0-100.0","em1ap7atr9","9","NaN","<div style=""width:500px;"">
                            <p style=""font-size:50px; font-weight:bold;""
                            >negative</p>
                            <div style=""width:240px; margin: auto;"">
                                <img src=""images/G_D_S_44.png"" style= ""width:200px""alt=""img"">
                            </div>
                        </div>","-53","","0","images/G_D_S_44.png","","","","negative","1","44","G","D","S","",""
"","","","","","html-slider-response","105","271375","0.0-101.0","em1ap7atr9","9","NaN","<div style=""width:500px;"">
                            <p style=""font-size:50px; font-weight:bold;""
                            >negative</p>
                            <div style=""width:240px; margin: auto;"">
                                <img src=""images/G_D_U_02.png"" style= ""width:200px""alt=""img"">
                            </div>
                        </div>","13","","0","images/G_D_U_02.png","","","","negative","1","02","G","D","U","",""
"","","","","","html-slider-response","106","273725","0.0-102.0","em1ap7atr9","9","NaN","<div style=""width:500px;"">
                            <p style=""font-size:50px; font-weight:bold;""
                            >negative</p>
                            <div style=""width:240px; margin: auto;"">
                                <img src=""images/Y_D_S_23.png"" style= ""width:200px""alt=""img"">
                            </div>
                        </div>","-59","","0","images/Y_D_S_23.png","","","","negative","1","23","Y","D","S","",""
"","","","","","html-slider-response","107","275694","0.0-103.0","em1ap7atr9","9","NaN","<div style=""width:500px;"">
                            <p style=""font-size:50px; font-weight:bold;""
                            >negative</p>
                            <div style=""width:240px; margin: auto;"">
                                <img src=""images/R_L_U_28.png"" style= ""width:200px""alt=""img"">
                            </div>
                        </div>","35","","0","images/R_L_U_28.png","","","","negative","1","28","R","L","U","",""
"","","","","","html-slider-response","108","277942","0.0-104.0","em1ap7atr9","9","NaN","<div style=""width:500px;"">
                            <p style=""font-size:50px; font-weight:bold;""
                            >negative</p>
                            <div style=""width:240px; margin: auto;"">
                                <img src=""images/G_D_U_02.png"" style= ""width:200px""alt=""img"">
                            </div>
                        </div>","-146","","0","images/G_D_U_02.png","","","","negative","2","02","G","D","U","",""
"","","","","","html-slider-response","109","279600","0.0-105.0","em1ap7atr9","9","NaN","<div style=""width:500px;"">
                            <p style=""font-size:50px; font-weight:bold;""
                            >negative</p>
                            <div style=""width:240px; margin: auto;"">
                                <img src=""images/Y_L_S_13.png"" style= ""width:200px""alt=""img"">
                            </div>
                        </div>","-61","","0","images/Y_L_S_13.png","","","","negative","2","13","Y","L","S","",""
"","","","","","html-slider-response","110","281743","0.0-106.0","em1ap7atr9","9","NaN","<div style=""width:500px;"">
                            <p style=""font-size:50px; font-weight:bold;""
                            >negative</p>
                            <div style=""width:240px; margin: auto;"">
                                <img src=""images/G_L_S_37.png"" style= ""width:200px""alt=""img"">
                            </div>
                        </div>","-42","","0","images/G_L_S_37.png","","","","negative","1","37","G","L","S","",""
"","","","","","html-slider-response","111","283118","0.0-107.0","em1ap7atr9","9","NaN","<div style=""width:500px;"">
                            <p style=""font-size:50px; font-weight:bold;""
                            >negative</p>
                            <div style=""width:240px; margin: auto;"">
                                <img src=""images/G_L_U_41.png"" style= ""width:200px""alt=""img"">
                            </div>
                        </div>","-88","","0","images/G_L_U_41.png","","","","negative","2","41","G","L","U","",""
"","","","","","html-slider-response","112","284848","0.0-108.0","em1ap7atr9","9","NaN","<div style=""width:500px;"">
                            <p style=""font-size:50px; font-weight:bold;""
                            >negative</p>
                            <div style=""width:240px; margin: auto;"">
                                <img src=""images/G_D_S_44.png"" style= ""width:200px""alt=""img"">
                            </div>
                        </div>","-48","","0","images/G_D_S_44.png","","","","negative","2","44","G","D","S","",""
"","","","","","html-slider-response","113","286825","0.0-109.0","em1ap7atr9","9","NaN","<div style=""width:500px;"">
                            <p style=""font-size:50px; font-weight:bold;""
                            >negative</p>
                            <div style=""width:240px; margin: auto;"">
                                <img src=""images/B_D_S_10.png"" style= ""width:200px""alt=""img"">
                            </div>
                        </div>","-179","","0","images/B_D_S_10.png","","","","negative","2","10","B","D","S","",""
"","","","","","html-slider-response","114","288263","0.0-110.0","em1ap7atr9","9","NaN","<div style=""width:500px;"">
                            <p style=""font-size:50px; font-weight:bold;""
                            >negative</p>
                            <div style=""width:240px; margin: auto;"">
                                <img src=""images/R_L_S_27.png"" style= ""width:200px""alt=""img"">
                            </div>
                        </div>","114","","0","images/R_L_S_27.png","","","","negative","1","27","R","L","S","",""
"","","","","","html-slider-response","115","290041","0.0-111.0","em1ap7atr9","9","NaN","<div style=""width:500px;"">
                            <p style=""font-size:50px; font-weight:bold;""
                            >negative</p>
                            <div style=""width:240px; margin: auto;"">
                                <img src=""images/G_L_S_37.png"" style= ""width:200px""alt=""img"">
                            </div>
                        </div>","-151","","0","images/G_L_S_37.png","","","","negative","2","37","G","L","S","",""
"","","","","","html-slider-response","116","292306","0.0-112.0","em1ap7atr9","9","NaN","<div style=""width:500px;"">
                            <p style=""font-size:50px; font-weight:bold;""
                            >negative</p>
                            <div style=""width:240px; margin: auto;"">
                                <img src=""images/Y_D_U_26.png"" style= ""width:200px""alt=""img"">
                            </div>
                        </div>","31","","0","images/Y_D_U_26.png","","","","negative","2","26","Y","D","U","",""
"","","","","","html-slider-response","117","293942","0.0-113.0","em1ap7atr9","9","NaN","<div style=""width:500px;"">
                            <p style=""font-size:50px; font-weight:bold;""
                            >negative</p>
                            <div style=""width:240px; margin: auto;"">
                                <img src=""images/B_L_U_07.png"" style= ""width:200px""alt=""img"">
                            </div>
                        </div>","-157","","0","images/B_L_U_07.png","","","","negative","2","07","B","L","U","",""
"","","","","","html-button-response","118","295169","0.0-114.0","em1ap7atr9","9","722","<p>Great Job! You've finished block 3.<br></br> You have 5 block(s) left to go.<br></br></p>","0","","","","","","","","","","","","","",""
"","","","","","html-button-response","119","296184","0.0-115.0","em1ap7atr9","9","1015","<p>In this block of trials, you will be asked to rate how much you associate each map with:</p > <p style = 'font-size:150%; font-weight: bold'>serious</p><br></br>","0","","","","","","","","","","","","","",""
"","","","","","html-slider-response","120","297887","0.0-116.0","em1ap7atr9","9","NaN","<div style=""width:500px;"">
                            <p style=""font-size:50px; font-weight:bold;""
                            >serious</p>
                            <div style=""width:240px; margin: auto;"">
                                <img src=""images/G_D_U_02.png"" style= ""width:200px""alt=""img"">
                            </div>
                        </div>","138","","0","images/G_D_U_02.png","","","","serious","2","02","G","D","U","",""
"","","","","","html-slider-response","121","299680","0.0-117.0","em1ap7atr9","9","NaN","<div style=""width:500px;"">
                            <p style=""font-size:50px; font-weight:bold;""
                            >serious</p>
                            <div style=""width:240px; margin: auto;"">
                                <img src=""images/G_L_U_41.png"" style= ""width:200px""alt=""img"">
                            </div>
                        </div>","-41","","0","images/G_L_U_41.png","","","","serious","2","41","G","L","U","",""
"","","","","","html-slider-response","122","301285","0.0-118.0","em1ap7atr9","9","NaN","<div style=""width:500px;"">
                            <p style=""font-size:50px; font-weight:bold;""
                            >serious</p>
                            <div style=""width:240px; margin: auto;"">
                                <img src=""images/G_L_S_37.png"" style= ""width:200px""alt=""img"">
                            </div>
                        </div>","-96","","0","images/G_L_S_37.png","","","","serious","2","37","G","L","S","",""
"","","","","","html-slider-response","123","302680","0.0-119.0","em1ap7atr9","9","NaN","<div style=""width:500px;"">
                            <p style=""font-size:50px; font-weight:bold;""
                            >serious</p>
                            <div style=""width:240px; margin: auto;"">
                                <img src=""images/G_L_S_37.png"" style= ""width:200px""alt=""img"">
                            </div>
                        </div>","-134","","0","images/G_L_S_37.png","","","","serious","1","37","G","L","S","",""
"","","","","","html-slider-response","124","304443","0.0-120.0","em1ap7atr9","9","NaN","<div style=""width:500px;"">
                            <p style=""font-size:50px; font-weight:bold;""
                            >serious</p>
                            <div style=""width:240px; margin: auto;"">
                                <img src=""images/B_D_U_12.png"" style= ""width:200px""alt=""img"">
                            </div>
                        </div>","75","","0","images/B_D_U_12.png","","","","serious","1","12","B","D","U","",""
"","","","","","html-slider-response","125","306708","0.0-121.0","em1ap7atr9","9","NaN","<div style=""width:500px;"">
                            <p style=""font-size:50px; font-weight:bold;""
                            >serious</p>
                            <div style=""width:240px; margin: auto;"">
                                <img src=""images/G_D_S_44.png"" style= ""width:200px""alt=""img"">
                            </div>
                        </div>","65","","0","images/G_D_S_44.png","","","","serious","2","44","G","D","S","",""
"","","","","","html-slider-response","126","308442","0.0-122.0","em1ap7atr9","9","NaN","<div style=""width:500px;"">
                            <p style=""font-size:50px; font-weight:bold;""
                            >serious</p>
                            <div style=""width:240px; margin: auto;"">
                                <img src=""images/R_D_S_30.png"" style= ""width:200px""alt=""img"">
                            </div>
                        </div>","-61","","0","images/R_D_S_30.png","","","","serious","2","30","R","D","S","",""
"","","","","","html-slider-response","127","309842","0.0-123.0","em1ap7atr9","9","NaN","<div style=""width:500px;"">
                            <p style=""font-size:50px; font-weight:bold;""
                            >serious</p>
                            <div style=""width:240px; margin: auto;"">
                                <img src=""images/G_D_U_02.png"" style= ""width:200px""alt=""img"">
                            </div>
                        </div>","147","","0","images/G_D_U_02.png","","","","serious","1","02","G","D","U","",""
"","","","","","html-slider-response","128","311667","0.0-124.0","em1ap7atr9","9","NaN","<div style=""width:500px;"">
                            <p style=""font-size:50px; font-weight:bold;""
                            >serious</p>
                            <div style=""width:240px; margin: auto;"">
                                <img src=""images/Y_D_S_23.png"" style= ""width:200px""alt=""img"">
                            </div>
                        </div>","97","","0","images/Y_D_S_23.png","","","","serious","1","23","Y","D","S","",""
"","","","","","html-slider-response","129","314453","0.0-125.0","em1ap7atr9","9","NaN","<div style=""width:500px;"">
                            <p style=""font-size:50px; font-weight:bold;""
                            >serious</p>
                            <div style=""width:240px; margin: auto;"">
                                <img src=""images/R_D_U_33.png"" style= ""width:200px""alt=""img"">
                            </div>
                        </div>","9","","0","images/R_D_U_33.png","","","","serious","2","33","R","D","U","",""
"","","","","","html-slider-response","130","315842","0.0-126.0","em1ap7atr9","9","NaN","<div style=""width:500px;"">
                            <p style=""font-size:50px; font-weight:bold;""
                            >serious</p>
                            <div style=""width:240px; margin: auto;"">
                                <img src=""images/R_L_S_27.png"" style= ""width:200px""alt=""img"">
                            </div>
                        </div>","-146","","0","images/R_L_S_27.png","","","","serious","1","27","R","L","S","",""
"","","","","","html-slider-response","131","318424","0.0-127.0","em1ap7atr9","9","NaN","<div style=""width:500px;"">
                            <p style=""font-size:50px; font-weight:bold;""
                            >serious</p>
                            <div style=""width:240px; margin: auto;"">
                                <img src=""images/Y_L_S_13.png"" style= ""width:200px""alt=""img"">
                            </div>
                        </div>","-64","","0","images/Y_L_S_13.png","","","","serious","2","13","Y","L","S","",""
"","","","","","html-slider-response","132","320192","0.0-128.0","em1ap7atr9","9","NaN","<div style=""width:500px;"">
                            <p style=""font-size:50px; font-weight:bold;""
                            >serious</p>
                            <div style=""width:240px; margin: auto;"">
                                <img src=""images/G_L_U_41.png"" style= ""width:200px""alt=""img"">
                            </div>
                        </div>","-102","","0","images/G_L_U_41.png","","","","serious","1","41","G","L","U","",""
"","","","","","html-slider-response","133","322436","0.0-129.0","em1ap7atr9","9","NaN","<div style=""width:500px;"">
                            <p style=""font-size:50px; font-weight:bold;""
                            >serious</p>
                            <div style=""width:240px; margin: auto;"">
                                <img src=""images/B_L_S_05.png"" style= ""width:200px""alt=""img"">
                            </div>
                        </div>","-179","","0","images/B_L_S_05.png","","","","serious","1","05","B","L","S","",""
"","","","","","html-slider-response","134","323990","0.0-130.0","em1ap7atr9","9","NaN","<div style=""width:500px;"">
                            <p style=""font-size:50px; font-weight:bold;""
                            >serious</p>
                            <div style=""width:240px; margin: auto;"">
                                <img src=""images/B_L_U_07.png"" style= ""width:200px""alt=""img"">
                            </div>
                        </div>","-106","","0","images/B_L_U_07.png","","","","serious","1","07","B","L","U","",""
"","","","","","html-slider-response","135","325406","0.0-131.0","em1ap7atr9","9","NaN","<div style=""width:500px;"">
                            <p style=""font-size:50px; font-weight:bold;""
                            >serious</p>
                            <div style=""width:240px; margin: auto;"">
                                <img src=""images/B_L_U_07.png"" style= ""width:200px""alt=""img"">
                            </div>
                        </div>","-51","","0","images/B_L_U_07.png","","","","serious","2","07","B","L","U","",""
"","","","","","html-slider-response","136","327009","0.0-132.0","em1ap7atr9","9","NaN","<div style=""width:500px;"">
                            <p style=""font-size:50px; font-weight:bold;""
                            >serious</p>
                            <div style=""width:240px; margin: auto;"">
                                <img src=""images/R_D_S_30.png"" style= ""width:200px""alt=""img"">
                            </div>
                        </div>","-121","","0","images/R_D_S_30.png","","","","serious","1","30","R","D","S","",""
"","","","","","html-slider-response","137","328531","0.0-133.0","em1ap7atr9","9","NaN","<div style=""width:500px;"">
                            <p style=""font-size:50px; font-weight:bold;""
                            >serious</p>
                            <div style=""width:240px; margin: auto;"">
                                <img src=""images/B_D_S_10.png"" style= ""width:200px""alt=""img"">
                            </div>
                        </div>","66","","0","images/B_D_S_10.png","","","","serious","1","10","B","D","S","",""
"","","","","","html-slider-response","138","330488","0.0-134.0","em1ap7atr9","9","NaN","<div style=""width:500px;"">
                            <p style=""font-size:50px; font-weight:bold;""
                            >serious</p>
                            <div style=""width:240px; margin: auto;"">
                                <img src=""images/R_D_U_33.png"" style= ""width:200px""alt=""img"">
                            </div>
                        </div>","-24","","0","images/R_D_U_33.png","","","","serious","1","33","R","D","U","",""
"","","","","","html-slider-response","139","331847","0.0-135.0","em1ap7atr9","9","NaN","<div style=""width:500px;"">
                            <p style=""font-size:50px; font-weight:bold;""
                            >serious</p>
                            <div style=""width:240px; margin: auto;"">
                                <img src=""images/R_L_U_28.png"" style= ""width:200px""alt=""img"">
                            </div>
                        </div>","-26","","0","images/R_L_U_28.png","","","","serious","1","28","R","L","U","",""
"","","","","","html-slider-response","140","333087","0.0-136.0","em1ap7atr9","9","NaN","<div style=""width:500px;"">
                            <p style=""font-size:50px; font-weight:bold;""
                            >serious</p>
                            <div style=""width:240px; margin: auto;"">
                                <img src=""images/Y_D_U_26.png"" style= ""width:200px""alt=""img"">
                            </div>
                        </div>","128","","0","images/Y_D_U_26.png","","","","serious","1","26","Y","D","U","",""
"","","","","","html-slider-response","141","334675","0.0-137.0","em1ap7atr9","9","NaN","<div style=""width:500px;"">
                            <p style=""font-size:50px; font-weight:bold;""
                            >serious</p>
                            <div style=""width:240px; margin: auto;"">
                                <img src=""images/Y_D_U_26.png"" style= ""width:200px""alt=""img"">
                            </div>
                        </div>","168","","0","images/Y_D_U_26.png","","","","serious","2","26","Y","D","U","",""
"","","","","","html-slider-response","142","336058","0.0-138.0","em1ap7atr9","9","NaN","<div style=""width:500px;"">
                            <p style=""font-size:50px; font-weight:bold;""
                            >serious</p>
                            <div style=""width:240px; margin: auto;"">
                                <img src=""images/B_L_S_05.png"" style= ""width:200px""alt=""img"">
                            </div>
                        </div>","-28","","0","images/B_L_S_05.png","","","","serious","2","05","B","L","S","",""
"","","","","","html-slider-response","143","337614","0.0-139.0","em1ap7atr9","9","NaN","<div style=""width:500px;"">
                            <p style=""font-size:50px; font-weight:bold;""
                            >serious</p>
                            <div style=""width:240px; margin: auto;"">
                                <img src=""images/Y_L_U_15.png"" style= ""width:200px""alt=""img"">
                            </div>
                        </div>","32","","0","images/Y_L_U_15.png","","","","serious","1","15","Y","L","U","",""
"","","","","","html-slider-response","144","339308","0.0-140.0","em1ap7atr9","9","NaN","<div style=""width:500px;"">
                            <p style=""font-size:50px; font-weight:bold;""
                            >serious</p>
                            <div style=""width:240px; margin: auto;"">
                                <img src=""images/Y_L_S_13.png"" style= ""width:200px""alt=""img"">
                            </div>
                        </div>","-16","","0","images/Y_L_S_13.png","","","","serious","1","13","Y","L","S","",""
"","","","","","html-slider-response","145","340859","0.0-141.0","em1ap7atr9","9","NaN","<div style=""width:500px;"">
                            <p style=""font-size:50px; font-weight:bold;""
                            >serious</p>
                            <div style=""width:240px; margin: auto;"">
                                <img src=""images/R_L_U_28.png"" style= ""width:200px""alt=""img"">
                            </div>
                        </div>","-30","","0","images/R_L_U_28.png","","","","serious","2","28","R","L","U","",""
"","","","","","html-slider-response","146","342958","0.0-142.0","em1ap7atr9","9","NaN","<div style=""width:500px;"">
                            <p style=""font-size:50px; font-weight:bold;""
                            >serious</p>
                            <div style=""width:240px; margin: auto;"">
                                <img src=""images/B_D_S_10.png"" style= ""width:200px""alt=""img"">
                            </div>
                        </div>","162","","0","images/B_D_S_10.png","","","","serious","2","10","B","D","S","",""
"","","","","","html-slider-response","147","344868","0.0-143.0","em1ap7atr9","9","NaN","<div style=""width:500px;"">
                            <p style=""font-size:50px; font-weight:bold;""
                            >serious</p>
                            <div style=""width:240px; margin: auto;"">
                                <img src=""images/Y_L_U_15.png"" style= ""width:200px""alt=""img"">
                            </div>
                        </div>","-19","","0","images/Y_L_U_15.png","","","","serious","2","15","Y","L","U","",""
"","","","","","html-slider-response","148","346707","0.0-144.0","em1ap7atr9","9","NaN","<div style=""width:500px;"">
                            <p style=""font-size:50px; font-weight:bold;""
                            >serious</p>
                            <div style=""width:240px; margin: auto;"">
                                <img src=""images/G_D_S_44.png"" style= ""width:200px""alt=""img"">
                            </div>
                        </div>","161","","0","images/G_D_S_44.png","","","","serious","1","44","G","D","S","",""
"","","","","","html-slider-response","149","348418","0.0-145.0","em1ap7atr9","9","NaN","<div style=""width:500px;"">
                            <p style=""font-size:50px; font-weight:bold;""
                            >serious</p>
                            <div style=""width:240px; margin: auto;"">
                                <img src=""images/R_L_S_27.png"" style= ""width:200px""alt=""img"">
                            </div>
                        </div>","-200","","0","images/R_L_S_27.png","","","","serious","2","27","R","L","S","",""
"","","","","","html-slider-response","150","350741","0.0-146.0","em1ap7atr9","9","NaN","<div style=""width:500px;"">
                            <p style=""font-size:50px; font-weight:bold;""
                            >serious</p>
                            <div style=""width:240px; margin: auto;"">
                                <img src=""images/Y_D_S_23.png"" style= ""width:200px""alt=""img"">
                            </div>
                        </div>","80","","0","images/Y_D_S_23.png","","","","serious","2","23","Y","D","S","",""
"","","","","","html-slider-response","151","356502","0.0-147.0","em1ap7atr9","9","NaN","<div style=""width:500px;"">
                            <p style=""font-size:50px; font-weight:bold;""
                            >serious</p>
                            <div style=""width:240px; margin: auto;"">
                                <img src=""images/B_D_U_12.png"" style= ""width:200px""alt=""img"">
                            </div>
                        </div>","93","","0","images/B_D_U_12.png","","","","serious","2","12","B","D","U","",""
"","","","","","html-button-response","152","358006","0.0-148.0","em1ap7atr9","9","998","<p>Great Job! You've finished block 4.<br></br> You have 4 block(s) left to go.<br></br></p>","0","","","","","","","","","","","","","",""
"","","","","","html-button-response","153","358525","0.0-149.0","em1ap7atr9","9","518","<p>In this block of trials, you will be asked to rate how much you associate each map with:</p > <p style = 'font-size:150%; font-weight: bold'>playful</p><br></br>","0","","","","","","","","","","","","","",""
"","","","","","html-slider-response","154","359954","0.0-150.0","em1ap7atr9","9","NaN","<div style=""width:500px;"">
                            <p style=""font-size:50px; font-weight:bold;""
                            >playful</p>
                            <div style=""width:240px; margin: auto;"">
                                <img src=""images/Y_L_S_13.png"" style= ""width:200px""alt=""img"">
                            </div>
                        </div>","-102","","0","images/Y_L_S_13.png","","","","playful","1","13","Y","L","S","",""
"","","","","","html-slider-response","155","362168","0.0-151.0","em1ap7atr9","9","NaN","<div style=""width:500px;"">
                            <p style=""font-size:50px; font-weight:bold;""
                            >playful</p>
                            <div style=""width:240px; margin: auto;"">
                                <img src=""images/R_D_U_33.png"" style= ""width:200px""alt=""img"">
                            </div>
                        </div>","-85","","0","images/R_D_U_33.png","","","","playful","1","33","R","D","U","",""
"","","","","","html-slider-response","156","363646","0.0-152.0","em1ap7atr9","9","NaN","<div style=""width:500px;"">
                            <p style=""font-size:50px; font-weight:bold;""
                            >playful</p>
                            <div style=""width:240px; margin: auto;"">
                                <img src=""images/B_L_S_05.png"" style= ""width:200px""alt=""img"">
                            </div>
                        </div>","171","","0","images/B_L_S_05.png","","","","playful","2","05","B","L","S","",""
"","","","","","html-slider-response","157","364965","0.0-153.0","em1ap7atr9","9","NaN","<div style=""width:500px;"">
                            <p style=""font-size:50px; font-weight:bold;""
                            >playful</p>
                            <div style=""width:240px; margin: auto;"">
                                <img src=""images/R_D_S_30.png"" style= ""width:200px""alt=""img"">
                            </div>
                        </div>","187","","0","images/R_D_S_30.png","","","","playful","2","30","R","D","S","",""
"","","","","","html-slider-response","158","366714","0.0-154.0","em1ap7atr9","9","NaN","<div style=""width:500px;"">
                            <p style=""font-size:50px; font-weight:bold;""
                            >playful</p>
                            <div style=""width:240px; margin: auto;"">
                                <img src=""images/B_D_U_12.png"" style= ""width:200px""alt=""img"">
                            </div>
                        </div>","-74","","0","images/B_D_U_12.png","","","","playful","2","12","B","D","U","",""
"","","","","","html-slider-response","159","368309","0.0-155.0","em1ap7atr9","9","NaN","<div style=""width:500px;"">
                            <p style=""font-size:50px; font-weight:bold;""
                            >playful</p>
                            <div style=""width:240px; margin: auto;"">
                                <img src=""images/B_L_S_05.png"" style= ""width:200px""alt=""img"">
                            </div>
                        </div>","177","","0","images/B_L_S_05.png","","","","playful","1","05","B","L","S","",""
"","","","","","html-slider-response","160","369484","0.0-156.0","em1ap7atr9","9","NaN","<div style=""width:500px;"">
                            <p style=""font-size:50px; font-weight:bold;""
                            >playful</p>
                            <div style=""width:240px; margin: auto;"">
                                <img src=""images/Y_D_S_23.png"" style= ""width:200px""alt=""img"">
                            </div>
                        </div>","-71","","0","images/Y_D_S_23.png","","","","playful","1","23","Y","D","S","",""
"","","","","","html-slider-response","161","370964","0.0-157.0","em1ap7atr9","9","NaN","<div style=""width:500px;"">
                            <p style=""font-size:50px; font-weight:bold;""
                            >playful</p>
                            <div style=""width:240px; margin: auto;"">
                                <img src=""images/G_L_S_37.png"" style= ""width:200px""alt=""img"">
                            </div>
                        </div>","165","","0","images/G_L_S_37.png","","","","playful","2","37","G","L","S","",""
"","","","","","html-slider-response","162","372537","0.0-158.0","em1ap7atr9","9","NaN","<div style=""width:500px;"">
                            <p style=""font-size:50px; font-weight:bold;""
                            >playful</p>
                            <div style=""width:240px; margin: auto;"">
                                <img src=""images/B_D_S_10.png"" style= ""width:200px""alt=""img"">
                            </div>
                        </div>","74","","0","images/B_D_S_10.png","","","","playful","1","10","B","D","S","",""
"","","","","","html-slider-response","163","374480","0.0-159.0","em1ap7atr9","9","NaN","<div style=""width:500px;"">
                            <p style=""font-size:50px; font-weight:bold;""
                            >playful</p>
                            <div style=""width:240px; margin: auto;"">
                                <img src=""images/Y_D_U_26.png"" style= ""width:200px""alt=""img"">
                            </div>
                        </div>","-177","","0","images/Y_D_U_26.png","","","","playful","1","26","Y","D","U","",""
"","","","","","html-slider-response","164","376480","0.0-160.0","em1ap7atr9","9","NaN","<div style=""width:500px;"">
                            <p style=""font-size:50px; font-weight:bold;""
                            >playful</p>
                            <div style=""width:240px; margin: auto;"">
                                <img src=""images/G_D_S_44.png"" style= ""width:200px""alt=""img"">
                            </div>
                        </div>","-178","","0","images/G_D_S_44.png","","","","playful","1","44","G","D","S","",""
"","","","","","html-slider-response","165","377848","0.0-161.0","em1ap7atr9","9","NaN","<div style=""width:500px;"">
                            <p style=""font-size:50px; font-weight:bold;""
                            >playful</p>
                            <div style=""width:240px; margin: auto;"">
                                <img src=""images/B_L_U_07.png"" style= ""width:200px""alt=""img"">
                            </div>
                        </div>","136","","0","images/B_L_U_07.png","","","","playful","2","07","B","L","U","",""
"","","","","","html-slider-response","166","379605","0.0-162.0","em1ap7atr9","9","NaN","<div style=""width:500px;"">
                            <p style=""font-size:50px; font-weight:bold;""
                            >playful</p>
                            <div style=""width:240px; margin: auto;"">
                                <img src=""images/G_D_S_44.png"" style= ""width:200px""alt=""img"">
                            </div>
                        </div>","-162","","0","images/G_D_S_44.png","","","","playful","2","44","G","D","S","",""
"","","","","","html-slider-response","167","381117","0.0-163.0","em1ap7atr9","9","NaN","<div style=""width:500px;"">
                            <p style=""font-size:50px; font-weight:bold;""
                            >playful</p>
                            <div style=""width:240px; margin: auto;"">
                                <img src=""images/G_L_U_41.png"" style= ""width:200px""alt=""img"">
                            </div>
                        </div>","70","","0","images/G_L_U_41.png","","","","playful","2","41","G","L","U","",""
"","","","","","html-slider-response","168","382564","0.0-164.0","em1ap7atr9","9","NaN","<div style=""width:500px;"">
                            <p style=""font-size:50px; font-weight:bold;""
                            >playful</p>
                            <div style=""width:240px; margin: auto;"">
                                <img src=""images/Y_L_U_15.png"" style= ""width:200px""alt=""img"">
                            </div>
                        </div>","-21","","0","images/Y_L_U_15.png","","","","playful","1","15","Y","L","U","",""
"","","","","","html-slider-response","169","384181","0.0-165.0","em1ap7atr9","9","NaN","<div style=""width:500px;"">
                            <p style=""font-size:50px; font-weight:bold;""
                            >playful</p>
                            <div style=""width:240px; margin: auto;"">
                                <img src=""images/Y_D_S_23.png"" style= ""width:200px""alt=""img"">
                            </div>
                        </div>","-19","","0","images/Y_D_S_23.png","","","","playful","2","23","Y","D","S","",""
"","","","","","html-slider-response","170","386248","0.0-166.0","em1ap7atr9","9","NaN","<div style=""width:500px;"">
                            <p style=""font-size:50px; font-weight:bold;""
                            >playful</p>
                            <div style=""width:240px; margin: auto;"">
                                <img src=""images/R_D_S_30.png"" style= ""width:200px""alt=""img"">
                            </div>
                        </div>","57","","0","images/R_D_S_30.png","","","","playful","1","30","R","D","S","",""
"","","","","","html-slider-response","171","388181","0.0-167.0","em1ap7atr9","9","NaN","<div style=""width:500px;"">
                            <p style=""font-size:50px; font-weight:bold;""
                            >playful</p>
                            <div style=""width:240px; margin: auto;"">
                                <img src=""images/Y_L_S_13.png"" style= ""width:200px""alt=""img"">
                            </div>
                        </div>","-20","","0","images/Y_L_S_13.png","","","","playful","2","13","Y","L","S","",""
"","","","","","html-slider-response","172","389975","0.0-168.0","em1ap7atr9","9","NaN","<div style=""width:500px;"">
                            <p style=""font-size:50px; font-weight:bold;""
                            >playful</p>
                            <div style=""width:240px; margin: auto;"">
                                <img src=""images/B_D_U_12.png"" style= ""width:200px""alt=""img"">
                            </div>
                        </div>","-198","","0","images/B_D_U_12.png","","","","playful","1","12","B","D","U","",""
"","","","","","html-slider-response","173","391689","0.0-169.0","em1ap7atr9","9","NaN","<div style=""width:500px;"">
                            <p style=""font-size:50px; font-weight:bold;""
                            >playful</p>
                            <div style=""width:240px; margin: auto;"">
                                <img src=""images/G_L_S_37.png"" style= ""width:200px""alt=""img"">
                            </div>
                        </div>","164","","0","images/G_L_S_37.png","","","","playful","1","37","G","L","S","",""
"","","","","","html-slider-response","174","393023","0.0-170.0","em1ap7atr9","9","NaN","<div style=""width:500px;"">
                            <p style=""font-size:50px; font-weight:bold;""
                            >playful</p>
                            <div style=""width:240px; margin: auto;"">
                                <img src=""images/R_L_S_27.png"" style= ""width:200px""alt=""img"">
                            </div>
                        </div>","189","","0","images/R_L_S_27.png","","","","playful","2","27","R","L","S","",""
"","","","","","html-slider-response","175","395014","0.0-171.0","em1ap7atr9","9","NaN","<div style=""width:500px;"">
                            <p style=""font-size:50px; font-weight:bold;""
                            >playful</p>
                            <div style=""width:240px; margin: auto;"">
                                <img src=""images/G_D_U_02.png"" style= ""width:200px""alt=""img"">
                            </div>
                        </div>","-93","","0","images/G_D_U_02.png","","","","playful","1","02","G","D","U","",""
"","","","","","html-slider-response","176","396619","0.0-172.0","em1ap7atr9","9","NaN","<div style=""width:500px;"">
                            <p style=""font-size:50px; font-weight:bold;""
                            >playful</p>
                            <div style=""width:240px; margin: auto;"">
                                <img src=""images/Y_D_U_26.png"" style= ""width:200px""alt=""img"">
                            </div>
                        </div>","-193","","0","images/Y_D_U_26.png","","","","playful","2","26","Y","D","U","",""
"","","","","","html-slider-response","177","398669","0.0-173.0","em1ap7atr9","9","NaN","<div style=""width:500px;"">
                            <p style=""font-size:50px; font-weight:bold;""
                            >playful</p>
                            <div style=""width:240px; margin: auto;"">
                                <img src=""images/G_L_U_41.png"" style= ""width:200px""alt=""img"">
                            </div>
                        </div>","69","","0","images/G_L_U_41.png","","","","playful","1","41","G","L","U","",""
"","","","","","html-slider-response","178","400175","0.0-174.0","em1ap7atr9","9","NaN","<div style=""width:500px;"">
                            <p style=""font-size:50px; font-weight:bold;""
                            >playful</p>
                            <div style=""width:240px; margin: auto;"">
                                <img src=""images/R_L_S_27.png"" style= ""width:200px""alt=""img"">
                            </div>
                        </div>","179","","0","images/R_L_S_27.png","","","","playful","1","27","R","L","S","",""
"","","","","","html-slider-response","179","402147","0.0-175.0","em1ap7atr9","9","NaN","<div style=""width:500px;"">
                            <p style=""font-size:50px; font-weight:bold;""
                            >playful</p>
                            <div style=""width:240px; margin: auto;"">
                                <img src=""images/R_D_U_33.png"" style= ""width:200px""alt=""img"">
                            </div>
                        </div>","-83","","0","images/R_D_U_33.png","","","","playful","2","33","R","D","U","",""
"","","","","","html-slider-response","180","403664","0.0-176.0","em1ap7atr9","9","NaN","<div style=""width:500px;"">
                            <p style=""font-size:50px; font-weight:bold;""
                            >playful</p>
                            <div style=""width:240px; margin: auto;"">
                                <img src=""images/Y_L_U_15.png"" style= ""width:200px""alt=""img"">
                            </div>
                        </div>","-36","","0","images/Y_L_U_15.png","","","","playful","2","15","Y","L","U","",""
"","","","","","html-slider-response","181","405114","0.0-177.0","em1ap7atr9","9","NaN","<div style=""width:500px;"">
                            <p style=""font-size:50px; font-weight:bold;""
                            >playful</p>
                            <div style=""width:240px; margin: auto;"">
                                <img src=""images/B_L_U_07.png"" style= ""width:200px""alt=""img"">
                            </div>
                        </div>","148","","0","images/B_L_U_07.png","","","","playful","1","07","B","L","U","",""
"","","","","","html-slider-response","182","406564","0.0-178.0","em1ap7atr9","9","NaN","<div style=""width:500px;"">
                            <p style=""font-size:50px; font-weight:bold;""
                            >playful</p>
                            <div style=""width:240px; margin: auto;"">
                                <img src=""images/R_L_U_28.png"" style= ""width:200px""alt=""img"">
                            </div>
                        </div>","-120","","0","images/R_L_U_28.png","","","","playful","2","28","R","L","U","",""
"","","","","","html-slider-response","183","407948","0.0-179.0","em1ap7atr9","9","NaN","<div style=""width:500px;"">
                            <p style=""font-size:50px; font-weight:bold;""
                            >playful</p>
                            <div style=""width:240px; margin: auto;"">
                                <img src=""images/G_D_U_02.png"" style= ""width:200px""alt=""img"">
                            </div>
                        </div>","-34","","0","images/G_D_U_02.png","","","","playful","2","02","G","D","U","",""
"","","","","","html-slider-response","184","409457","0.0-180.0","em1ap7atr9","9","NaN","<div style=""width:500px;"">
