"success","timeout","failed_images","failed_audio","failed_video","trial_type","trial_index","time_elapsed","internal_node_id","subject_id","condition_num","rt","stimulus","response","question_order","slider_start","image_path","practiceTrial","practiceTrialNum","correct","concept","repetition","map_id","hue","lightness","saturation","ishihara_plate","correct_response"
"true","false","[]","[]","[]","preload","0","807","0.0-0.0","hzqvy4y8ej","0","","","","","","","","","","","","","","","","",""
"","","","","","html-button-response","1","5997","0.0-1.0","hzqvy4y8ej","0","5189","Welcome to our experiment!<p>At the bottom of this screen, you will see a button that says ""Begin Experiment"".<br>Please only click that button when you are ready to complete the 25 minute experiment in one sitting.</p><p> Once you click that button, it will not be possible to restart the experiment.","0","","","","","","","","","","","","","",""
"true","","","","","fullscreen","2","9055","0.0-2.0","hzqvy4y8ej","0","2056","","","","","","","","","","","","","","","",""
"","","","","","survey-multi-select","3","29841","0.0-3.0","hzqvy4y8ej","0","20783","","{""Consent"":[""<strong>I consent</strong>""]}","[0]","","","","","","","","","","","","",""
"","","","","","html-button-response","4","31667","0.0-4.0","hzqvy4y8ej","0","1823","Welcome! <p> This experiment involves two parts: demographic information, followed by the experimental task.<p> It will take about 25 minutes to complete both parts.","0","","","","","","","","","","","","","",""
"","","","","","survey-text","5","43704","0.0-5.0","hzqvy4y8ej","0","12033","","{""Age"":""18"",""Gender"":""Female"",""Race/ethnicity"":""White"",""Languages"":""Spanish, English, some Hebrew""}","","","","","","","","","","","","","",""
"","","","","","html-slider-response","6","69262","0.0-6.0","hzqvy4y8ej","0","25557","
                            <div style='text-align:left; font-size:20px; line-height:25px; width: 1400px;'>
                                During this experiment you will be asked to rate how much you associate maps with                    different concepts.<br> Below, you can see some examples of the maps you will be asked to rate. Next to the maps
                    is the list of concepts.<br>You will be asked                    to rate how much you associate each map with each concept on a scale from 'not at all' to 'very much' like the
                    one below. <br><br>
                    Now, please look at the list of concepts and maps. For each concept, think about the map you associate 'very
                    much' with the concept.<br>                     When you see that map during the experiment, please rate it near the 'very much' endpoint of the
                    scale.<br>Now, please think about which map you associate 'not at all'                     with each concept. When you see that map during the experiment, please rate it near the 'not at all' endpoint
                    of the scale.<br>
                    Please use the full range of the scale. That is, if a map is somewhat associated with the concept, you would
                    click partway between the middle point and right side of the scale.                    You will be asked to rate each map for a given concept before moving on to the next concept.<br><br>Press the
                    'Continue' button for instructions on how to use the slider.                    <br><br>
                </div>

                <div style=""width: 500px; margin: 0 auto;"">
                    <!-- Centered text paragraphs -->
                    <div style=""text-align: center; width: 500px;"">
                        <p style=""font-size:25px; line-height:18px;"">calm</p>
                        <p style=""font-size:25px; line-height:18px;"">exciting</p>
                        <p style=""font-size:25px;line-height:18px;"">positive</p>
                        <p style=""font-size:25px;line-height:18px;"">negative</p>
                        <p style=""font-size:25px;line-height:18px;"">serious</p>
                        <p style=""font-size:25px;line-height:18px;"">playful</p>
                        <p style=""font-size:25px;line-height:18px;"">trustworthy</p>
                        <p style=""font-size:25px;line-height:18px;"">disturbing</p>
                    </div>

                    <!-- Grid section -->
                   <div style=""display: flex; justify-content: center; padding-top: 15px;"">
                    <div style=""display: grid; grid-template-columns: repeat(8, 80px); grid-gap: 5px; width: auto;"">
                        <img src=""images/B_L_U_27.png"" alt=""map"" style=""width: 100%;""><img src=""images/G_L_S_12.png"" alt=""map"" style=""width: 100%;""><img src=""images/B_L_S_26.png"" alt=""map"" style=""width: 100%;""><img src=""images/Y_D_S_41.png"" alt=""map"" style=""width: 100%;""><img src=""images/Y_L_U_37.png"" alt=""map"" style=""width: 100%;""><img src=""images/R_L_U_05.png"" alt=""map"" style=""width: 100%;""><img src=""images/Y_L_S_33.png"" alt=""map"" style=""width: 100%;""><img src=""images/B_D_S_28.png"" alt=""map"" style=""width: 100%;""><img src=""images/R_D_U_10.png"" alt=""map"" style=""width: 100%;""><img src=""images/Y_D_U_44.png"" alt=""map"" style=""width: 100%;""><img src=""images/G_D_U_23.png"" alt=""map"" style=""width: 100%;""><img src=""images/R_D_S_07.png"" alt=""map"" style=""width: 100%;""><img src=""images/G_L_U_13.png"" alt=""map"" style=""width: 100%;""><img src=""images/G_D_S_15.png"" alt=""map"" style=""width: 100%;""><img src=""images/B_D_U_30.png"" alt=""map"" style=""width: 100%;""><img src=""images/R_L_S_02.png"" alt=""map"" style=""width: 100%;"">
                    </div>
                </div>

                    <!-- Clear floats -->
                    <div style=""clear: both;""></div>
                </div>
                            ","-40","","0","maps_anchoring.png","true","","","","","","","","","",""
"","","","","","html-button-response","7","71610","0.0-7.0","hzqvy4y8ej","0","2347","<div style=""width:800px;""><p style=""text-align:left"">To move the slider, click and drag your cursor to the location of the scale where you would like to make your rating and then let go. When you let go of the slider, your response will be recorded and the next trial will begin. <br>
                    We are interested in your initial impressions of each map for the given concept, so please go with your first intuition. <br>
                    Before you begin the experiment, there will be four training trials for you to practice using the scale. <br>
                     When you are ready to start the training trials, please click ""Continue"".</p><br></div>","0","","","","","","","","","","","","","",""
"","","","","","html-slider-response","8","74461","0.0-8.0-0.0","hzqvy4y8ej","0","NaN","<div style=""width:500px;"">
                                    <p style=""font-size:25px;"">Please move the slider all the way to the <br> right endpoint of the scale</p>

                                    </div>
                                </div>","200","","0","","true","0","true","","","","","","","",""
"","","","","","html-button-response","9","76227","0.0-8.0-1.0","hzqvy4y8ej","0","1264","<p align='center'><b>Good job!</b> Click on 'Continue' to proceed.</p>","0","","","","","","","","","","","","","",""
"","","","","","html-slider-response","10","78823","0.0-9.0-0.0","hzqvy4y8ej","0","NaN","<div style=""width:500px;"">
                                    <p style=""font-size:25px;"">Please move the slider all the way to the <br> left endpoint of the scale</p>

                                    </div>
                                </div>","-200","","0","","true","1","true","","","","","","","",""
"","","","","","html-button-response","11","80536","0.0-9.0-1.0","hzqvy4y8ej","0","1211","<p align='center'><b>Good job!</b> Click on 'Continue' to proceed.</p>","0","","","","","","","","","","","","","",""
"","","","","","html-slider-response","12","86148","0.0-10.0-0.0","hzqvy4y8ej","0","NaN","<div style=""width:500px;"">
                                    <p style=""font-size:25px;"">Please move the slider halfway between the center and right endpoint of the scale</p>

                                    </div>
                                </div>","99","","0","","true","2","true","","","","","","","",""
"","","","","","html-button-response","13","87480","0.0-10.0-1.0","hzqvy4y8ej","0","829","<p align='center'><b>Good job!</b> Click on 'Continue' to proceed.</p>","0","","","","","","","","","","","","","",""
"","","","","","html-slider-response","14","89594","0.0-11.0-0.0","hzqvy4y8ej","0","NaN","<div style=""width:500px;"">
                                    <p style=""font-size:25px;"">Please move the slider halfway between the center and left endpoint of the scale</p>

                                    </div>
                                </div>","-104","","0","","true","3","true","","","","","","","",""
"","","","","","html-button-response","15","90837","0.0-11.0-1.0","hzqvy4y8ej","0","741","<p align='center'><b>Good job!</b> Click on 'Continue' to proceed.</p>","0","","","","","","","","","","","","","",""
"","","","","","html-button-response","16","92619","0.0-12.0","hzqvy4y8ej","0","1782","<p>Great job! You've completed the practice trials. Now you will begin the main task.</p>","0","","","","","","","","","","","","","",""
"","","","","","html-button-response","17","95042","0.0-13.0","hzqvy4y8ej","0","2422","<p>In this block of trials, you will be asked to rate how much you associate each map with:</p > <p style = 'font-size:150%; font-weight: bold'>disturbing</p><br></br>","0","","","","","","","","","","","","","",""
"","","","","","html-slider-response","18","97620","0.0-14.0","hzqvy4y8ej","0","NaN","<div style=""width:500px;"">
                            <p style=""font-size:50px; font-weight:bold;""
                            >disturbing</p>
                            <div style=""width:240px; margin: auto;"">
                                <img src=""images/G_L_S_12.png"" style= ""width:200px""alt=""img"">
                            </div>
                        </div>","-200","","0","images/G_L_S_12.png","","","","disturbing","2","12","G","L","S","",""
"","","","","","html-slider-response","19","99631","0.0-15.0","hzqvy4y8ej","0","NaN","<div style=""width:500px;"">
                            <p style=""font-size:50px; font-weight:bold;""
                            >disturbing</p>
                            <div style=""width:240px; margin: auto;"">
                                <img src=""images/R_D_U_10.png"" style= ""width:200px""alt=""img"">
                            </div>
                        </div>","31","","0","images/R_D_U_10.png","","","","disturbing","2","10","R","D","U","",""
"","","","","","html-slider-response","20","101351","0.0-16.0","hzqvy4y8ej","0","NaN","<div style=""width:500px;"">
                            <p style=""font-size:50px; font-weight:bold;""
                            >disturbing</p>
                            <div style=""width:240px; margin: auto;"">
                                <img src=""images/B_D_S_28.png"" style= ""width:200px""alt=""img"">
                            </div>
                        </div>","-200","","0","images/B_D_S_28.png","","","","disturbing","2","28","B","D","S","",""
"","","","","","html-slider-response","21","103342","0.0-17.0","hzqvy4y8ej","0","NaN","<div style=""width:500px;"">
                            <p style=""font-size:50px; font-weight:bold;""
                            >disturbing</p>
                            <div style=""width:240px; margin: auto;"">
                                <img src=""images/R_L_S_02.png"" style= ""width:200px""alt=""img"">
                            </div>
                        </div>","-200","","0","images/R_L_S_02.png","","","","disturbing","2","02","R","L","S","",""
"","","","","","html-slider-response","22","105240","0.0-18.0","hzqvy4y8ej","0","NaN","<div style=""width:500px;"">
                            <p style=""font-size:50px; font-weight:bold;""
                            >disturbing</p>
                            <div style=""width:240px; margin: auto;"">
                                <img src=""images/B_L_U_27.png"" style= ""width:200px""alt=""img"">
                            </div>
                        </div>","-200","","0","images/B_L_U_27.png","","","","disturbing","2","27","B","L","U","",""
"","","","","","html-slider-response","23","107184","0.0-19.0","hzqvy4y8ej","0","NaN","<div style=""width:500px;"">
                            <p style=""font-size:50px; font-weight:bold;""
                            >disturbing</p>
                            <div style=""width:240px; margin: auto;"">
                                <img src=""images/R_D_S_07.png"" style= ""width:200px""alt=""img"">
                            </div>
                        </div>","22","","0","images/R_D_S_07.png","","","","disturbing","2","07","R","D","S","",""
"","","","","","html-slider-response","24","109187","0.0-20.0","hzqvy4y8ej","0","NaN","<div style=""width:500px;"">
                            <p style=""font-size:50px; font-weight:bold;""
                            >disturbing</p>
                            <div style=""width:240px; margin: auto;"">
                                <img src=""images/Y_L_U_37.png"" style= ""width:200px""alt=""img"">
                            </div>
                        </div>","-109","","0","images/Y_L_U_37.png","","","","disturbing","2","37","Y","L","U","",""
"","","","","","html-slider-response","25","111932","0.0-21.0","hzqvy4y8ej","0","NaN","<div style=""width:500px;"">
                            <p style=""font-size:50px; font-weight:bold;""
                            >disturbing</p>
                            <div style=""width:240px; margin: auto;"">
                                <img src=""images/Y_L_S_33.png"" style= ""width:200px""alt=""img"">
                            </div>
                        </div>","50","","0","images/Y_L_S_33.png","","","","disturbing","2","33","Y","L","S","",""
"","","","","","html-slider-response","26","113595","0.0-22.0","hzqvy4y8ej","0","NaN","<div style=""width:500px;"">
                            <p style=""font-size:50px; font-weight:bold;""
                            >disturbing</p>
                            <div style=""width:240px; margin: auto;"">
                                <img src=""images/B_L_S_26.png"" style= ""width:200px""alt=""img"">
                            </div>
                        </div>","-200","","0","images/B_L_S_26.png","","","","disturbing","2","26","B","L","S","",""
"","","","","","html-slider-response","27","115393","0.0-23.0","hzqvy4y8ej","0","NaN","<div style=""width:500px;"">
                            <p style=""font-size:50px; font-weight:bold;""
                            >disturbing</p>
                            <div style=""width:240px; margin: auto;"">
                                <img src=""images/Y_L_S_33.png"" style= ""width:200px""alt=""img"">
                            </div>
                        </div>","19","","0","images/Y_L_S_33.png","","","","disturbing","1","33","Y","L","S","",""
"","","","","","html-slider-response","28","117696","0.0-24.0","hzqvy4y8ej","0","NaN","<div style=""width:500px;"">
                            <p style=""font-size:50px; font-weight:bold;""
                            >disturbing</p>
                            <div style=""width:240px; margin: auto;"">
                                <img src=""images/Y_D_U_44.png"" style= ""width:200px""alt=""img"">
                            </div>
                        </div>","71","","0","images/Y_D_U_44.png","","","","disturbing","2","44","Y","D","U","",""
"","","","","","html-slider-response","29","119432","0.0-25.0","hzqvy4y8ej","0","NaN","<div style=""width:500px;"">
                            <p style=""font-size:50px; font-weight:bold;""
                            >disturbing</p>
                            <div style=""width:240px; margin: auto;"">
                                <img src=""images/R_L_U_05.png"" style= ""width:200px""alt=""img"">
                            </div>
                        </div>","-121","","0","images/R_L_U_05.png","","","","disturbing","1","05","R","L","U","",""
"","","","","","html-slider-response","30","122015","0.0-26.0","hzqvy4y8ej","0","NaN","<div style=""width:500px;"">
                            <p style=""font-size:50px; font-weight:bold;""
                            >disturbing</p>
                            <div style=""width:240px; margin: auto;"">
                                <img src=""images/R_D_S_07.png"" style= ""width:200px""alt=""img"">
                            </div>
                        </div>","-54","","0","images/R_D_S_07.png","","","","disturbing","1","07","R","D","S","",""
"","","","","","html-slider-response","31","123646","0.0-27.0","hzqvy4y8ej","0","NaN","<div style=""width:500px;"">
                            <p style=""font-size:50px; font-weight:bold;""
                            >disturbing</p>
                            <div style=""width:240px; margin: auto;"">
                                <img src=""images/G_L_U_13.png"" style= ""width:200px""alt=""img"">
                            </div>
                        </div>","-200","","0","images/G_L_U_13.png","","","","disturbing","1","13","G","L","U","",""
"","","","","","html-slider-response","32","125431","0.0-28.0","hzqvy4y8ej","0","NaN","<div style=""width:500px;"">
                            <p style=""font-size:50px; font-weight:bold;""
                            >disturbing</p>
                            <div style=""width:240px; margin: auto;"">
                                <img src=""images/R_L_U_05.png"" style= ""width:200px""alt=""img"">
                            </div>
                        </div>","-85","","0","images/R_L_U_05.png","","","","disturbing","2","05","R","L","U","",""
"","","","","","html-slider-response","33","127161","0.0-29.0","hzqvy4y8ej","0","NaN","<div style=""width:500px;"">
                            <p style=""font-size:50px; font-weight:bold;""
                            >disturbing</p>
                            <div style=""width:240px; margin: auto;"">
                                <img src=""images/G_D_U_23.png"" style= ""width:200px""alt=""img"">
                            </div>
                        </div>","36","","0","images/G_D_U_23.png","","","","disturbing","2","23","G","D","U","",""
"","","","","","html-slider-response","34","129286","0.0-30.0","hzqvy4y8ej","0","NaN","<div style=""width:500px;"">
                            <p style=""font-size:50px; font-weight:bold;""
                            >disturbing</p>
                            <div style=""width:240px; margin: auto;"">
                                <img src=""images/Y_L_U_37.png"" style= ""width:200px""alt=""img"">
                            </div>
                        </div>","11","","0","images/Y_L_U_37.png","","","","disturbing","1","37","Y","L","U","",""
"","","","","","html-slider-response","35","131184","0.0-31.0","hzqvy4y8ej","0","NaN","<div style=""width:500px;"">
                            <p style=""font-size:50px; font-weight:bold;""
                            >disturbing</p>
                            <div style=""width:240px; margin: auto;"">
                                <img src=""images/G_L_S_12.png"" style= ""width:200px""alt=""img"">
                            </div>
                        </div>","-41","","0","images/G_L_S_12.png","","","","disturbing","1","12","G","L","S","",""
"","","","","","html-slider-response","36","132949","0.0-32.0","hzqvy4y8ej","0","NaN","<div style=""width:500px;"">
                            <p style=""font-size:50px; font-weight:bold;""
                            >disturbing</p>
                            <div style=""width:240px; margin: auto;"">
                                <img src=""images/Y_D_S_41.png"" style= ""width:200px""alt=""img"">
                            </div>
                        </div>","34","","0","images/Y_D_S_41.png","","","","disturbing","2","41","Y","D","S","",""
"","","","","","html-slider-response","37","134918","0.0-33.0","hzqvy4y8ej","0","NaN","<div style=""width:500px;"">
                            <p style=""font-size:50px; font-weight:bold;""
                            >disturbing</p>
                            <div style=""width:240px; margin: auto;"">
                                <img src=""images/Y_D_U_44.png"" style= ""width:200px""alt=""img"">
                            </div>
                        </div>","105","","0","images/Y_D_U_44.png","","","","disturbing","1","44","Y","D","U","",""
"","","","","","html-slider-response","38","136556","0.0-34.0","hzqvy4y8ej","0","NaN","<div style=""width:500px;"">
                            <p style=""font-size:50px; font-weight:bold;""
                            >disturbing</p>
                            <div style=""width:240px; margin: auto;"">
                                <img src=""images/B_D_U_30.png"" style= ""width:200px""alt=""img"">
                            </div>
                        </div>","76","","0","images/B_D_U_30.png","","","","disturbing","2","30","B","D","U","",""
"","","","","","html-slider-response","39","138163","0.0-35.0","hzqvy4y8ej","0","NaN","<div style=""width:500px;"">
                            <p style=""font-size:50px; font-weight:bold;""
                            >disturbing</p>
                            <div style=""width:240px; margin: auto;"">
                                <img src=""images/R_D_U_10.png"" style= ""width:200px""alt=""img"">
                            </div>
                        </div>","111","","0","images/R_D_U_10.png","","","","disturbing","1","10","R","D","U","",""
"","","","","","html-slider-response","40","139612","0.0-36.0","hzqvy4y8ej","0","NaN","<div style=""width:500px;"">
                            <p style=""font-size:50px; font-weight:bold;""
                            >disturbing</p>
                            <div style=""width:240px; margin: auto;"">
                                <img src=""images/B_L_S_26.png"" style= ""width:200px""alt=""img"">
                            </div>
                        </div>","-141","","0","images/B_L_S_26.png","","","","disturbing","1","26","B","L","S","",""
"","","","","","html-slider-response","41","141219","0.0-37.0","hzqvy4y8ej","0","NaN","<div style=""width:500px;"">
                            <p style=""font-size:50px; font-weight:bold;""
                            >disturbing</p>
                            <div style=""width:240px; margin: auto;"">
                                <img src=""images/B_D_U_30.png"" style= ""width:200px""alt=""img"">
                            </div>
                        </div>","31","","0","images/B_D_U_30.png","","","","disturbing","1","30","B","D","U","",""
"","","","","","html-slider-response","42","142695","0.0-38.0","hzqvy4y8ej","0","NaN","<div style=""width:500px;"">
                            <p style=""font-size:50px; font-weight:bold;""
                            >disturbing</p>
                            <div style=""width:240px; margin: auto;"">
                                <img src=""images/G_D_S_15.png"" style= ""width:200px""alt=""img"">
                            </div>
                        </div>","36","","0","images/G_D_S_15.png","","","","disturbing","1","15","G","D","S","",""
"","","","","","html-slider-response","43","144195","0.0-39.0","hzqvy4y8ej","0","NaN","<div style=""width:500px;"">
                            <p style=""font-size:50px; font-weight:bold;""
                            >disturbing</p>
                            <div style=""width:240px; margin: auto;"">
                                <img src=""images/G_D_S_15.png"" style= ""width:200px""alt=""img"">
                            </div>
                        </div>","16","","0","images/G_D_S_15.png","","","","disturbing","2","15","G","D","S","",""
"","","","","","html-slider-response","44","145875","0.0-40.0","hzqvy4y8ej","0","NaN","<div style=""width:500px;"">
                            <p style=""font-size:50px; font-weight:bold;""
                            >disturbing</p>
                            <div style=""width:240px; margin: auto;"">
                                <img src=""images/G_D_U_23.png"" style= ""width:200px""alt=""img"">
                            </div>
                        </div>","51","","0","images/G_D_U_23.png","","","","disturbing","1","23","G","D","U","",""
"","","","","","html-slider-response","45","147631","0.0-41.0","hzqvy4y8ej","0","NaN","<div style=""width:500px;"">
                            <p style=""font-size:50px; font-weight:bold;""
                            >disturbing</p>
                            <div style=""width:240px; margin: auto;"">
                                <img src=""images/R_L_S_02.png"" style= ""width:200px""alt=""img"">
                            </div>
                        </div>","-81","","0","images/R_L_S_02.png","","","","disturbing","1","02","R","L","S","",""
"","","","","","html-slider-response","46","149348","0.0-42.0","hzqvy4y8ej","0","NaN","<div style=""width:500px;"">
                            <p style=""font-size:50px; font-weight:bold;""
                            >disturbing</p>
                            <div style=""width:240px; margin: auto;"">
                                <img src=""images/B_L_U_27.png"" style= ""width:200px""alt=""img"">
                            </div>
                        </div>","-200","","0","images/B_L_U_27.png","","","","disturbing","1","27","B","L","U","",""
"","","","","","html-slider-response","47","150831","0.0-43.0","hzqvy4y8ej","0","NaN","<div style=""width:500px;"">
                            <p style=""font-size:50px; font-weight:bold;""
                            >disturbing</p>
                            <div style=""width:240px; margin: auto;"">
                                <img src=""images/Y_D_S_41.png"" style= ""width:200px""alt=""img"">
                            </div>
                        </div>","27","","0","images/Y_D_S_41.png","","","","disturbing","1","41","Y","D","S","",""
"","","","","","html-slider-response","48","152763","0.0-44.0","hzqvy4y8ej","0","NaN","<div style=""width:500px;"">
                            <p style=""font-size:50px; font-weight:bold;""
                            >disturbing</p>
                            <div style=""width:240px; margin: auto;"">
                                <img src=""images/G_L_U_13.png"" style= ""width:200px""alt=""img"">
                            </div>
                        </div>","-200","","0","images/G_L_U_13.png","","","","disturbing","2","13","G","L","U","",""
"","","","","","html-slider-response","49","154791","0.0-45.0","hzqvy4y8ej","0","NaN","<div style=""width:500px;"">
                            <p style=""font-size:50px; font-weight:bold;""
                            >disturbing</p>
                            <div style=""width:240px; margin: auto;"">
                                <img src=""images/B_D_S_28.png"" style= ""width:200px""alt=""img"">
                            </div>
                        </div>","-200","","0","images/B_D_S_28.png","","","","disturbing","1","28","B","D","S","",""
"","","","","","html-button-response","50","156922","0.0-46.0","hzqvy4y8ej","0","1629","<p>Great Job! You've finished block 1.<br></br> You have 7 block(s) left to go.<br></br></p>","0","","","","","","","","","","","","","",""
"","","","","","html-button-response","51","158025","0.0-47.0","hzqvy4y8ej","0","1102","<p>In this block of trials, you will be asked to rate how much you associate each map with:</p > <p style = 'font-size:150%; font-weight: bold'>serious</p><br></br>","0","","","","","","","","","","","","","",""
"","","","","","html-slider-response","52","162000","0.0-48.0","hzqvy4y8ej","0","NaN","<div style=""width:500px;"">
                            <p style=""font-size:50px; font-weight:bold;""
                            >serious</p>
                            <div style=""width:240px; margin: auto;"">
                                <img src=""images/G_D_S_15.png"" style= ""width:200px""alt=""img"">
                            </div>
                        </div>","-200","","0","images/G_D_S_15.png","","","","serious","2","15","G","D","S","",""
"","","","","","html-slider-response","53","163608","0.0-49.0","hzqvy4y8ej","0","NaN","<div style=""width:500px;"">
                            <p style=""font-size:50px; font-weight:bold;""
                            >serious</p>
                            <div style=""width:240px; margin: auto;"">
                                <img src=""images/B_D_U_30.png"" style= ""width:200px""alt=""img"">
                            </div>
                        </div>","69","","0","images/B_D_U_30.png","","","","serious","1","30","B","D","U","",""
"","","","","","html-slider-response","54","165500","0.0-50.0","hzqvy4y8ej","0","NaN","<div style=""width:500px;"">
                            <p style=""font-size:50px; font-weight:bold;""
                            >serious</p>
                            <div style=""width:240px; margin: auto;"">
                                <img src=""images/Y_L_S_33.png"" style= ""width:200px""alt=""img"">
                            </div>
                        </div>","-200","","0","images/Y_L_S_33.png","","","","serious","2","33","Y","L","S","",""
"","","","","","html-slider-response","55","167014","0.0-51.0","hzqvy4y8ej","0","NaN","<div style=""width:500px;"">
                            <p style=""font-size:50px; font-weight:bold;""
                            >serious</p>
                            <div style=""width:240px; margin: auto;"">
                                <img src=""images/Y_D_U_44.png"" style= ""width:200px""alt=""img"">
                            </div>
                        </div>","91","","0","images/Y_D_U_44.png","","","","serious","1","44","Y","D","U","",""
"","","","","","html-slider-response","56","168480","0.0-52.0","hzqvy4y8ej","0","NaN","<div style=""width:500px;"">
                            <p style=""font-size:50px; font-weight:bold;""
                            >serious</p>
                            <div style=""width:240px; margin: auto;"">
                                <img src=""images/Y_D_S_41.png"" style= ""width:200px""alt=""img"">
                            </div>
                        </div>","90","","0","images/Y_D_S_41.png","","","","serious","2","41","Y","D","S","",""
"","","","","","html-slider-response","57","171140","0.0-53.0","hzqvy4y8ej","0","NaN","<div style=""width:500px;"">
                            <p style=""font-size:50px; font-weight:bold;""
                            >serious</p>
                            <div style=""width:240px; margin: auto;"">
                                <img src=""images/R_D_U_10.png"" style= ""width:200px""alt=""img"">
                            </div>
                        </div>","162","","0","images/R_D_U_10.png","","","","serious","2","10","R","D","U","",""
"","","","","","html-slider-response","58","172942","0.0-54.0","hzqvy4y8ej","0","NaN","<div style=""width:500px;"">
                            <p style=""font-size:50px; font-weight:bold;""
                            >serious</p>
                            <div style=""width:240px; margin: auto;"">
                                <img src=""images/B_D_S_28.png"" style= ""width:200px""alt=""img"">
                            </div>
                        </div>","-50","","0","images/B_D_S_28.png","","","","serious","1","28","B","D","S","",""
"","","","","","html-slider-response","59","174348","0.0-55.0","hzqvy4y8ej","0","NaN","<div style=""width:500px;"">
                            <p style=""font-size:50px; font-weight:bold;""
                            >serious</p>
                            <div style=""width:240px; margin: auto;"">
                                <img src=""images/B_L_S_26.png"" style= ""width:200px""alt=""img"">
                            </div>
                        </div>","-200","","0","images/B_L_S_26.png","","","","serious","2","26","B","L","S","",""
"","","","","","html-slider-response","60","175945","0.0-56.0","hzqvy4y8ej","0","NaN","<div style=""width:500px;"">
                            <p style=""font-size:50px; font-weight:bold;""
                            >serious</p>
                            <div style=""width:240px; margin: auto;"">
                                <img src=""images/G_L_S_12.png"" style= ""width:200px""alt=""img"">
                            </div>
                        </div>","-200","","0","images/G_L_S_12.png","","","","serious","1","12","G","L","S","",""
"","","","","","html-slider-response","61","177755","0.0-57.0","hzqvy4y8ej","0","NaN","<div style=""width:500px;"">
                            <p style=""font-size:50px; font-weight:bold;""
                            >serious</p>
                            <div style=""width:240px; margin: auto;"">
                                <img src=""images/R_D_U_10.png"" style= ""width:200px""alt=""img"">
                            </div>
                        </div>","76","","0","images/R_D_U_10.png","","","","serious","1","10","R","D","U","",""
"","","","","","html-slider-response","62","179305","0.0-58.0","hzqvy4y8ej","0","NaN","<div style=""width:500px;"">
                            <p style=""font-size:50px; font-weight:bold;""
                            >serious</p>
                            <div style=""width:240px; margin: auto;"">
                                <img src=""images/Y_D_U_44.png"" style= ""width:200px""alt=""img"">
                            </div>
                        </div>","54","","0","images/Y_D_U_44.png","","","","serious","2","44","Y","D","U","",""
"","","","","","html-slider-response","63","180794","0.0-59.0","hzqvy4y8ej","0","NaN","<div style=""width:500px;"">
                            <p style=""font-size:50px; font-weight:bold;""
                            >serious</p>
                            <div style=""width:240px; margin: auto;"">
                                <img src=""images/G_L_U_13.png"" style= ""width:200px""alt=""img"">
                            </div>
                        </div>","-200","","0","images/G_L_U_13.png","","","","serious","2","13","G","L","U","",""
"","","","","","html-slider-response","64","182307","0.0-60.0","hzqvy4y8ej","0","NaN","<div style=""width:500px;"">
                            <p style=""font-size:50px; font-weight:bold;""
                            >serious</p>
                            <div style=""width:240px; margin: auto;"">
                                <img src=""images/B_D_U_30.png"" style= ""width:200px""alt=""img"">
                            </div>
                        </div>","83","","0","images/B_D_U_30.png","","","","serious","2","30","B","D","U","",""
"","","","","","html-slider-response","65","184008","0.0-61.0","hzqvy4y8ej","0","NaN","<div style=""width:500px;"">
                            <p style=""font-size:50px; font-weight:bold;""
                            >serious</p>
                            <div style=""width:240px; margin: auto;"">
                                <img src=""images/B_D_S_28.png"" style= ""width:200px""alt=""img"">
                            </div>
                        </div>","78","","0","images/B_D_S_28.png","","","","serious","2","28","B","D","S","",""
"","","","","","html-slider-response","66","185351","0.0-62.0","hzqvy4y8ej","0","NaN","<div style=""width:500px;"">
                            <p style=""font-size:50px; font-weight:bold;""
                            >serious</p>
                            <div style=""width:240px; margin: auto;"">
                                <img src=""images/G_L_U_13.png"" style= ""width:200px""alt=""img"">
                            </div>
                        </div>","-50","","0","images/G_L_U_13.png","","","","serious","1","13","G","L","U","",""
"","","","","","html-slider-response","67","186782","0.0-63.0","hzqvy4y8ej","0","NaN","<div style=""width:500px;"">
                            <p style=""font-size:50px; font-weight:bold;""
                            >serious</p>
                            <div style=""width:240px; margin: auto;"">
                                <img src=""images/R_D_S_07.png"" style= ""width:200px""alt=""img"">
                            </div>
                        </div>","-200","","0","images/R_D_S_07.png","","","","serious","2","07","R","D","S","",""
"","","","","","html-slider-response","68","188157","0.0-64.0","hzqvy4y8ej","0","NaN","<div style=""width:500px;"">
                            <p style=""font-size:50px; font-weight:bold;""
                            >serious</p>
                            <div style=""width:240px; margin: auto;"">
                                <img src=""images/R_D_S_07.png"" style= ""width:200px""alt=""img"">
                            </div>
                        </div>","-200","","0","images/R_D_S_07.png","","","","serious","1","07","R","D","S","",""
"","","","","","html-slider-response","69","189966","0.0-65.0","hzqvy4y8ej","0","NaN","<div style=""width:500px;"">
                            <p style=""font-size:50px; font-weight:bold;""
                            >serious</p>
                            <div style=""width:240px; margin: auto;"">
                                <img src=""images/Y_D_S_41.png"" style= ""width:200px""alt=""img"">
                            </div>
                        </div>","114","","0","images/Y_D_S_41.png","","","","serious","1","41","Y","D","S","",""
"","","","","","html-slider-response","70","192294","0.0-66.0","hzqvy4y8ej","0","NaN","<div style=""width:500px;"">
                            <p style=""font-size:50px; font-weight:bold;""
                            >serious</p>
                            <div style=""width:240px; margin: auto;"">
                                <img src=""images/R_L_U_05.png"" style= ""width:200px""alt=""img"">
                            </div>
                        </div>","-200","","0","images/R_L_U_05.png","","","","serious","2","05","R","L","U","",""
"","","","","","html-slider-response","71","193818","0.0-67.0","hzqvy4y8ej","0","NaN","<div style=""width:500px;"">
                            <p style=""font-size:50px; font-weight:bold;""
                            >serious</p>
                            <div style=""width:240px; margin: auto;"">
                                <img src=""images/Y_L_S_33.png"" style= ""width:200px""alt=""img"">
                            </div>
                        </div>","-156","","0","images/Y_L_S_33.png","","","","serious","1","33","Y","L","S","",""
"","","","","","html-slider-response","72","195448","0.0-68.0","hzqvy4y8ej","0","NaN","<div style=""width:500px;"">
                            <p style=""font-size:50px; font-weight:bold;""
                            >serious</p>
                            <div style=""width:240px; margin: auto;"">
                                <img src=""images/G_D_U_23.png"" style= ""width:200px""alt=""img"">
                            </div>
                        </div>","-158","","0","images/G_D_U_23.png","","","","serious","2","23","G","D","U","",""
"","","","","","html-slider-response","73","197105","0.0-69.0","hzqvy4y8ej","0","NaN","<div style=""width:500px;"">
                            <p style=""font-size:50px; font-weight:bold;""
                            >serious</p>
                            <div style=""width:240px; margin: auto;"">
                                <img src=""images/B_L_U_27.png"" style= ""width:200px""alt=""img"">
                            </div>
                        </div>","-200","","0","images/B_L_U_27.png","","","","serious","1","27","B","L","U","",""
"","","","","","html-slider-response","74","198767","0.0-70.0","hzqvy4y8ej","0","NaN","<div style=""width:500px;"">
                            <p style=""font-size:50px; font-weight:bold;""
                            >serious</p>
                            <div style=""width:240px; margin: auto;"">
                                <img src=""images/Y_L_U_37.png"" style= ""width:200px""alt=""img"">
                            </div>
                        </div>","-200","","0","images/Y_L_U_37.png","","","","serious","2","37","Y","L","U","",""
"","","","","","html-slider-response","75","200473","0.0-71.0","hzqvy4y8ej","0","NaN","<div style=""width:500px;"">
                            <p style=""font-size:50px; font-weight:bold;""
                            >serious</p>
                            <div style=""width:240px; margin: auto;"">
                                <img src=""images/R_L_S_02.png"" style= ""width:200px""alt=""img"">
                            </div>
                        </div>","-200","","0","images/R_L_S_02.png","","","","serious","2","02","R","L","S","",""
"","","","","","html-slider-response","76","202107","0.0-72.0","hzqvy4y8ej","0","NaN","<div style=""width:500px;"">
                            <p style=""font-size:50px; font-weight:bold;""
                            >serious</p>
                            <div style=""width:240px; margin: auto;"">
                                <img src=""images/R_L_S_02.png"" style= ""width:200px""alt=""img"">
                            </div>
                        </div>","-200","","0","images/R_L_S_02.png","","","","serious","1","02","R","L","S","",""
"","","","","","html-slider-response","77","203846","0.0-73.0","hzqvy4y8ej","0","NaN","<div style=""width:500px;"">
                            <p style=""font-size:50px; font-weight:bold;""
                            >serious</p>
                            <div style=""width:240px; margin: auto;"">
                                <img src=""images/G_L_S_12.png"" style= ""width:200px""alt=""img"">
                            </div>
                        </div>","-200","","0","images/G_L_S_12.png","","","","serious","2","12","G","L","S","",""
"","","","","","html-slider-response","78","205490","0.0-74.0","hzqvy4y8ej","0","NaN","<div style=""width:500px;"">
                            <p style=""font-size:50px; font-weight:bold;""
                            >serious</p>
                            <div style=""width:240px; margin: auto;"">
                                <img src=""images/G_D_S_15.png"" style= ""width:200px""alt=""img"">
                            </div>
                        </div>","98","","0","images/G_D_S_15.png","","","","serious","1","15","G","D","S","",""
"","","","","","html-slider-response","79","207736","0.0-75.0","hzqvy4y8ej","0","NaN","<div style=""width:500px;"">
                            <p style=""font-size:50px; font-weight:bold;""
                            >serious</p>
                            <div style=""width:240px; margin: auto;"">
                                <img src=""images/Y_L_U_37.png"" style= ""width:200px""alt=""img"">
                            </div>
                        </div>","62","","0","images/Y_L_U_37.png","","","","serious","1","37","Y","L","U","",""
"","","","","","html-slider-response","80","209261","0.0-76.0","hzqvy4y8ej","0","NaN","<div style=""width:500px;"">
                            <p style=""font-size:50px; font-weight:bold;""
                            >serious</p>
                            <div style=""width:240px; margin: auto;"">
                                <img src=""images/B_L_U_27.png"" style= ""width:200px""alt=""img"">
                            </div>
                        </div>","-200","","0","images/B_L_U_27.png","","","","serious","2","27","B","L","U","",""
"","","","","","html-slider-response","81","210865","0.0-77.0","hzqvy4y8ej","0","NaN","<div style=""width:500px;"">
                            <p style=""font-size:50px; font-weight:bold;""
                            >serious</p>
                            <div style=""width:240px; margin: auto;"">
                                <img src=""images/R_L_U_05.png"" style= ""width:200px""alt=""img"">
                            </div>
                        </div>","-200","","0","images/R_L_U_05.png","","","","serious","1","05","R","L","U","",""
"","","","","","html-slider-response","82","212857","0.0-78.0","hzqvy4y8ej","0","NaN","<div style=""width:500px;"">
                            <p style=""font-size:50px; font-weight:bold;""
                            >serious</p>
                            <div style=""width:240px; margin: auto;"">
                                <img src=""images/G_D_U_23.png"" style= ""width:200px""alt=""img"">
                            </div>
                        </div>","165","","0","images/G_D_U_23.png","","","","serious","1","23","G","D","U","",""
"","","","","","html-slider-response","83","215263","0.0-79.0","hzqvy4y8ej","0","NaN","<div style=""width:500px;"">
                            <p style=""font-size:50px; font-weight:bold;""
                            >serious</p>
                            <div style=""width:240px; margin: auto;"">
                                <img src=""images/B_L_S_26.png"" style= ""width:200px""alt=""img"">
                            </div>
                        </div>","-154","","0","images/B_L_S_26.png","","","","serious","1","26","B","L","S","",""
"","","","","","html-button-response","84","217311","0.0-80.0","hzqvy4y8ej","0","1546","<p>Great Job! You've finished block 2.<br></br> You have 6 block(s) left to go.<br></br></p>","0","","","","","","","","","","","","","",""
"","","","","","html-button-response","85","218278","0.0-81.0","hzqvy4y8ej","0","966","<p>In this block of trials, you will be asked to rate how much you associate each map with:</p > <p style = 'font-size:150%; font-weight: bold'>playful</p><br></br>","0","","","","","","","","","","","","","",""
"","","","","","html-slider-response","86","219719","0.0-82.0","hzqvy4y8ej","0","NaN","<div style=""width:500px;"">
                            <p style=""font-size:50px; font-weight:bold;""
                            >playful</p>
                            <div style=""width:240px; margin: auto;"">
                                <img src=""images/G_L_U_13.png"" style= ""width:200px""alt=""img"">
                            </div>
                        </div>","70","","0","images/G_L_U_13.png","","","","playful","2","13","G","L","U","",""
"","","","","","html-slider-response","87","221115","0.0-83.0","hzqvy4y8ej","0","NaN","<div style=""width:500px;"">
                            <p style=""font-size:50px; font-weight:bold;""
                            >playful</p>
                            <div style=""width:240px; margin: auto;"">
                                <img src=""images/B_D_S_28.png"" style= ""width:200px""alt=""img"">
                            </div>
                        </div>","40","","0","images/B_D_S_28.png","","","","playful","2","28","B","D","S","",""
"","","","","","html-slider-response","88","223272","0.0-84.0","hzqvy4y8ej","0","NaN","<div style=""width:500px;"">
                            <p style=""font-size:50px; font-weight:bold;""
                            >playful</p>
                            <div style=""width:240px; margin: auto;"">
                                <img src=""images/G_D_S_15.png"" style= ""width:200px""alt=""img"">
                            </div>
                        </div>","85","","0","images/G_D_S_15.png","","","","playful","1","15","G","D","S","",""
"","","","","","html-slider-response","89","224799","0.0-85.0","hzqvy4y8ej","0","NaN","<div style=""width:500px;"">
                            <p style=""font-size:50px; font-weight:bold;""
                            >playful</p>
                            <div style=""width:240px; margin: auto;"">
                                <img src=""images/G_L_U_13.png"" style= ""width:200px""alt=""img"">
                            </div>
                        </div>","52","","0","images/G_L_U_13.png","","","","playful","1","13","G","L","U","",""
"","","","","","html-slider-response","90","226363","0.0-86.0","hzqvy4y8ej","0","NaN","<div style=""width:500px;"">
                            <p style=""font-size:50px; font-weight:bold;""
                            >playful</p>
                            <div style=""width:240px; margin: auto;"">
                                <img src=""images/B_D_U_30.png"" style= ""width:200px""alt=""img"">
                            </div>
                        </div>","-86","","0","images/B_D_U_30.png","","","","playful","2","30","B","D","U","",""
"","","","","","html-slider-response","91","227623","0.0-87.0","hzqvy4y8ej","0","NaN","<div style=""width:500px;"">
                            <p style=""font-size:50px; font-weight:bold;""
                            >playful</p>
                            <div style=""width:240px; margin: auto;"">
                                <img src=""images/B_D_U_30.png"" style= ""width:200px""alt=""img"">
                            </div>
                        </div>","-50","","0","images/B_D_U_30.png","","","","playful","1","30","B","D","U","",""
"","","","","","html-slider-response","92","229359","0.0-88.0","hzqvy4y8ej","0","NaN","<div style=""width:500px;"">
                            <p style=""font-size:50px; font-weight:bold;""
                            >playful</p>
                            <div style=""width:240px; margin: auto;"">
                                <img src=""images/G_L_S_12.png"" style= ""width:200px""alt=""img"">
                            </div>
                        </div>","86","","0","images/G_L_S_12.png","","","","playful","2","12","G","L","S","",""
"","","","","","html-slider-response","93","231074","0.0-89.0","hzqvy4y8ej","0","NaN","<div style=""width:500px;"">
                            <p style=""font-size:50px; font-weight:bold;""
                            >playful</p>
                            <div style=""width:240px; margin: auto;"">
                                <img src=""images/R_D_S_07.png"" style= ""width:200px""alt=""img"">
                            </div>
                        </div>","151","","0","images/R_D_S_07.png","","","","playful","1","07","R","D","S","",""
"","","","","","html-slider-response","94","233374","0.0-90.0","hzqvy4y8ej","0","NaN","<div style=""width:500px;"">
                            <p style=""font-size:50px; font-weight:bold;""
                            >playful</p>
                            <div style=""width:240px; margin: auto;"">
                                <img src=""images/G_D_U_23.png"" style= ""width:200px""alt=""img"">
                            </div>
                        </div>","-200","","0","images/G_D_U_23.png","","","","playful","2","23","G","D","U","",""
"","","","","","html-slider-response","95","235168","0.0-91.0","hzqvy4y8ej","0","NaN","<div style=""width:500px;"">
                            <p style=""font-size:50px; font-weight:bold;""
                            >playful</p>
                            <div style=""width:240px; margin: auto;"">
                                <img src=""images/Y_L_U_37.png"" style= ""width:200px""alt=""img"">
                            </div>
                        </div>","-125","","0","images/Y_L_U_37.png","","","","playful","1","37","Y","L","U","",""
"","","","","","html-slider-response","96","237079","0.0-92.0","hzqvy4y8ej","0","NaN","<div style=""width:500px;"">
                            <p style=""font-size:50px; font-weight:bold;""
                            >playful</p>
                            <div style=""width:240px; margin: auto;"">
                                <img src=""images/G_L_S_12.png"" style= ""width:200px""alt=""img"">
                            </div>
                        </div>","200","","0","images/G_L_S_12.png","","","","playful","1","12","G","L","S","",""
"","","","","","html-slider-response","97","239142","0.0-93.0","hzqvy4y8ej","0","NaN","<div style=""width:500px;"">
                            <p style=""font-size:50px; font-weight:bold;""
                            >playful</p>
                            <div style=""width:240px; margin: auto;"">
                                <img src=""images/R_L_U_05.png"" style= ""width:200px""alt=""img"">
                            </div>
                        </div>","87","","0","images/R_L_U_05.png","","","","playful","1","05","R","L","U","",""
"","","","","","html-slider-response","98","240649","0.0-94.0","hzqvy4y8ej","0","NaN","<div style=""width:500px;"">
                            <p style=""font-size:50px; font-weight:bold;""
                            >playful</p>
                            <div style=""width:240px; margin: auto;"">
                                <img src=""images/Y_D_U_44.png"" style= ""width:200px""alt=""img"">
                            </div>
                        </div>","-200","","0","images/Y_D_U_44.png","","","","playful","1","44","Y","D","U","",""
"","","","","","html-slider-response","99","242790","0.0-95.0","hzqvy4y8ej","0","NaN","<div style=""width:500px;"">
                            <p style=""font-size:50px; font-weight:bold;""
                            >playful</p>
                            <div style=""width:240px; margin: auto;"">
                                <img src=""images/Y_L_S_33.png"" style= ""width:200px""alt=""img"">
                            </div>
                        </div>","-106","","0","images/Y_L_S_33.png","","","","playful","2","33","Y","L","S","",""
"","","","","","html-slider-response","100","244405","0.0-96.0","hzqvy4y8ej","0","NaN","<div style=""width:500px;"">
                            <p style=""font-size:50px; font-weight:bold;""
                            >playful</p>
                            <div style=""width:240px; margin: auto;"">
                                <img src=""images/B_L_S_26.png"" style= ""width:200px""alt=""img"">
                            </div>
                        </div>","118","","0","images/B_L_S_26.png","","","","playful","2","26","B","L","S","",""
"","","","","","html-slider-response","101","245661","0.0-97.0","hzqvy4y8ej","0","NaN","<div style=""width:500px;"">
                            <p style=""font-size:50px; font-weight:bold;""
                            >playful</p>
                            <div style=""width:240px; margin: auto;"">
                                <img src=""images/Y_D_U_44.png"" style= ""width:200px""alt=""img"">
                            </div>
                        </div>","-2","","0","images/Y_D_U_44.png","","","","playful","2","44","Y","D","U","",""
"","","","","","html-slider-response","102","247805","0.0-98.0","hzqvy4y8ej","0","NaN","<div style=""width:500px;"">
                            <p style=""font-size:50px; font-weight:bold;""
                            >playful</p>
                            <div style=""width:240px; margin: auto;"">
                                <img src=""images/B_L_U_27.png"" style= ""width:200px""alt=""img"">
                            </div>
                        </div>","160","","0","images/B_L_U_27.png","","","","playful","2","27","B","L","U","",""
"","","","","","html-slider-response","103","249542","0.0-99.0","hzqvy4y8ej","0","NaN","<div style=""width:500px;"">
                            <p style=""font-size:50px; font-weight:bold;""
                            >playful</p>
                            <div style=""width:240px; margin: auto;"">
                                <img src=""images/Y_L_U_37.png"" style= ""width:200px""alt=""img"">
                            </div>
                        </div>","-148","","0","images/Y_L_U_37.png","","","","playful","2","37","Y","L","U","",""
"","","","","","html-slider-response","104","251178","0.0-100.0","hzqvy4y8ej","0","NaN","<div style=""width:500px;"">
                            <p style=""font-size:50px; font-weight:bold;""
                            >playful</p>
                            <div style=""width:240px; margin: auto;"">
                                <img src=""images/B_D_S_28.png"" style= ""width:200px""alt=""img"">
                            </div>
                        </div>","130","","0","images/B_D_S_28.png","","","","playful","1","28","B","D","S","",""
"","","","","","html-slider-response","105","252893","0.0-101.0","hzqvy4y8ej","0","NaN","<div style=""width:500px;"">
                            <p style=""font-size:50px; font-weight:bold;""
                            >playful</p>
                            <div style=""width:240px; margin: auto;"">
                                <img src=""images/R_D_S_07.png"" style= ""width:200px""alt=""img"">
                            </div>
                        </div>","164","","0","images/R_D_S_07.png","","","","playful","2","07","R","D","S","",""
"","","","","","html-slider-response","106","254495","0.0-102.0","hzqvy4y8ej","0","NaN","<div style=""width:500px;"">
                            <p style=""font-size:50px; font-weight:bold;""
                            >playful</p>
                            <div style=""width:240px; margin: auto;"">
                                <img src=""images/G_D_S_15.png"" style= ""width:200px""alt=""img"">
                            </div>
                        </div>","-127","","0","images/G_D_S_15.png","","","","playful","2","15","G","D","S","",""
"","","","","","html-slider-response","107","256042","0.0-103.0","hzqvy4y8ej","0","NaN","<div style=""width:500px;"">
                            <p style=""font-size:50px; font-weight:bold;""
                            >playful</p>
                            <div style=""width:240px; margin: auto;"">
                                <img src=""images/Y_D_S_41.png"" style= ""width:200px""alt=""img"">
                            </div>
                        </div>","-200","","0","images/Y_D_S_41.png","","","","playful","2","41","Y","D","S","",""
"","","","","","html-slider-response","108","257867","0.0-104.0","hzqvy4y8ej","0","NaN","<div style=""width:500px;"">
                            <p style=""font-size:50px; font-weight:bold;""
                            >playful</p>
                            <div style=""width:240px; margin: auto;"">
                                <img src=""images/Y_L_S_33.png"" style= ""width:200px""alt=""img"">
                            </div>
                        </div>","-136","","0","images/Y_L_S_33.png","","","","playful","1","33","Y","L","S","",""
"","","","","","html-slider-response","109","259731","0.0-105.0","hzqvy4y8ej","0","NaN","<div style=""width:500px;"">
                            <p style=""font-size:50px; font-weight:bold;""
                            >playful</p>
                            <div style=""width:240px; margin: auto;"">
                                <img src=""images/G_D_U_23.png"" style= ""width:200px""alt=""img"">
                            </div>
                        </div>","-200","","0","images/G_D_U_23.png","","","","playful","1","23","G","D","U","",""
"","","","","","html-slider-response","110","261429","0.0-106.0","hzqvy4y8ej","0","NaN","<div style=""width:500px;"">
                            <p style=""font-size:50px; font-weight:bold;""
                            >playful</p>
                            <div style=""width:240px; margin: auto;"">
                                <img src=""images/R_L_U_05.png"" style= ""width:200px""alt=""img"">
                            </div>
                        </div>","130","","0","images/R_L_U_05.png","","","","playful","2","05","R","L","U","",""
"","","","","","html-slider-response","111","263019","0.0-107.0","hzqvy4y8ej","0","NaN","<div style=""width:500px;"">
                            <p style=""font-size:50px; font-weight:bold;""
                            >playful</p>
                            <div style=""width:240px; margin: auto;"">
                                <img src=""images/B_L_U_27.png"" style= ""width:200px""alt=""img"">
                            </div>
                        </div>","91","","0","images/B_L_U_27.png","","","","playful","1","27","B","L","U","",""
"","","","","","html-slider-response","112","264897","0.0-108.0","hzqvy4y8ej","0","NaN","<div style=""width:500px;"">
                            <p style=""font-size:50px; font-weight:bold;""
                            >playful</p>
                            <div style=""width:240px; margin: auto;"">
                                <img src=""images/R_D_U_10.png"" style= ""width:200px""alt=""img"">
                            </div>
                        </div>","-200","","0","images/R_D_U_10.png","","","","playful","1","10","R","D","U","",""
"","","","","","html-slider-response","113","266400","0.0-109.0","hzqvy4y8ej","0","NaN","<div style=""width:500px;"">
                            <p style=""font-size:50px; font-weight:bold;""
                            >playful</p>
                            <div style=""width:240px; margin: auto;"">
                                <img src=""images/Y_D_S_41.png"" style= ""width:200px""alt=""img"">
                            </div>
                        </div>","-200","","0","images/Y_D_S_41.png","","","","playful","1","41","Y","D","S","",""
"","","","","","html-slider-response","114","268012","0.0-110.0","hzqvy4y8ej","0","NaN","<div style=""width:500px;"">
                            <p style=""font-size:50px; font-weight:bold;""
                            >playful</p>
                            <div style=""width:240px; margin: auto;"">
                                <img src=""images/R_D_U_10.png"" style= ""width:200px""alt=""img"">
                            </div>
                        </div>","-200","","0","images/R_D_U_10.png","","","","playful","2","10","R","D","U","",""
"","","","","","html-slider-response","115","269617","0.0-111.0","hzqvy4y8ej","0","NaN","<div style=""width:500px;"">
                            <p style=""font-size:50px; font-weight:bold;""
                            >playful</p>
                            <div style=""width:240px; margin: auto;"">
                                <img src=""images/R_L_S_02.png"" style= ""width:200px""alt=""img"">
                            </div>
                        </div>","76","","0","images/R_L_S_02.png","","","","playful","1","02","R","L","S","",""
"","","","","","html-slider-response","116","271297","0.0-112.0","hzqvy4y8ej","0","NaN","<div style=""width:500px;"">
                            <p style=""font-size:50px; font-weight:bold;""
                            >playful</p>
                            <div style=""width:240px; margin: auto;"">
                                <img src=""images/B_L_S_26.png"" style= ""width:200px""alt=""img"">
                            </div>
                        </div>","200","","0","images/B_L_S_26.png","","","","playful","1","26","B","L","S","",""
"","","","","","html-slider-response","117","273049","0.0-113.0","hzqvy4y8ej","0","NaN","<div style=""width:500px;"">
                            <p style=""font-size:50px; font-weight:bold;""
                            >playful</p>
                            <div style=""width:240px; margin: auto;"">
                                <img src=""images/R_L_S_02.png"" style= ""width:200px""alt=""img"">
                            </div>
                        </div>","200","","0","images/R_L_S_02.png","","","","playful","2","02","R","L","S","",""
"","","","","","html-button-response","118","277235","0.0-114.0","hzqvy4y8ej","0","3683","<p>Great Job! You've finished block 3.<br></br> You have 5 block(s) left to go.<br></br></p>","0","","","","","","","","","","","","","",""
"","","","","","html-button-response","119","278417","0.0-115.0","hzqvy4y8ej","0","1182","<p>In this block of trials, you will be asked to rate how much you associate each map with:</p > <p style = 'font-size:150%; font-weight: bold'>exciting</p><br></br>","0","","","","","","","","","","","","","",""
"","","","","","html-slider-response","120","279838","0.0-116.0","hzqvy4y8ej","0","NaN","<div style=""width:500px;"">
                            <p style=""font-size:50px; font-weight:bold;""
                            >exciting</p>
                            <div style=""width:240px; margin: auto;"">
                                <img src=""images/G_D_U_23.png"" style= ""width:200px""alt=""img"">
                            </div>
                        </div>","-200","","0","images/G_D_U_23.png","","","","exciting","2","23","G","D","U","",""
"","","","","","html-slider-response","121","281293","0.0-117.0","hzqvy4y8ej","0","NaN","<div style=""width:500px;"">
                            <p style=""font-size:50px; font-weight:bold;""
                            >exciting</p>
                            <div style=""width:240px; margin: auto;"">
                                <img src=""images/Y_L_U_37.png"" style= ""width:200px""alt=""img"">
                            </div>
                        </div>","-117","","0","images/Y_L_U_37.png","","","","exciting","2","37","Y","L","U","",""
"","","","","","html-slider-response","122","283658","0.0-118.0","hzqvy4y8ej","0","NaN","<div style=""width:500px;"">
                            <p style=""font-size:50px; font-weight:bold;""
                            >exciting</p>
                            <div style=""width:240px; margin: auto;"">
                                <img src=""images/B_L_U_27.png"" style= ""width:200px""alt=""img"">
                            </div>
                        </div>","52","","0","images/B_L_U_27.png","","","","exciting","1","27","B","L","U","",""
"","","","","","html-slider-response","123","285643","0.0-119.0","hzqvy4y8ej","0","NaN","<div style=""width:500px;"">
                            <p style=""font-size:50px; font-weight:bold;""
                            >exciting</p>
                            <div style=""width:240px; margin: auto;"">
                                <img src=""images/R_D_U_10.png"" style= ""width:200px""alt=""img"">
                            </div>
                        </div>","-200","","0","images/R_D_U_10.png","","","","exciting","2","10","R","D","U","",""
"","","","","","html-slider-response","124","287123","0.0-120.0","hzqvy4y8ej","0","NaN","<div style=""width:500px;"">
                            <p style=""font-size:50px; font-weight:bold;""
                            >exciting</p>
                            <div style=""width:240px; margin: auto;"">
                                <img src=""images/G_L_S_12.png"" style= ""width:200px""alt=""img"">
                            </div>
                        </div>","80","","0","images/G_L_S_12.png","","","","exciting","1","12","G","L","S","",""
"","","","","","html-slider-response","125","288654","0.0-121.0","hzqvy4y8ej","0","NaN","<div style=""width:500px;"">
                            <p style=""font-size:50px; font-weight:bold;""
                            >exciting</p>
                            <div style=""width:240px; margin: auto;"">
                                <img src=""images/R_L_S_02.png"" style= ""width:200px""alt=""img"">
                            </div>
                        </div>","92","","0","images/R_L_S_02.png","","","","exciting","2","02","R","L","S","",""
"","","","","","html-slider-response","126","290149","0.0-122.0","hzqvy4y8ej","0","NaN","<div style=""width:500px;"">
                            <p style=""font-size:50px; font-weight:bold;""
                            >exciting</p>
                            <div style=""width:240px; margin: auto;"">
                                <img src=""images/R_L_S_02.png"" style= ""width:200px""alt=""img"">
                            </div>
                        </div>","152","","0","images/R_L_S_02.png","","","","exciting","1","02","R","L","S","",""
"","","","","","html-slider-response","127","291651","0.0-123.0","hzqvy4y8ej","0","NaN","<div style=""width:500px;"">
                            <p style=""font-size:50px; font-weight:bold;""
                            >exciting</p>
                            <div style=""width:240px; margin: auto;"">
                                <img src=""images/Y_D_U_44.png"" style= ""width:200px""alt=""img"">
                            </div>
                        </div>","-200","","0","images/Y_D_U_44.png","","","","exciting","2","44","Y","D","U","",""
"","","","","","html-slider-response","128","293174","0.0-124.0","hzqvy4y8ej","0","NaN","<div style=""width:500px;"">
                            <p style=""font-size:50px; font-weight:bold;""
                            >exciting</p>
                            <div style=""width:240px; margin: auto;"">
                                <img src=""images/G_D_U_23.png"" style= ""width:200px""alt=""img"">
                            </div>
                        </div>","-148","","0","images/G_D_U_23.png","","","","exciting","1","23","G","D","U","",""
"","","","","","html-slider-response","129","294684","0.0-125.0","hzqvy4y8ej","0","NaN","<div style=""width:500px;"">
                            <p style=""font-size:50px; font-weight:bold;""
                            >exciting</p>
                            <div style=""width:240px; margin: auto;"">
                                <img src=""images/B_L_U_27.png"" style= ""width:200px""alt=""img"">
                            </div>
                        </div>","80","","0","images/B_L_U_27.png","","","","exciting","2","27","B","L","U","",""
"","","","","","html-slider-response","130","296231","0.0-126.0","hzqvy4y8ej","0","NaN","<div style=""width:500px;"">
                            <p style=""font-size:50px; font-weight:bold;""
                            >exciting</p>
                            <div style=""width:240px; margin: auto;"">
                                <img src=""images/Y_L_S_33.png"" style= ""width:200px""alt=""img"">
                            </div>
                        </div>","-92","","0","images/Y_L_S_33.png","","","","exciting","2","33","Y","L","S","",""
"","","","","","html-slider-response","131","297561","0.0-127.0","hzqvy4y8ej","0","NaN","<div style=""width:500px;"">
                            <p style=""font-size:50px; font-weight:bold;""
                            >exciting</p>
                            <div style=""width:240px; margin: auto;"">
                                <img src=""images/G_D_S_15.png"" style= ""width:200px""alt=""img"">
                            </div>
                        </div>","74","","0","images/G_D_S_15.png","","","","exciting","1","15","G","D","S","",""
"","","","","","html-slider-response","132","298846","0.0-128.0","hzqvy4y8ej","0","NaN","<div style=""width:500px;"">
                            <p style=""font-size:50px; font-weight:bold;""
                            >exciting</p>
                            <div style=""width:240px; margin: auto;"">
                                <img src=""images/B_L_S_26.png"" style= ""width:200px""alt=""img"">
                            </div>
                        </div>","70","","0","images/B_L_S_26.png","","","","exciting","2","26","B","L","S","",""
"","","","","","html-slider-response","133","300203","0.0-129.0","hzqvy4y8ej","0","NaN","<div style=""width:500px;"">
                            <p style=""font-size:50px; font-weight:bold;""
                            >exciting</p>
                            <div style=""width:240px; margin: auto;"">
                                <img src=""images/R_D_S_07.png"" style= ""width:200px""alt=""img"">
                            </div>
                        </div>","148","","0","images/R_D_S_07.png","","","","exciting","2","07","R","D","S","",""
"","","","","","html-slider-response","134","301770","0.0-130.0","hzqvy4y8ej","0","NaN","<div style=""width:500px;"">
                            <p style=""font-size:50px; font-weight:bold;""
                            >exciting</p>
                            <div style=""width:240px; margin: auto;"">
                                <img src=""images/B_D_S_28.png"" style= ""width:200px""alt=""img"">
                            </div>
                        </div>","-117","","0","images/B_D_S_28.png","","","","exciting","2","28","B","D","S","",""
"","","","","","html-slider-response","135","303249","0.0-131.0","hzqvy4y8ej","0","NaN","<div style=""width:500px;"">
                            <p style=""font-size:50px; font-weight:bold;""
                            >exciting</p>
                            <div style=""width:240px; margin: auto;"">
                                <img src=""images/Y_D_U_44.png"" style= ""width:200px""alt=""img"">
                            </div>
                        </div>","-142","","0","images/Y_D_U_44.png","","","","exciting","1","44","Y","D","U","",""
"","","","","","html-slider-response","136","304910","0.0-132.0","hzqvy4y8ej","0","NaN","<div style=""width:500px;"">
                            <p style=""font-size:50px; font-weight:bold;""
                            >exciting</p>
                            <div style=""width:240px; margin: auto;"">
                                <img src=""images/B_L_S_26.png"" style= ""width:200px""alt=""img"">
                            </div>
                        </div>","106","","0","images/B_L_S_26.png","","","","exciting","1","26","B","L","S","",""
"","","","","","html-slider-response","137","306394","0.0-133.0","hzqvy4y8ej","0","NaN","<div style=""width:500px;"">
                            <p style=""font-size:50px; font-weight:bold;""
                            >exciting</p>
                            <div style=""width:240px; margin: auto;"">
                                <img src=""images/G_L_U_13.png"" style= ""width:200px""alt=""img"">
                            </div>
                        </div>","67","","0","images/G_L_U_13.png","","","","exciting","2","13","G","L","U","",""
"","","","","","html-slider-response","138","308027","0.0-134.0","hzqvy4y8ej","0","NaN","<div style=""width:500px;"">
                            <p style=""font-size:50px; font-weight:bold;""
                            >exciting</p>
                            <div style=""width:240px; margin: auto;"">
                                <img src=""images/B_D_U_30.png"" style= ""width:200px""alt=""img"">
                            </div>
                        </div>","-162","","0","images/B_D_U_30.png","","","","exciting","2","30","B","D","U","",""
"","","","","","html-slider-response","139","309519","0.0-135.0","hzqvy4y8ej","0","NaN","<div style=""width:500px;"">
                            <p style=""font-size:50px; font-weight:bold;""
                            >exciting</p>
                            <div style=""width:240px; margin: auto;"">
                                <img src=""images/R_D_S_07.png"" style= ""width:200px""alt=""img"">
                            </div>
                        </div>","93","","0","images/R_D_S_07.png","","","","exciting","1","07","R","D","S","",""
"","","","","","html-slider-response","140","311015","0.0-136.0","hzqvy4y8ej","0","NaN","<div style=""width:500px;"">
                            <p style=""font-size:50px; font-weight:bold;""
                            >exciting</p>
                            <div style=""width:240px; margin: auto;"">
                                <img src=""images/R_L_U_05.png"" style= ""width:200px""alt=""img"">
                            </div>
                        </div>","177","","0","images/R_L_U_05.png","","","","exciting","1","05","R","L","U","",""
"","","","","","html-slider-response","141","312516","0.0-137.0","hzqvy4y8ej","0","NaN","<div style=""width:500px;"">
                            <p style=""font-size:50px; font-weight:bold;""
                            >exciting</p>
                            <div style=""width:240px; margin: auto;"">
                                <img src=""images/Y_D_S_41.png"" style= ""width:200px""alt=""img"">
                            </div>
                        </div>","-122","","0","images/Y_D_S_41.png","","","","exciting","1","41","Y","D","S","",""
"","","","","","html-slider-response","142","314319","0.0-138.0","hzqvy4y8ej","0","NaN","<div style=""width:500px;"">
                            <p style=""font-size:50px; font-weight:bold;""
                            >exciting</p>
                            <div style=""width:240px; margin: auto;"">
                                <img src=""images/G_L_S_12.png"" style= ""width:200px""alt=""img"">
                            </div>
                        </div>","104","","0","images/G_L_S_12.png","","","","exciting","2","12","G","L","S","",""
"","","","","","html-slider-response","143","315748","0.0-139.0","hzqvy4y8ej","0","NaN","<div style=""width:500px;"">
                            <p style=""font-size:50px; font-weight:bold;""
                            >exciting</p>
                            <div style=""width:240px; margin: auto;"">
                                <img src=""images/Y_D_S_41.png"" style= ""width:200px""alt=""img"">
                            </div>
                        </div>","-143","","0","images/Y_D_S_41.png","","","","exciting","2","41","Y","D","S","",""
"","","","","","html-slider-response","144","317414","0.0-140.0","hzqvy4y8ej","0","NaN","<div style=""width:500px;"">
                            <p style=""font-size:50px; font-weight:bold;""
                            >exciting</p>
                            <div style=""width:240px; margin: auto;"">
                                <img src=""images/Y_L_S_33.png"" style= ""width:200px""alt=""img"">
                            </div>
                        </div>","-62","","0","images/Y_L_S_33.png","","","","exciting","1","33","Y","L","S","",""
"","","","","","html-slider-response","145","318967","0.0-141.0","hzqvy4y8ej","0","NaN","<div style=""width:500px;"">
                            <p style=""font-size:50px; font-weight:bold;""
                            >exciting</p>
                            <div style=""width:240px; margin: auto;"">
                                <img src=""images/G_D_S_15.png"" style= ""width:200px""alt=""img"">
                            </div>
                        </div>","-193","","0","images/G_D_S_15.png","","","","exciting","2","15","G","D","S","",""
"","","","","","html-slider-response","146","320516","0.0-142.0","hzqvy4y8ej","0","NaN","<div style=""width:500px;"">
                            <p style=""font-size:50px; font-weight:bold;""
                            >exciting</p>
                            <div style=""width:240px; margin: auto;"">
                                <img src=""images/R_D_U_10.png"" style= ""width:200px""alt=""img"">
                            </div>
                        </div>","-135","","0","images/R_D_U_10.png","","","","exciting","1","10","R","D","U","",""
"","","","","","html-slider-response","147","322315","0.0-143.0","hzqvy4y8ej","0","NaN","<div style=""width:500px;"">
                            <p style=""font-size:50px; font-weight:bold;""
                            >exciting</p>
                            <div style=""width:240px; margin: auto;"">
                                <img src=""images/G_L_U_13.png"" style= ""width:200px""alt=""img"">
                            </div>
                        </div>","69","","0","images/G_L_U_13.png","","","","exciting","1","13","G","L","U","",""
"","","","","","html-slider-response","148","324018","0.0-144.0","hzqvy4y8ej","0","NaN","<div style=""width:500px;"">
                            <p style=""font-size:50px; font-weight:bold;""
                            >exciting</p>
                            <div style=""width:240px; margin: auto;"">
                                <img src=""images/Y_L_U_37.png"" style= ""width:200px""alt=""img"">
                            </div>
                        </div>","-130","","0","images/Y_L_U_37.png","","","","exciting","1","37","Y","L","U","",""
"","","","","","html-slider-response","149","325825","0.0-145.0","hzqvy4y8ej","0","NaN","<div style=""width:500px;"">
                            <p style=""font-size:50px; font-weight:bold;""
                            >exciting</p>
                            <div style=""width:240px; margin: auto;"">
                                <img src=""images/R_L_U_05.png"" style= ""width:200px""alt=""img"">
                            </div>
                        </div>","106","","0","images/R_L_U_05.png","","","","exciting","2","05","R","L","U","",""
"","","","","","html-slider-response","150","327205","0.0-146.0","hzqvy4y8ej","0","NaN","<div style=""width:500px;"">
                            <p style=""font-size:50px; font-weight:bold;""
                            >exciting</p>
                            <div style=""width:240px; margin: auto;"">
                                <img src=""images/B_D_S_28.png"" style= ""width:200px""alt=""img"">
                            </div>
                        </div>","84","","0","images/B_D_S_28.png","","","","exciting","1","28","B","D","S","",""
"","","","","","html-slider-response","151","329111","0.0-147.0","hzqvy4y8ej","0","NaN","<div style=""width:500px;"">
                            <p style=""font-size:50px; font-weight:bold;""
                            >exciting</p>
                            <div style=""width:240px; margin: auto;"">
                                <img src=""images/B_D_U_30.png"" style= ""width:200px""alt=""img"">
                            </div>
                        </div>","-163","","0","images/B_D_U_30.png","","","","exciting","1","30","B","D","U","",""
"","","","","","html-button-response","152","330452","0.0-148.0","hzqvy4y8ej","0","840","<p>Great Job! You've finished block 4.<br></br> You have 4 block(s) left to go.<br></br></p>","0","","","","","","","","","","","","","",""
"","","","","","html-button-response","153","331270","0.0-149.0","hzqvy4y8ej","0","817","<p>In this block of trials, you will be asked to rate how much you associate each map with:</p > <p style = 'font-size:150%; font-weight: bold'>positive</p><br></br>","0","","","","","","","","","","","","","",""
"","","","","","html-slider-response","154","332497","0.0-150.0","hzqvy4y8ej","0","NaN","<div style=""width:500px;"">
                            <p style=""font-size:50px; font-weight:bold;""
                            >positive</p>
                            <div style=""width:240px; margin: auto;"">
                                <img src=""images/G_L_U_13.png"" style= ""width:200px""alt=""img"">
                            </div>
                        </div>","90","","0","images/G_L_U_13.png","","","","positive","2","13","G","L","U","",""
"","","","","","html-slider-response","155","334002","0.0-151.0","hzqvy4y8ej","0","NaN","<div style=""width:500px;"">
                            <p style=""font-size:50px; font-weight:bold;""
                            >positive</p>
                            <div style=""width:240px; margin: auto;"">
                                <img src=""images/Y_L_S_33.png"" style= ""width:200px""alt=""img"">
                            </div>
                        </div>","-85","","0","images/Y_L_S_33.png","","","","positive","1","33","Y","L","S","",""
"","","","","","html-slider-response","156","335702","0.0-152.0","hzqvy4y8ej","0","NaN","<div style=""width:500px;"">
                            <p style=""font-size:50px; font-weight:bold;""
                            >positive</p>
                            <div style=""width:240px; margin: auto;"">
                                <img src=""images/G_D_S_15.png"" style= ""width:200px""alt=""img"">
                            </div>
                        </div>","-99","","0","images/G_D_S_15.png","","","","positive","1","15","G","D","S","",""
"","","","","","html-slider-response","157","337084","0.0-153.0","hzqvy4y8ej","0","NaN","<div style=""width:500px;"">
                            <p style=""font-size:50px; font-weight:bold;""
                            >positive</p>
                            <div style=""width:240px; margin: auto;"">
                                <img src=""images/G_D_S_15.png"" style= ""width:200px""alt=""img"">
                            </div>
                        </div>","-113","","0","images/G_D_S_15.png","","","","positive","2","15","G","D","S","",""
"","","","","","html-slider-response","158","338734","0.0-154.0","hzqvy4y8ej","0","NaN","<div style=""width:500px;"">
                            <p style=""font-size:50px; font-weight:bold;""
                            >positive</p>
                            <div style=""width:240px; margin: auto;"">
                                <img src=""images/Y_D_U_44.png"" style= ""width:200px""alt=""img"">
                            </div>
                        </div>","-97","","0","images/Y_D_U_44.png","","","","positive","1","44","Y","D","U","",""
"","","","","","html-slider-response","159","340364","0.0-155.0","hzqvy4y8ej","0","NaN","<div style=""width:500px;"">
                            <p style=""font-size:50px; font-weight:bold;""
                            >positive</p>
                            <div style=""width:240px; margin: auto;"">
                                <img src=""images/B_L_S_26.png"" style= ""width:200px""alt=""img"">
                            </div>
                        </div>","122","","0","images/B_L_S_26.png","","","","positive","2","26","B","L","S","",""
"","","","","","html-slider-response","160","341742","0.0-156.0","hzqvy4y8ej","0","NaN","<div style=""width:500px;"">
                            <p style=""font-size:50px; font-weight:bold;""
                            >positive</p>
                            <div style=""width:240px; margin: auto;"">
                                <img src=""images/B_L_S_26.png"" style= ""width:200px""alt=""img"">
                            </div>
                        </div>","102","","0","images/B_L_S_26.png","","","","positive","1","26","B","L","S","",""
"","","","","","html-slider-response","161","343879","0.0-157.0","hzqvy4y8ej","0","NaN","<div style=""width:500px;"">
                            <p style=""font-size:50px; font-weight:bold;""
                            >positive</p>
                            <div style=""width:240px; margin: auto;"">
                                <img src=""images/R_L_S_02.png"" style= ""width:200px""alt=""img"">
                            </div>
                        </div>","86","","0","images/R_L_S_02.png","","","","positive","2","02","R","L","S","",""
"","","","","","html-slider-response","162","345404","0.0-158.0","hzqvy4y8ej","0","NaN","<div style=""width:500px;"">
                            <p style=""font-size:50px; font-weight:bold;""
                            >positive</p>
                            <div style=""width:240px; margin: auto;"">
                                <img src=""images/B_L_U_27.png"" style= ""width:200px""alt=""img"">
                            </div>
                        </div>","136","","0","images/B_L_U_27.png","","","","positive","1","27","B","L","U","",""
"","","","","","html-slider-response","163","347101","0.0-159.0","hzqvy4y8ej","0","NaN","<div style=""width:500px;"">
                            <p style=""font-size:50px; font-weight:bold;""
                            >positive</p>
                            <div style=""width:240px; margin: auto;"">
                                <img src=""images/R_L_U_05.png"" style= ""width:200px""alt=""img"">
                            </div>
                        </div>","145","","0","images/R_L_U_05.png","","","","positive","2","05","R","L","U","",""
"","","","","","html-slider-response","164","348708","0.0-160.0","hzqvy4y8ej","0","NaN","<div style=""width:500px;"">
                            <p style=""font-size:50px; font-weight:bold;""
                            >positive</p>
                            <div style=""width:240px; margin: auto;"">
                                <img src=""images/R_L_U_05.png"" style= ""width:200px""alt=""img"">
                            </div>
                        </div>","181","","0","images/R_L_U_05.png","","","","positive","1","05","R","L","U","",""
"","","","","","html-slider-response","165","350166","0.0-161.0","hzqvy4y8ej","0","NaN","<div style=""width:500px;"">
                            <p style=""font-size:50px; font-weight:bold;""
                            >positive</p>
                            <div style=""width:240px; margin: auto;"">
                                <img src=""images/G_L_S_12.png"" style= ""width:200px""alt=""img"">
                            </div>
                        </div>","134","","0","images/G_L_S_12.png","","","","positive","2","12","G","L","S","",""
"","","","","","html-slider-response","166","351724","0.0-162.0","hzqvy4y8ej","0","NaN","<div style=""width:500px;"">
                            <p style=""font-size:50px; font-weight:bold;""
                            >positive</p>
                            <div style=""width:240px; margin: auto;"">
                                <img src=""images/G_L_S_12.png"" style= ""width:200px""alt=""img"">
                            </div>
                        </div>","58","","0","images/G_L_S_12.png","","","","positive","1","12","G","L","S","",""
"","","","","","html-slider-response","167","353168","0.0-163.0","hzqvy4y8ej","0","NaN","<div style=""width:500px;"">
                            <p style=""font-size:50px; font-weight:bold;""
                            >positive</p>
                            <div style=""width:240px; margin: auto;"">
                                <img src=""images/Y_L_U_37.png"" style= ""width:200px""alt=""img"">
                            </div>
                        </div>","-145","","0","images/Y_L_U_37.png","","","","positive","1","37","Y","L","U","",""
"","","","","","html-slider-response","168","354713","0.0-164.0","hzqvy4y8ej","0","NaN","<div style=""width:500px;"">
                            <p style=""font-size:50px; font-weight:bold;""
                            >positive</p>
                            <div style=""width:240px; margin: auto;"">
                                <img src=""images/B_D_U_30.png"" style= ""width:200px""alt=""img"">
                            </div>
                        </div>","-149","","0","images/B_D_U_30.png","","","","positive","2","30","B","D","U","",""
"","","","","","html-slider-response","169","358505","0.0-165.0","hzqvy4y8ej","0","NaN","<div style=""width:500px;"">
                            <p style=""font-size:50px; font-weight:bold;""
                            >positive</p>
                            <div style=""width:240px; margin: auto;"">
                                <img src=""images/R_D_S_07.png"" style= ""width:200px""alt=""img"">
                            </div>
                        </div>","22","","0","images/R_D_S_07.png","","","","positive","2","07","R","D","S","",""
"","","","","","html-slider-response","170","359960","0.0-166.0","hzqvy4y8ej","0","NaN","<div style=""width:500px;"">
                            <p style=""font-size:50px; font-weight:bold;""
                            >positive</p>
                            <div style=""width:240px; margin: auto;"">
                                <img src=""images/G_L_U_13.png"" style= ""width:200px""alt=""img"">
                            </div>
                        </div>","105","","0","images/G_L_U_13.png","","","","positive","1","13","G","L","U","",""
"","","","","","html-slider-response","171","361311","0.0-167.0","hzqvy4y8ej","0","NaN","<div style=""width:500px;"">
                            <p style=""font-size:50px; font-weight:bold;""
                            >positive</p>
                            <div style=""width:240px; margin: auto;"">
                                <img src=""images/R_D_U_10.png"" style= ""width:200px""alt=""img"">
                            </div>
                        </div>","-174","","0","images/R_D_U_10.png","","","","positive","1","10","R","D","U","",""
"","","","","","html-slider-response","172","362746","0.0-168.0","hzqvy4y8ej","0","NaN","<div style=""width:500px;"">
                            <p style=""font-size:50px; font-weight:bold;""
                            >positive</p>
                            <div style=""width:240px; margin: auto;"">
                                <img src=""images/R_D_U_10.png"" style= ""width:200px""alt=""img"">
                            </div>
                        </div>","-94","","0","images/R_D_U_10.png","","","","positive","2","10","R","D","U","",""
"","","","","","html-slider-response","173","364055","0.0-169.0","hzqvy4y8ej","0","NaN","<div style=""width:500px;"">
                            <p style=""font-size:50px; font-weight:bold;""
                            >positive</p>
                            <div style=""width:240px; margin: auto;"">
                                <img src=""images/B_L_U_27.png"" style= ""width:200px""alt=""img"">
                            </div>
                        </div>","77","","0","images/B_L_U_27.png","","","","positive","2","27","B","L","U","",""
"","","","","","html-slider-response","174","365332","0.0-170.0","hzqvy4y8ej","0","NaN","<div style=""width:500px;"">
                            <p style=""font-size:50px; font-weight:bold;""
                            >positive</p>
                            <div style=""width:240px; margin: auto;"">
                                <img src=""images/R_L_S_02.png"" style= ""width:200px""alt=""img"">
                            </div>
                        </div>","90","","0","images/R_L_S_02.png","","","","positive","1","02","R","L","S","",""
"","","","","","html-slider-response","175","367048","0.0-171.0","hzqvy4y8ej","0","NaN","<div style=""width:500px;"">
                            <p style=""font-size:50px; font-weight:bold;""
                            >positive</p>
                            <div style=""width:240px; margin: auto;"">
                                <img src=""images/B_D_S_28.png"" style= ""width:200px""alt=""img"">
                            </div>
                        </div>","128","","0","images/B_D_S_28.png","","","","positive","2","28","B","D","S","",""
"","","","","","html-slider-response","176","368489","0.0-172.0","hzqvy4y8ej","0","NaN","<div style=""width:500px;"">
                            <p style=""font-size:50px; font-weight:bold;""
                            >positive</p>
                            <div style=""width:240px; margin: auto;"">
                                <img src=""images/G_D_U_23.png"" style= ""width:200px""alt=""img"">
                            </div>
                        </div>","-200","","0","images/G_D_U_23.png","","","","positive","1","23","G","D","U","",""
"","","","","","html-slider-response","177","369952","0.0-173.0","hzqvy4y8ej","0","NaN","<div style=""width:500px;"">
                            <p style=""font-size:50px; font-weight:bold;""
                            >positive</p>
                            <div style=""width:240px; margin: auto;"">
                                <img src=""images/Y_D_S_41.png"" style= ""width:200px""alt=""img"">
                            </div>
                        </div>","-188","","0","images/Y_D_S_41.png","","","","positive","1","41","Y","D","S","",""
"","","","","","html-slider-response","178","371618","0.0-174.0","hzqvy4y8ej","0","NaN","<div style=""width:500px;"">
                            <p style=""font-size:50px; font-weight:bold;""
                            >positive</p>
                            <div style=""width:240px; margin: auto;"">
                                <img src=""images/B_D_S_28.png"" style= ""width:200px""alt=""img"">
                            </div>
                        </div>","108","","0","images/B_D_S_28.png","","","","positive","1","28","B","D","S","",""
"","","","","","html-slider-response","179","373124","0.0-175.0","hzqvy4y8ej","0","NaN","<div style=""width:500px;"">
                            <p style=""font-size:50px; font-weight:bold;""
                            >positive</p>
                            <div style=""width:240px; margin: auto;"">
                                <img src=""images/Y_L_S_33.png"" style= ""width:200px""alt=""img"">
                            </div>
                        </div>","56","","0","images/Y_L_S_33.png","","","","positive","2","33","Y","L","S","",""
"","","","","","html-slider-response","180","374500","0.0-176.0","hzqvy4y8ej","0","NaN","<div style=""width:500px;"">
                            <p style=""font-size:50px; font-weight:bold;""
                            >positive</p>
                            <div style=""width:240px; margin: auto;"">
                                <img src=""images/R_D_S_07.png"" style= ""width:200px""alt=""img"">
                            </div>
                        </div>","58","","0","images/R_D_S_07.png","","","","positive","1","07","R","D","S","",""
"","","","","","html-slider-response","181","376110","0.0-177.0","hzqvy4y8ej","0","NaN","<div style=""width:500px;"">
                            <p style=""font-size:50px; font-weight:bold;""
                            >positive</p>
                            <div style=""width:240px; margin: auto;"">
                                <img src=""images/Y_L_U_37.png"" style= ""width:200px""alt=""img"">
                            </div>
                        </div>","80","","0","images/Y_L_U_37.png","","","","positive","2","37","Y","L","U","",""
"","","","","","html-slider-response","182","377674","0.0-178.0","hzqvy4y8ej","0","NaN","<div style=""width:500px;"">
                            <p style=""font-size:50px; font-weight:bold;""
                            >positive</p>
                            <div style=""width:240px; margin: auto;"">
                                <img src=""images/G_D_U_23.png"" style= ""width:200px""alt=""img"">
                            </div>
                        </div>","-200","","0","images/G_D_U_23.png","","","","positive","2","23","G","D","U","",""
"","","","","","html-slider-response","183","379396","0.0-179.0","hzqvy4y8ej","0","NaN","<div style=""width:500px;"">
                            <p style=""font-size:50px; font-weight:bold;""
                            >positive</p>
                            <div style=""width:240px; margin: auto;"">
                                <img src=""images/B_D_U_30.png"" style= ""width:200px""alt=""img"">
                            </div>
                        </div>","-200","","0","images/B_D_U_30.png","","","","positive","1","30","B","D","U","",""
"","","","","","html-slider-response","184","380909","0.0-180.0","hzqvy4y8ej","0","NaN","<div style=""width:500px;"">
                            <p style=""font-size:50px; font-weight:bold;""
                            >positive</p>
                            <div style=""width:240px; margin: auto;"">
