"success","timeout","failed_images","failed_audio","failed_video","trial_type","trial_index","time_elapsed","internal_node_id","subject_id","condition_num","rt","stimulus","response","question_order","slider_start","image_path","practiceTrial","practiceTrialNum","correct","concept","repetition","map_id","hue","lightness","saturation","ishihara_plate","correct_response"
"true","false","[]","[]","[]","preload","0","867","0.0-0.0","kcfjdljut0","11","","","","","","","","","","","","","","","","",""
"","","","","","html-button-response","1","10014","0.0-1.0","kcfjdljut0","11","9146","Welcome to our experiment!<p>At the bottom of this screen, you will see a button that says ""Begin Experiment"".<br>Please only click that button when you are ready to complete the 25 minute experiment in one sitting.</p><p> Once you click that button, it will not be possible to restart the experiment.","0","","","","","","","","","","","","","",""
"true","","","","","fullscreen","2","13772","0.0-2.0","kcfjdljut0","11","2739","","","","","","","","","","","","","","","",""
"","","","","","survey-multi-select","3","32898","0.0-3.0","kcfjdljut0","11","19124","","{""Consent"":[""<strong>I consent</strong>""]}","[0]","","","","","","","","","","","","",""
"","","","","","html-button-response","4","36504","0.0-4.0","kcfjdljut0","11","3605","Welcome! <p> This experiment involves two parts: demographic information, followed by the experimental task.<p> It will take about 25 minutes to complete both parts.","0","","","","","","","","","","","","","",""
"","","","","","survey-text","5","49642","0.0-5.0","kcfjdljut0","11","13103","","{""Age"":""18"",""Gender"":""Male"",""Race/ethnicity"":""White"",""Languages"":""English""}","","","","","","","","","","","","","",""
"","","","","","html-slider-response","6","185322","0.0-6.0","kcfjdljut0","11","135678","
                            <div style='text-align:left; font-size:20px; line-height:25px; width: 1400px;'>
                                During this experiment you will be asked to rate how much you associate maps with                    different concepts.<br> Below, you can see some examples of the maps you will be asked to rate. Next to the maps
                    is the list of concepts.<br>You will be asked                    to rate how much you associate each map with each concept on a scale from 'not at all' to 'very much' like the
                    one below. <br><br>
                    Now, please look at the list of concepts and maps. For each concept, think about the map you associate 'very
                    much' with the concept.<br>                     When you see that map during the experiment, please rate it near the 'very much' endpoint of the
                    scale.<br>Now, please think about which map you associate 'not at all'                     with each concept. When you see that map during the experiment, please rate it near the 'not at all' endpoint
                    of the scale.<br>
                    Please use the full range of the scale. That is, if a map is somewhat associated with the concept, you would
                    click partway between the middle point and right side of the scale.                    You will be asked to rate each map for a given concept before moving on to the next concept.<br><br>Press the
                    'Continue' button for instructions on how to use the slider.                    <br><br>
                </div>

                <div style=""width: 500px; margin: 0 auto;"">
                    <!-- Centered text paragraphs -->
                    <div style=""text-align: center; width: 500px;"">
                        <p style=""font-size:25px; line-height:18px;"">calm</p>
                        <p style=""font-size:25px; line-height:18px;"">exciting</p>
                        <p style=""font-size:25px;line-height:18px;"">positive</p>
                        <p style=""font-size:25px;line-height:18px;"">negative</p>
                        <p style=""font-size:25px;line-height:18px;"">serious</p>
                        <p style=""font-size:25px;line-height:18px;"">playful</p>
                        <p style=""font-size:25px;line-height:18px;"">trustworthy</p>
                        <p style=""font-size:25px;line-height:18px;"">disturbing</p>
                    </div>

                    <!-- Grid section -->
                   <div style=""display: flex; justify-content: center; padding-top: 15px;"">
                    <div style=""display: grid; grid-template-columns: repeat(8, 80px); grid-gap: 5px; width: auto;"">
                        <img src=""images/R_D_U_41.png"" alt=""map"" style=""width: 100%;""><img src=""images/Y_L_S_23.png"" alt=""map"" style=""width: 100%;""><img src=""images/G_L_S_44.png"" alt=""map"" style=""width: 100%;""><img src=""images/R_L_S_30.png"" alt=""map"" style=""width: 100%;""><img src=""images/Y_D_U_28.png"" alt=""map"" style=""width: 100%;""><img src=""images/B_L_U_12.png"" alt=""map"" style=""width: 100%;""><img src=""images/G_D_S_05.png"" alt=""map"" style=""width: 100%;""><img src=""images/B_D_U_15.png"" alt=""map"" style=""width: 100%;""><img src=""images/G_L_U_02.png"" alt=""map"" style=""width: 100%;""><img src=""images/B_L_S_10.png"" alt=""map"" style=""width: 100%;""><img src=""images/B_D_S_13.png"" alt=""map"" style=""width: 100%;""><img src=""images/G_D_U_07.png"" alt=""map"" style=""width: 100%;""><img src=""images/Y_D_S_27.png"" alt=""map"" style=""width: 100%;""><img src=""images/R_D_S_37.png"" alt=""map"" style=""width: 100%;""><img src=""images/Y_L_U_26.png"" alt=""map"" style=""width: 100%;""><img src=""images/R_L_U_33.png"" alt=""map"" style=""width: 100%;"">
                    </div>
                </div>

                    <!-- Clear floats -->
                    <div style=""clear: both;""></div>
                </div>
                            ","200","","0","maps_anchoring.png","true","","","","","","","","","",""
"","","","","","html-button-response","7","193281","0.0-7.0","kcfjdljut0","11","7957","<div style=""width:800px;""><p style=""text-align:left"">To move the slider, click and drag your cursor to the location of the scale where you would like to make your rating and then let go. When you let go of the slider, your response will be recorded and the next trial will begin. <br>
                    We are interested in your initial impressions of each map for the given concept, so please go with your first intuition. <br>
                    Before you begin the experiment, there will be four training trials for you to practice using the scale. <br>
                     When you are ready to start the training trials, please click ""Continue"".</p><br></div>","0","","","","","","","","","","","","","",""
"","","","","","html-slider-response","8","196513","0.0-8.0-0.0","kcfjdljut0","11","NaN","<div style=""width:500px;"">
                                    <p style=""font-size:25px;"">Please move the slider all the way to the <br> right endpoint of the scale</p>

                                    </div>
                                </div>","186","","0","","true","0","true","","","","","","","",""
"","","","","","html-button-response","9","198425","0.0-8.0-1.0","kcfjdljut0","11","1410","<p align='center'><b>Good job!</b> Click on 'Continue' to proceed.</p>","0","","","","","","","","","","","","","",""
"","","","","","html-slider-response","10","200822","0.0-9.0-0.0","kcfjdljut0","11","NaN","<div style=""width:500px;"">
                                    <p style=""font-size:25px;"">Please move the slider all the way to the <br> left endpoint of the scale</p>

                                    </div>
                                </div>","-197","","0","","true","1","true","","","","","","","",""
"","","","","","html-button-response","11","202251","0.0-9.0-1.0","kcfjdljut0","11","923","<p align='center'><b>Good job!</b> Click on 'Continue' to proceed.</p>","0","","","","","","","","","","","","","",""
"","","","","","html-slider-response","12","204836","0.0-10.0-0.0","kcfjdljut0","11","NaN","<div style=""width:500px;"">
                                    <p style=""font-size:25px;"">Please move the slider halfway between the center and right endpoint of the scale</p>

                                    </div>
                                </div>","0","","0","","true","2","false","","","","","","","",""
"","","","","","html-button-response","13","207992","0.0-10.0-1.0","kcfjdljut0","11","2652","<p align='center'><b>Not quite!</b> The slider was not placed near the instructed located. Click on 'Continue' to try again. </p>","0","","","","","","","","","","","","","",""
"","","","","","html-slider-response","14","211565","0.0-10.1-0.1","kcfjdljut0","11","NaN","<div style=""width:500px;"">
                                    <p style=""font-size:25px;"">Please move the slider halfway between the center and right endpoint of the scale</p>

                                    </div>
                                </div>","114","","0","","true","2","false","","","","","","","",""
"","","","","","html-button-response","15","214136","0.0-10.1-1.1","kcfjdljut0","11","2063","<p align='center'><b>Not quite!</b> The slider was not placed near the instructed located. Click on 'Continue' to try again. </p>","0","","","","","","","","","","","","","",""
"","","","","","html-slider-response","16","220061","0.0-10.2-0.2","kcfjdljut0","11","NaN","<div style=""width:500px;"">
                                    <p style=""font-size:25px;"">Please move the slider halfway between the center and right endpoint of the scale</p>

                                    </div>
                                </div>","98","","0","","true","2","true","","","","","","","",""
"","","","","","html-button-response","17","221518","0.0-10.2-1.2","kcfjdljut0","11","947","<p align='center'><b>Good job!</b> Click on 'Continue' to proceed.</p>","0","","","","","","","","","","","","","",""
"","","","","","html-slider-response","18","225344","0.0-11.0-0.0","kcfjdljut0","11","NaN","<div style=""width:500px;"">
                                    <p style=""font-size:25px;"">Please move the slider halfway between the center and left endpoint of the scale</p>

                                    </div>
                                </div>","-94","","0","","true","3","true","","","","","","","",""
"","","","","","html-button-response","19","226859","0.0-11.0-1.0","kcfjdljut0","11","1005","<p align='center'><b>Good job!</b> Click on 'Continue' to proceed.</p>","0","","","","","","","","","","","","","",""
"","","","","","html-button-response","20","238526","0.0-12.0","kcfjdljut0","11","11666","<p>Great job! You've completed the practice trials. Now you will begin the main task.</p>","0","","","","","","","","","","","","","",""
"","","","","","html-button-response","21","254041","0.0-13.0","kcfjdljut0","11","15514","<p>In this block of trials, you will be asked to rate how much you associate each map with:</p > <p style = 'font-size:150%; font-weight: bold'>disturbing</p><br></br>","0","","","","","","","","","","","","","",""
"","","","","","html-slider-response","22","258239","0.0-14.0","kcfjdljut0","11","NaN","<div style=""width:500px;"">
                            <p style=""font-size:50px; font-weight:bold;""
                            >disturbing</p>
                            <div style=""width:240px; margin: auto;"">
                                <img src=""images/R_D_U_41.png"" style= ""width:200px""alt=""img"">
                            </div>
                        </div>","142","","0","images/R_D_U_41.png","","","","disturbing","1","41","R","D","U","",""
"","","","","","html-slider-response","23","262018","0.0-15.0","kcfjdljut0","11","NaN","<div style=""width:500px;"">
                            <p style=""font-size:50px; font-weight:bold;""
                            >disturbing</p>
                            <div style=""width:240px; margin: auto;"">
                                <img src=""images/Y_D_U_28.png"" style= ""width:200px""alt=""img"">
                            </div>
                        </div>","80","","0","images/Y_D_U_28.png","","","","disturbing","2","28","Y","D","U","",""
"","","","","","html-slider-response","24","265577","0.0-16.0","kcfjdljut0","11","NaN","<div style=""width:500px;"">
                            <p style=""font-size:50px; font-weight:bold;""
                            >disturbing</p>
                            <div style=""width:240px; margin: auto;"">
                                <img src=""images/G_D_U_07.png"" style= ""width:200px""alt=""img"">
                            </div>
                        </div>","-74","","0","images/G_D_U_07.png","","","","disturbing","2","07","G","D","U","",""
"","","","","","html-slider-response","25","268457","0.0-17.0","kcfjdljut0","11","NaN","<div style=""width:500px;"">
                            <p style=""font-size:50px; font-weight:bold;""
                            >disturbing</p>
                            <div style=""width:240px; margin: auto;"">
                                <img src=""images/R_D_U_41.png"" style= ""width:200px""alt=""img"">
                            </div>
                        </div>","176","","0","images/R_D_U_41.png","","","","disturbing","2","41","R","D","U","",""
"","","","","","html-slider-response","26","271772","0.0-18.0","kcfjdljut0","11","NaN","<div style=""width:500px;"">
                            <p style=""font-size:50px; font-weight:bold;""
                            >disturbing</p>
                            <div style=""width:240px; margin: auto;"">
                                <img src=""images/B_L_S_10.png"" style= ""width:200px""alt=""img"">
                            </div>
                        </div>","-186","","0","images/B_L_S_10.png","","","","disturbing","1","10","B","L","S","",""
"","","","","","html-slider-response","27","275514","0.0-19.0","kcfjdljut0","11","NaN","<div style=""width:500px;"">
                            <p style=""font-size:50px; font-weight:bold;""
                            >disturbing</p>
                            <div style=""width:240px; margin: auto;"">
                                <img src=""images/B_D_U_15.png"" style= ""width:200px""alt=""img"">
                            </div>
                        </div>","48","","0","images/B_D_U_15.png","","","","disturbing","2","15","B","D","U","",""
"","","","","","html-slider-response","28","280070","0.0-20.0","kcfjdljut0","11","NaN","<div style=""width:500px;"">
                            <p style=""font-size:50px; font-weight:bold;""
                            >disturbing</p>
                            <div style=""width:240px; margin: auto;"">
                                <img src=""images/Y_L_S_23.png"" style= ""width:200px""alt=""img"">
                            </div>
                        </div>","-54","","0","images/Y_L_S_23.png","","","","disturbing","1","23","Y","L","S","",""
"","","","","","html-slider-response","29","286226","0.0-21.0","kcfjdljut0","11","NaN","<div style=""width:500px;"">
                            <p style=""font-size:50px; font-weight:bold;""
                            >disturbing</p>
                            <div style=""width:240px; margin: auto;"">
                                <img src=""images/R_L_S_30.png"" style= ""width:200px""alt=""img"">
                            </div>
                        </div>","-139","","0","images/R_L_S_30.png","","","","disturbing","2","30","R","L","S","",""
"","","","","","html-slider-response","30","289172","0.0-22.0","kcfjdljut0","11","NaN","<div style=""width:500px;"">
                            <p style=""font-size:50px; font-weight:bold;""
                            >disturbing</p>
                            <div style=""width:240px; margin: auto;"">
                                <img src=""images/B_L_U_12.png"" style= ""width:200px""alt=""img"">
                            </div>
                        </div>","-194","","0","images/B_L_U_12.png","","","","disturbing","1","12","B","L","U","",""
"","","","","","html-slider-response","31","293149","0.0-23.0","kcfjdljut0","11","NaN","<div style=""width:500px;"">
                            <p style=""font-size:50px; font-weight:bold;""
                            >disturbing</p>
                            <div style=""width:240px; margin: auto;"">
                                <img src=""images/R_D_S_37.png"" style= ""width:200px""alt=""img"">
                            </div>
                        </div>","-66","","0","images/R_D_S_37.png","","","","disturbing","2","37","R","D","S","",""
"","","","","","html-slider-response","32","296601","0.0-24.0","kcfjdljut0","11","NaN","<div style=""width:500px;"">
                            <p style=""font-size:50px; font-weight:bold;""
                            >disturbing</p>
                            <div style=""width:240px; margin: auto;"">
                                <img src=""images/Y_L_U_26.png"" style= ""width:200px""alt=""img"">
                            </div>
                        </div>","0","","0","images/Y_L_U_26.png","","","","disturbing","1","26","Y","L","U","",""
"","","","","","html-slider-response","33","301288","0.0-25.0","kcfjdljut0","11","NaN","<div style=""width:500px;"">
                            <p style=""font-size:50px; font-weight:bold;""
                            >disturbing</p>
                            <div style=""width:240px; margin: auto;"">
                                <img src=""images/G_D_U_07.png"" style= ""width:200px""alt=""img"">
                            </div>
                        </div>","-55","","0","images/G_D_U_07.png","","","","disturbing","1","07","G","D","U","",""
"","","","","","html-slider-response","34","305037","0.0-26.0","kcfjdljut0","11","NaN","<div style=""width:500px;"">
                            <p style=""font-size:50px; font-weight:bold;""
                            >disturbing</p>
                            <div style=""width:240px; margin: auto;"">
                                <img src=""images/R_L_U_33.png"" style= ""width:200px""alt=""img"">
                            </div>
                        </div>","-94","","0","images/R_L_U_33.png","","","","disturbing","1","33","R","L","U","",""
"","","","","","html-slider-response","35","307586","0.0-27.0","kcfjdljut0","11","NaN","<div style=""width:500px;"">
                            <p style=""font-size:50px; font-weight:bold;""
                            >disturbing</p>
                            <div style=""width:240px; margin: auto;"">
                                <img src=""images/Y_L_U_26.png"" style= ""width:200px""alt=""img"">
                            </div>
                        </div>","4","","0","images/Y_L_U_26.png","","","","disturbing","2","26","Y","L","U","",""
"","","","","","html-slider-response","36","309760","0.0-28.0","kcfjdljut0","11","NaN","<div style=""width:500px;"">
                            <p style=""font-size:50px; font-weight:bold;""
                            >disturbing</p>
                            <div style=""width:240px; margin: auto;"">
                                <img src=""images/G_L_U_02.png"" style= ""width:200px""alt=""img"">
                            </div>
                        </div>","-190","","0","images/G_L_U_02.png","","","","disturbing","2","02","G","L","U","",""
"","","","","","html-slider-response","37","312109","0.0-29.0","kcfjdljut0","11","NaN","<div style=""width:500px;"">
                            <p style=""font-size:50px; font-weight:bold;""
                            >disturbing</p>
                            <div style=""width:240px; margin: auto;"">
                                <img src=""images/Y_D_U_28.png"" style= ""width:200px""alt=""img"">
                            </div>
                        </div>","41","","0","images/Y_D_U_28.png","","","","disturbing","1","28","Y","D","U","",""
"","","","","","html-slider-response","38","315182","0.0-30.0","kcfjdljut0","11","NaN","<div style=""width:500px;"">
                            <p style=""font-size:50px; font-weight:bold;""
                            >disturbing</p>
                            <div style=""width:240px; margin: auto;"">
                                <img src=""images/G_D_S_05.png"" style= ""width:200px""alt=""img"">
                            </div>
                        </div>","-49","","0","images/G_D_S_05.png","","","","disturbing","1","05","G","D","S","",""
"","","","","","html-slider-response","39","318700","0.0-31.0","kcfjdljut0","11","NaN","<div style=""width:500px;"">
                            <p style=""font-size:50px; font-weight:bold;""
                            >disturbing</p>
                            <div style=""width:240px; margin: auto;"">
                                <img src=""images/B_D_U_15.png"" style= ""width:200px""alt=""img"">
                            </div>
                        </div>","-149","","0","images/B_D_U_15.png","","","","disturbing","1","15","B","D","U","",""
"","","","","","html-slider-response","40","320875","0.0-32.0","kcfjdljut0","11","NaN","<div style=""width:500px;"">
                            <p style=""font-size:50px; font-weight:bold;""
                            >disturbing</p>
                            <div style=""width:240px; margin: auto;"">
                                <img src=""images/Y_D_S_27.png"" style= ""width:200px""alt=""img"">
                            </div>
                        </div>","52","","0","images/Y_D_S_27.png","","","","disturbing","2","27","Y","D","S","",""
"","","","","","html-slider-response","41","322986","0.0-33.0","kcfjdljut0","11","NaN","<div style=""width:500px;"">
                            <p style=""font-size:50px; font-weight:bold;""
                            >disturbing</p>
                            <div style=""width:240px; margin: auto;"">
                                <img src=""images/B_L_S_10.png"" style= ""width:200px""alt=""img"">
                            </div>
                        </div>","-196","","0","images/B_L_S_10.png","","","","disturbing","2","10","B","L","S","",""
"","","","","","html-slider-response","42","335742","0.0-34.0","kcfjdljut0","11","NaN","<div style=""width:500px;"">
                            <p style=""font-size:50px; font-weight:bold;""
                            >disturbing</p>
                            <div style=""width:240px; margin: auto;"">
                                <img src=""images/G_D_S_05.png"" style= ""width:200px""alt=""img"">
                            </div>
                        </div>","-28","","0","images/G_D_S_05.png","","","","disturbing","2","05","G","D","S","",""
"","","","","","html-slider-response","43","338233","0.0-35.0","kcfjdljut0","11","NaN","<div style=""width:500px;"">
                            <p style=""font-size:50px; font-weight:bold;""
                            >disturbing</p>
                            <div style=""width:240px; margin: auto;"">
                                <img src=""images/B_D_S_13.png"" style= ""width:200px""alt=""img"">
                            </div>
                        </div>","-142","","0","images/B_D_S_13.png","","","","disturbing","2","13","B","D","S","",""
"","","","","","html-slider-response","44","340174","0.0-36.0","kcfjdljut0","11","NaN","<div style=""width:500px;"">
                            <p style=""font-size:50px; font-weight:bold;""
                            >disturbing</p>
                            <div style=""width:240px; margin: auto;"">
                                <img src=""images/G_L_S_44.png"" style= ""width:200px""alt=""img"">
                            </div>
                        </div>","-160","","0","images/G_L_S_44.png","","","","disturbing","2","44","G","L","S","",""
"","","","","","html-slider-response","45","341840","0.0-37.0","kcfjdljut0","11","NaN","<div style=""width:500px;"">
                            <p style=""font-size:50px; font-weight:bold;""
                            >disturbing</p>
                            <div style=""width:240px; margin: auto;"">
                                <img src=""images/G_L_S_44.png"" style= ""width:200px""alt=""img"">
                            </div>
                        </div>","-164","","0","images/G_L_S_44.png","","","","disturbing","1","44","G","L","S","",""
"","","","","","html-slider-response","46","344590","0.0-38.0","kcfjdljut0","11","NaN","<div style=""width:500px;"">
                            <p style=""font-size:50px; font-weight:bold;""
                            >disturbing</p>
                            <div style=""width:240px; margin: auto;"">
                                <img src=""images/G_L_U_02.png"" style= ""width:200px""alt=""img"">
                            </div>
                        </div>","-195","","0","images/G_L_U_02.png","","","","disturbing","1","02","G","L","U","",""
"","","","","","html-slider-response","47","346149","0.0-39.0","kcfjdljut0","11","NaN","<div style=""width:500px;"">
                            <p style=""font-size:50px; font-weight:bold;""
                            >disturbing</p>
                            <div style=""width:240px; margin: auto;"">
                                <img src=""images/B_D_S_13.png"" style= ""width:200px""alt=""img"">
                            </div>
                        </div>","-195","","0","images/B_D_S_13.png","","","","disturbing","1","13","B","D","S","",""
"","","","","","html-slider-response","48","348211","0.0-40.0","kcfjdljut0","11","NaN","<div style=""width:500px;"">
                            <p style=""font-size:50px; font-weight:bold;""
                            >disturbing</p>
                            <div style=""width:240px; margin: auto;"">
                                <img src=""images/B_L_U_12.png"" style= ""width:200px""alt=""img"">
                            </div>
                        </div>","-195","","0","images/B_L_U_12.png","","","","disturbing","2","12","B","L","U","",""
"","","","","","html-slider-response","49","352073","0.0-41.0","kcfjdljut0","11","NaN","<div style=""width:500px;"">
                            <p style=""font-size:50px; font-weight:bold;""
                            >disturbing</p>
                            <div style=""width:240px; margin: auto;"">
                                <img src=""images/R_L_S_30.png"" style= ""width:200px""alt=""img"">
                            </div>
                        </div>","-144","","0","images/R_L_S_30.png","","","","disturbing","1","30","R","L","S","",""
"","","","","","html-slider-response","50","354738","0.0-42.0","kcfjdljut0","11","NaN","<div style=""width:500px;"">
                            <p style=""font-size:50px; font-weight:bold;""
                            >disturbing</p>
                            <div style=""width:240px; margin: auto;"">
                                <img src=""images/R_D_S_37.png"" style= ""width:200px""alt=""img"">
                            </div>
                        </div>","38","","0","images/R_D_S_37.png","","","","disturbing","1","37","R","D","S","",""
"","","","","","html-slider-response","51","358507","0.0-43.0","kcfjdljut0","11","NaN","<div style=""width:500px;"">
                            <p style=""font-size:50px; font-weight:bold;""
                            >disturbing</p>
                            <div style=""width:240px; margin: auto;"">
                                <img src=""images/R_L_U_33.png"" style= ""width:200px""alt=""img"">
                            </div>
                        </div>","-138","","0","images/R_L_U_33.png","","","","disturbing","2","33","R","L","U","",""
"","","","","","html-slider-response","52","362339","0.0-44.0","kcfjdljut0","11","NaN","<div style=""width:500px;"">
                            <p style=""font-size:50px; font-weight:bold;""
                            >disturbing</p>
                            <div style=""width:240px; margin: auto;"">
                                <img src=""images/Y_D_S_27.png"" style= ""width:200px""alt=""img"">
                            </div>
                        </div>","53","","0","images/Y_D_S_27.png","","","","disturbing","1","27","Y","D","S","",""
"","","","","","html-slider-response","53","365752","0.0-45.0","kcfjdljut0","11","NaN","<div style=""width:500px;"">
                            <p style=""font-size:50px; font-weight:bold;""
                            >disturbing</p>
                            <div style=""width:240px; margin: auto;"">
                                <img src=""images/Y_L_S_23.png"" style= ""width:200px""alt=""img"">
                            </div>
                        </div>","2","","0","images/Y_L_S_23.png","","","","disturbing","2","23","Y","L","S","",""
"","","","","","html-button-response","54","370209","0.0-46.0","kcfjdljut0","11","3947","<p>Great Job! You've finished block 1.<br></br> You have 7 block(s) left to go.<br></br></p>","0","","","","","","","","","","","","","",""
"","","","","","html-button-response","55","371764","0.0-47.0","kcfjdljut0","11","1554","<p>In this block of trials, you will be asked to rate how much you associate each map with:</p > <p style = 'font-size:150%; font-weight: bold'>serious</p><br></br>","0","","","","","","","","","","","","","",""
"","","","","","html-slider-response","56","374433","0.0-48.0","kcfjdljut0","11","NaN","<div style=""width:500px;"">
                            <p style=""font-size:50px; font-weight:bold;""
                            >serious</p>
                            <div style=""width:240px; margin: auto;"">
                                <img src=""images/G_L_U_02.png"" style= ""width:200px""alt=""img"">
                            </div>
                        </div>","-66","","0","images/G_L_U_02.png","","","","serious","2","02","G","L","U","",""
"","","","","","html-slider-response","57","376730","0.0-49.0","kcfjdljut0","11","NaN","<div style=""width:500px;"">
                            <p style=""font-size:50px; font-weight:bold;""
                            >serious</p>
                            <div style=""width:240px; margin: auto;"">
                                <img src=""images/B_L_U_12.png"" style= ""width:200px""alt=""img"">
                            </div>
                        </div>","-118","","0","images/B_L_U_12.png","","","","serious","2","12","B","L","U","",""
"","","","","","html-slider-response","58","378215","0.0-50.0","kcfjdljut0","11","NaN","<div style=""width:500px;"">
                            <p style=""font-size:50px; font-weight:bold;""
                            >serious</p>
                            <div style=""width:240px; margin: auto;"">
                                <img src=""images/B_L_U_12.png"" style= ""width:200px""alt=""img"">
                            </div>
                        </div>","-142","","0","images/B_L_U_12.png","","","","serious","1","12","B","L","U","",""
"","","","","","html-slider-response","59","381667","0.0-51.0","kcfjdljut0","11","NaN","<div style=""width:500px;"">
                            <p style=""font-size:50px; font-weight:bold;""
                            >serious</p>
                            <div style=""width:240px; margin: auto;"">
                                <img src=""images/Y_D_S_27.png"" style= ""width:200px""alt=""img"">
                            </div>
                        </div>","200","","0","images/Y_D_S_27.png","","","","serious","2","27","Y","D","S","",""
"","","","","","html-slider-response","60","385811","0.0-52.0","kcfjdljut0","11","NaN","<div style=""width:500px;"">
                            <p style=""font-size:50px; font-weight:bold;""
                            >serious</p>
                            <div style=""width:240px; margin: auto;"">
                                <img src=""images/R_L_S_30.png"" style= ""width:200px""alt=""img"">
                            </div>
                        </div>","-37","","0","images/R_L_S_30.png","","","","serious","1","30","R","L","S","",""
"","","","","","html-slider-response","61","388077","0.0-53.0","kcfjdljut0","11","NaN","<div style=""width:500px;"">
                            <p style=""font-size:50px; font-weight:bold;""
                            >serious</p>
                            <div style=""width:240px; margin: auto;"">
                                <img src=""images/G_L_U_02.png"" style= ""width:200px""alt=""img"">
                            </div>
                        </div>","-122","","0","images/G_L_U_02.png","","","","serious","1","02","G","L","U","",""
"","","","","","html-slider-response","62","392112","0.0-54.0","kcfjdljut0","11","NaN","<div style=""width:500px;"">
                            <p style=""font-size:50px; font-weight:bold;""
                            >serious</p>
                            <div style=""width:240px; margin: auto;"">
                                <img src=""images/R_D_U_41.png"" style= ""width:200px""alt=""img"">
                            </div>
                        </div>","18","","0","images/R_D_U_41.png","","","","serious","1","41","R","D","U","",""
"","","","","","html-slider-response","63","398069","0.0-55.0","kcfjdljut0","11","NaN","<div style=""width:500px;"">
                            <p style=""font-size:50px; font-weight:bold;""
                            >serious</p>
                            <div style=""width:240px; margin: auto;"">
                                <img src=""images/R_L_U_33.png"" style= ""width:200px""alt=""img"">
                            </div>
                        </div>","-22","","0","images/R_L_U_33.png","","","","serious","2","33","R","L","U","",""
"","","","","","html-slider-response","64","402040","0.0-56.0","kcfjdljut0","11","NaN","<div style=""width:500px;"">
                            <p style=""font-size:50px; font-weight:bold;""
                            >serious</p>
                            <div style=""width:240px; margin: auto;"">
                                <img src=""images/R_D_U_41.png"" style= ""width:200px""alt=""img"">
                            </div>
                        </div>","86","","0","images/R_D_U_41.png","","","","serious","2","41","R","D","U","",""
"","","","","","html-slider-response","65","407248","0.0-57.0","kcfjdljut0","11","NaN","<div style=""width:500px;"">
                            <p style=""font-size:50px; font-weight:bold;""
                            >serious</p>
                            <div style=""width:240px; margin: auto;"">
                                <img src=""images/B_D_S_13.png"" style= ""width:200px""alt=""img"">
                            </div>
                        </div>","114","","0","images/B_D_S_13.png","","","","serious","1","13","B","D","S","",""
"","","","","","html-slider-response","66","410325","0.0-58.0","kcfjdljut0","11","NaN","<div style=""width:500px;"">
                            <p style=""font-size:50px; font-weight:bold;""
                            >serious</p>
                            <div style=""width:240px; margin: auto;"">
                                <img src=""images/Y_L_S_23.png"" style= ""width:200px""alt=""img"">
                            </div>
                        </div>","-43","","0","images/Y_L_S_23.png","","","","serious","2","23","Y","L","S","",""
"","","","","","html-slider-response","67","412547","0.0-59.0","kcfjdljut0","11","NaN","<div style=""width:500px;"">
                            <p style=""font-size:50px; font-weight:bold;""
                            >serious</p>
                            <div style=""width:240px; margin: auto;"">
                                <img src=""images/G_D_S_05.png"" style= ""width:200px""alt=""img"">
                            </div>
                        </div>","200","","0","images/G_D_S_05.png","","","","serious","2","05","G","D","S","",""
"","","","","","html-slider-response","68","415386","0.0-60.0","kcfjdljut0","11","NaN","<div style=""width:500px;"">
                            <p style=""font-size:50px; font-weight:bold;""
                            >serious</p>
                            <div style=""width:240px; margin: auto;"">
                                <img src=""images/Y_L_U_26.png"" style= ""width:200px""alt=""img"">
                            </div>
                        </div>","-30","","0","images/Y_L_U_26.png","","","","serious","2","26","Y","L","U","",""
"","","","","","html-slider-response","69","420755","0.0-61.0","kcfjdljut0","11","NaN","<div style=""width:500px;"">
                            <p style=""font-size:50px; font-weight:bold;""
                            >serious</p>
                            <div style=""width:240px; margin: auto;"">
                                <img src=""images/B_D_U_15.png"" style= ""width:200px""alt=""img"">
                            </div>
                        </div>","2","","0","images/B_D_U_15.png","","","","serious","2","15","B","D","U","",""
"","","","","","html-slider-response","70","424147","0.0-62.0","kcfjdljut0","11","NaN","<div style=""width:500px;"">
                            <p style=""font-size:50px; font-weight:bold;""
                            >serious</p>
                            <div style=""width:240px; margin: auto;"">
                                <img src=""images/G_D_S_05.png"" style= ""width:200px""alt=""img"">
                            </div>
                        </div>","2","","0","images/G_D_S_05.png","","","","serious","1","05","G","D","S","",""
"","","","","","html-slider-response","71","426529","0.0-63.0","kcfjdljut0","11","NaN","<div style=""width:500px;"">
                            <p style=""font-size:50px; font-weight:bold;""
                            >serious</p>
                            <div style=""width:240px; margin: auto;"">
                                <img src=""images/Y_D_S_27.png"" style= ""width:200px""alt=""img"">
                            </div>
                        </div>","139","","0","images/Y_D_S_27.png","","","","serious","1","27","Y","D","S","",""
"","","","","","html-slider-response","72","430181","0.0-64.0","kcfjdljut0","11","NaN","<div style=""width:500px;"">
                            <p style=""font-size:50px; font-weight:bold;""
                            >serious</p>
                            <div style=""width:240px; margin: auto;"">
                                <img src=""images/R_L_U_33.png"" style= ""width:200px""alt=""img"">
                            </div>
                        </div>","-37","","0","images/R_L_U_33.png","","","","serious","1","33","R","L","U","",""
"","","","","","html-slider-response","73","433695","0.0-65.0","kcfjdljut0","11","NaN","<div style=""width:500px;"">
                            <p style=""font-size:50px; font-weight:bold;""
                            >serious</p>
                            <div style=""width:240px; margin: auto;"">
                                <img src=""images/Y_L_U_26.png"" style= ""width:200px""alt=""img"">
                            </div>
                        </div>","12","","0","images/Y_L_U_26.png","","","","serious","1","26","Y","L","U","",""
"","","","","","html-slider-response","74","438895","0.0-66.0","kcfjdljut0","11","NaN","<div style=""width:500px;"">
                            <p style=""font-size:50px; font-weight:bold;""
                            >serious</p>
                            <div style=""width:240px; margin: auto;"">
                                <img src=""images/B_D_S_13.png"" style= ""width:200px""alt=""img"">
                            </div>
                        </div>","50","","0","images/B_D_S_13.png","","","","serious","2","13","B","D","S","",""
"","","","","","html-slider-response","75","441602","0.0-67.0","kcfjdljut0","11","NaN","<div style=""width:500px;"">
                            <p style=""font-size:50px; font-weight:bold;""
                            >serious</p>
                            <div style=""width:240px; margin: auto;"">
                                <img src=""images/Y_L_S_23.png"" style= ""width:200px""alt=""img"">
                            </div>
                        </div>","5","","0","images/Y_L_S_23.png","","","","serious","1","23","Y","L","S","",""
"","","","","","html-slider-response","76","445169","0.0-68.0","kcfjdljut0","11","NaN","<div style=""width:500px;"">
                            <p style=""font-size:50px; font-weight:bold;""
                            >serious</p>
                            <div style=""width:240px; margin: auto;"">
                                <img src=""images/Y_D_U_28.png"" style= ""width:200px""alt=""img"">
                            </div>
                        </div>","50","","0","images/Y_D_U_28.png","","","","serious","1","28","Y","D","U","",""
"","","","","","html-slider-response","77","449302","0.0-69.0","kcfjdljut0","11","NaN","<div style=""width:500px;"">
                            <p style=""font-size:50px; font-weight:bold;""
                            >serious</p>
                            <div style=""width:240px; margin: auto;"">
                                <img src=""images/R_L_S_30.png"" style= ""width:200px""alt=""img"">
                            </div>
                        </div>","-97","","0","images/R_L_S_30.png","","","","serious","2","30","R","L","S","",""
"","","","","","html-slider-response","78","452150","0.0-70.0","kcfjdljut0","11","NaN","<div style=""width:500px;"">
                            <p style=""font-size:50px; font-weight:bold;""
                            >serious</p>
                            <div style=""width:240px; margin: auto;"">
                                <img src=""images/Y_D_U_28.png"" style= ""width:200px""alt=""img"">
                            </div>
                        </div>","14","","0","images/Y_D_U_28.png","","","","serious","2","28","Y","D","U","",""
"","","","","","html-slider-response","79","457531","0.0-71.0","kcfjdljut0","11","NaN","<div style=""width:500px;"">
                            <p style=""font-size:50px; font-weight:bold;""
                            >serious</p>
                            <div style=""width:240px; margin: auto;"">
                                <img src=""images/G_L_S_44.png"" style= ""width:200px""alt=""img"">
                            </div>
                        </div>","-174","","0","images/G_L_S_44.png","","","","serious","2","44","G","L","S","",""
"","","","","","html-slider-response","80","462445","0.0-72.0","kcfjdljut0","11","NaN","<div style=""width:500px;"">
                            <p style=""font-size:50px; font-weight:bold;""
                            >serious</p>
                            <div style=""width:240px; margin: auto;"">
                                <img src=""images/G_L_S_44.png"" style= ""width:200px""alt=""img"">
                            </div>
                        </div>","-22","","0","images/G_L_S_44.png","","","","serious","1","44","G","L","S","",""
"","","","","","html-slider-response","81","466780","0.0-73.0","kcfjdljut0","11","NaN","<div style=""width:500px;"">
                            <p style=""font-size:50px; font-weight:bold;""
                            >serious</p>
                            <div style=""width:240px; margin: auto;"">
                                <img src=""images/B_D_U_15.png"" style= ""width:200px""alt=""img"">
                            </div>
                        </div>","52","","0","images/B_D_U_15.png","","","","serious","1","15","B","D","U","",""
"","","","","","html-slider-response","82","470194","0.0-74.0","kcfjdljut0","11","NaN","<div style=""width:500px;"">
                            <p style=""font-size:50px; font-weight:bold;""
                            >serious</p>
                            <div style=""width:240px; margin: auto;"">
                                <img src=""images/R_D_S_37.png"" style= ""width:200px""alt=""img"">
                            </div>
                        </div>","-38","","0","images/R_D_S_37.png","","","","serious","2","37","R","D","S","",""
"","","","","","html-slider-response","83","473523","0.0-75.0","kcfjdljut0","11","NaN","<div style=""width:500px;"">
                            <p style=""font-size:50px; font-weight:bold;""
                            >serious</p>
                            <div style=""width:240px; margin: auto;"">
                                <img src=""images/G_D_U_07.png"" style= ""width:200px""alt=""img"">
                            </div>
                        </div>","168","","0","images/G_D_U_07.png","","","","serious","2","07","G","D","U","",""
"","","","","","html-slider-response","84","496865","0.0-76.0","kcfjdljut0","11","NaN","<div style=""width:500px;"">
                            <p style=""font-size:50px; font-weight:bold;""
                            >serious</p>
                            <div style=""width:240px; margin: auto;"">
                                <img src=""images/B_L_S_10.png"" style= ""width:200px""alt=""img"">
                            </div>
                        </div>","-118","","0","images/B_L_S_10.png","","","","serious","2","10","B","L","S","",""
"","","","","","html-slider-response","85","518254","0.0-77.0","kcfjdljut0","11","NaN","<div style=""width:500px;"">
                            <p style=""font-size:50px; font-weight:bold;""
                            >serious</p>
                            <div style=""width:240px; margin: auto;"">
                                <img src=""images/G_D_U_07.png"" style= ""width:200px""alt=""img"">
                            </div>
                        </div>","158","","0","images/G_D_U_07.png","","","","serious","1","07","G","D","U","",""
"","","","","","html-slider-response","86","521611","0.0-78.0","kcfjdljut0","11","NaN","<div style=""width:500px;"">
                            <p style=""font-size:50px; font-weight:bold;""
                            >serious</p>
                            <div style=""width:240px; margin: auto;"">
                                <img src=""images/R_D_S_37.png"" style= ""width:200px""alt=""img"">
                            </div>
                        </div>","199","","0","images/R_D_S_37.png","","","","serious","1","37","R","D","S","",""
"","","","","","html-slider-response","87","526305","0.0-79.0","kcfjdljut0","11","NaN","<div style=""width:500px;"">
                            <p style=""font-size:50px; font-weight:bold;""
                            >serious</p>
                            <div style=""width:240px; margin: auto;"">
                                <img src=""images/B_L_S_10.png"" style= ""width:200px""alt=""img"">
                            </div>
                        </div>","71","","0","images/B_L_S_10.png","","","","serious","1","10","B","L","S","",""
"","","","","","html-button-response","88","559706","0.0-80.0","kcfjdljut0","11","32896","<p>Great Job! You've finished block 2.<br></br> You have 6 block(s) left to go.<br></br></p>","0","","","","","","","","","","","","","",""
"","","","","","html-button-response","89","560952","0.0-81.0","kcfjdljut0","11","1246","<p>In this block of trials, you will be asked to rate how much you associate each map with:</p > <p style = 'font-size:150%; font-weight: bold'>exciting</p><br></br>","0","","","","","","","","","","","","","",""
"","","","","","html-slider-response","90","562485","0.0-82.0","kcfjdljut0","11","NaN","<div style=""width:500px;"">
                            <p style=""font-size:50px; font-weight:bold;""
                            >exciting</p>
                            <div style=""width:240px; margin: auto;"">
                                <img src=""images/B_L_S_10.png"" style= ""width:200px""alt=""img"">
                            </div>
                        </div>","193","","0","images/B_L_S_10.png","","","","exciting","1","10","B","L","S","",""
"","","","","","html-slider-response","91","564232","0.0-83.0","kcfjdljut0","11","NaN","<div style=""width:500px;"">
                            <p style=""font-size:50px; font-weight:bold;""
                            >exciting</p>
                            <div style=""width:240px; margin: auto;"">
                                <img src=""images/B_L_S_10.png"" style= ""width:200px""alt=""img"">
                            </div>
                        </div>","198","","0","images/B_L_S_10.png","","","","exciting","2","10","B","L","S","",""
"","","","","","html-slider-response","92","566736","0.0-84.0","kcfjdljut0","11","NaN","<div style=""width:500px;"">
                            <p style=""font-size:50px; font-weight:bold;""
                            >exciting</p>
                            <div style=""width:240px; margin: auto;"">
                                <img src=""images/Y_D_U_28.png"" style= ""width:200px""alt=""img"">
                            </div>
                        </div>","-198","","0","images/Y_D_U_28.png","","","","exciting","1","28","Y","D","U","",""
"","","","","","html-slider-response","93","570374","0.0-85.0","kcfjdljut0","11","NaN","<div style=""width:500px;"">
                            <p style=""font-size:50px; font-weight:bold;""
                            >exciting</p>
                            <div style=""width:240px; margin: auto;"">
                                <img src=""images/G_L_S_44.png"" style= ""width:200px""alt=""img"">
                            </div>
                        </div>","44","","0","images/G_L_S_44.png","","","","exciting","2","44","G","L","S","",""
"","","","","","html-slider-response","94","572524","0.0-86.0","kcfjdljut0","11","NaN","<div style=""width:500px;"">
                            <p style=""font-size:50px; font-weight:bold;""
                            >exciting</p>
                            <div style=""width:240px; margin: auto;"">
                                <img src=""images/B_L_U_12.png"" style= ""width:200px""alt=""img"">
                            </div>
                        </div>","138","","0","images/B_L_U_12.png","","","","exciting","2","12","B","L","U","",""
"","","","","","html-slider-response","95","574705","0.0-87.0","kcfjdljut0","11","NaN","<div style=""width:500px;"">
                            <p style=""font-size:50px; font-weight:bold;""
                            >exciting</p>
                            <div style=""width:240px; margin: auto;"">
                                <img src=""images/R_L_S_30.png"" style= ""width:200px""alt=""img"">
                            </div>
                        </div>","181","","0","images/R_L_S_30.png","","","","exciting","2","30","R","L","S","",""
"","","","","","html-slider-response","96","577072","0.0-88.0","kcfjdljut0","11","NaN","<div style=""width:500px;"">
                            <p style=""font-size:50px; font-weight:bold;""
                            >exciting</p>
                            <div style=""width:240px; margin: auto;"">
                                <img src=""images/R_D_U_41.png"" style= ""width:200px""alt=""img"">
                            </div>
                        </div>","-176","","0","images/R_D_U_41.png","","","","exciting","2","41","R","D","U","",""
"","","","","","html-slider-response","97","579505","0.0-89.0","kcfjdljut0","11","NaN","<div style=""width:500px;"">
                            <p style=""font-size:50px; font-weight:bold;""
                            >exciting</p>
                            <div style=""width:240px; margin: auto;"">
                                <img src=""images/Y_D_S_27.png"" style= ""width:200px""alt=""img"">
                            </div>
                        </div>","-194","","0","images/Y_D_S_27.png","","","","exciting","2","27","Y","D","S","",""
"","","","","","html-slider-response","98","582908","0.0-90.0","kcfjdljut0","11","NaN","<div style=""width:500px;"">
                            <p style=""font-size:50px; font-weight:bold;""
                            >exciting</p>
                            <div style=""width:240px; margin: auto;"">
                                <img src=""images/G_D_S_05.png"" style= ""width:200px""alt=""img"">
                            </div>
                        </div>","-22","","0","images/G_D_S_05.png","","","","exciting","2","05","G","D","S","",""
"","","","","","html-slider-response","99","585265","0.0-91.0","kcfjdljut0","11","NaN","<div style=""width:500px;"">
                            <p style=""font-size:50px; font-weight:bold;""
                            >exciting</p>
                            <div style=""width:240px; margin: auto;"">
                                <img src=""images/B_D_U_15.png"" style= ""width:200px""alt=""img"">
                            </div>
                        </div>","-94","","0","images/B_D_U_15.png","","","","exciting","1","15","B","D","U","",""
"","","","","","html-slider-response","100","588414","0.0-92.0","kcfjdljut0","11","NaN","<div style=""width:500px;"">
                            <p style=""font-size:50px; font-weight:bold;""
                            >exciting</p>
                            <div style=""width:240px; margin: auto;"">
                                <img src=""images/R_L_S_30.png"" style= ""width:200px""alt=""img"">
                            </div>
                        </div>","74","","0","images/R_L_S_30.png","","","","exciting","1","30","R","L","S","",""
"","","","","","html-slider-response","101","591425","0.0-93.0","kcfjdljut0","11","NaN","<div style=""width:500px;"">
                            <p style=""font-size:50px; font-weight:bold;""
                            >exciting</p>
                            <div style=""width:240px; margin: auto;"">
                                <img src=""images/B_D_S_13.png"" style= ""width:200px""alt=""img"">
                            </div>
                        </div>","139","","0","images/B_D_S_13.png","","","","exciting","2","13","B","D","S","",""
"","","","","","html-slider-response","102","595752","0.0-94.0","kcfjdljut0","11","NaN","<div style=""width:500px;"">
                            <p style=""font-size:50px; font-weight:bold;""
                            >exciting</p>
                            <div style=""width:240px; margin: auto;"">
                                <img src=""images/G_D_S_05.png"" style= ""width:200px""alt=""img"">
                            </div>
                        </div>","-1","","0","images/G_D_S_05.png","","","","exciting","1","05","G","D","S","",""
"","","","","","html-slider-response","103","599659","0.0-95.0","kcfjdljut0","11","NaN","<div style=""width:500px;"">
                            <p style=""font-size:50px; font-weight:bold;""
                            >exciting</p>
                            <div style=""width:240px; margin: auto;"">
                                <img src=""images/B_D_U_15.png"" style= ""width:200px""alt=""img"">
                            </div>
                        </div>","-1","","0","images/B_D_U_15.png","","","","exciting","2","15","B","D","U","",""
"","","","","","html-slider-response","104","602284","0.0-96.0","kcfjdljut0","11","NaN","<div style=""width:500px;"">
                            <p style=""font-size:50px; font-weight:bold;""
                            >exciting</p>
                            <div style=""width:240px; margin: auto;"">
                                <img src=""images/Y_L_U_26.png"" style= ""width:200px""alt=""img"">
                            </div>
                        </div>","72","","0","images/Y_L_U_26.png","","","","exciting","1","26","Y","L","U","",""
"","","","","","html-slider-response","105","604552","0.0-97.0","kcfjdljut0","11","NaN","<div style=""width:500px;"">
                            <p style=""font-size:50px; font-weight:bold;""
                            >exciting</p>
                            <div style=""width:240px; margin: auto;"">
                                <img src=""images/G_L_S_44.png"" style= ""width:200px""alt=""img"">
                            </div>
                        </div>","127","","0","images/G_L_S_44.png","","","","exciting","1","44","G","L","S","",""
"","","","","","html-slider-response","106","608975","0.0-98.0","kcfjdljut0","11","NaN","<div style=""width:500px;"">
                            <p style=""font-size:50px; font-weight:bold;""
                            >exciting</p>
                            <div style=""width:240px; margin: auto;"">
                                <img src=""images/R_D_S_37.png"" style= ""width:200px""alt=""img"">
                            </div>
                        </div>","156","","0","images/R_D_S_37.png","","","","exciting","1","37","R","D","S","",""
"","","","","","html-slider-response","107","611591","0.0-99.0","kcfjdljut0","11","NaN","<div style=""width:500px;"">
                            <p style=""font-size:50px; font-weight:bold;""
                            >exciting</p>
                            <div style=""width:240px; margin: auto;"">
                                <img src=""images/R_L_U_33.png"" style= ""width:200px""alt=""img"">
                            </div>
                        </div>","197","","0","images/R_L_U_33.png","","","","exciting","1","33","R","L","U","",""
"","","","","","html-slider-response","108","613759","0.0-100.0","kcfjdljut0","11","NaN","<div style=""width:500px;"">
                            <p style=""font-size:50px; font-weight:bold;""
                            >exciting</p>
                            <div style=""width:240px; margin: auto;"">
                                <img src=""images/G_L_U_02.png"" style= ""width:200px""alt=""img"">
                            </div>
                        </div>","199","","0","images/G_L_U_02.png","","","","exciting","2","02","G","L","U","",""
"","","","","","html-slider-response","109","627317","0.0-101.0","kcfjdljut0","11","NaN","<div style=""width:500px;"">
                            <p style=""font-size:50px; font-weight:bold;""
                            >exciting</p>
                            <div style=""width:240px; margin: auto;"">
                                <img src=""images/B_D_S_13.png"" style= ""width:200px""alt=""img"">
                            </div>
                        </div>","70","","0","images/B_D_S_13.png","","","","exciting","1","13","B","D","S","",""
"","","","","","html-slider-response","110","630480","0.0-102.0","kcfjdljut0","11","NaN","<div style=""width:500px;"">
                            <p style=""font-size:50px; font-weight:bold;""
                            >exciting</p>
                            <div style=""width:240px; margin: auto;"">
                                <img src=""images/G_D_U_07.png"" style= ""width:200px""alt=""img"">
                            </div>
                        </div>","-194","","0","images/G_D_U_07.png","","","","exciting","1","07","G","D","U","",""
"","","","","","html-slider-response","111","655072","0.0-103.0","kcfjdljut0","11","NaN","<div style=""width:500px;"">
                            <p style=""font-size:50px; font-weight:bold;""
                            >exciting</p>
                            <div style=""width:240px; margin: auto;"">
                                <img src=""images/G_L_U_02.png"" style= ""width:200px""alt=""img"">
                            </div>
                        </div>","144","","0","images/G_L_U_02.png","","","","exciting","1","02","G","L","U","",""
"","","","","","html-slider-response","112","657590","0.0-104.0","kcfjdljut0","11","NaN","<div style=""width:500px;"">
                            <p style=""font-size:50px; font-weight:bold;""
                            >exciting</p>
                            <div style=""width:240px; margin: auto;"">
                                <img src=""images/Y_D_S_27.png"" style= ""width:200px""alt=""img"">
                            </div>
                        </div>","-183","","0","images/Y_D_S_27.png","","","","exciting","1","27","Y","D","S","",""
"","","","","","html-slider-response","113","661221","0.0-105.0","kcfjdljut0","11","NaN","<div style=""width:500px;"">
                            <p style=""font-size:50px; font-weight:bold;""
                            >exciting</p>
                            <div style=""width:240px; margin: auto;"">
                                <img src=""images/Y_L_S_23.png"" style= ""width:200px""alt=""img"">
                            </div>
                        </div>","200","","0","images/Y_L_S_23.png","","","","exciting","1","23","Y","L","S","",""
"","","","","","html-slider-response","114","663479","0.0-106.0","kcfjdljut0","11","NaN","<div style=""width:500px;"">
                            <p style=""font-size:50px; font-weight:bold;""
                            >exciting</p>
                            <div style=""width:240px; margin: auto;"">
                                <img src=""images/B_L_U_12.png"" style= ""width:200px""alt=""img"">
                            </div>
                        </div>","194","","0","images/B_L_U_12.png","","","","exciting","1","12","B","L","U","",""
"","","","","","html-slider-response","115","665611","0.0-107.0","kcfjdljut0","11","NaN","<div style=""width:500px;"">
                            <p style=""font-size:50px; font-weight:bold;""
                            >exciting</p>
                            <div style=""width:240px; margin: auto;"">
                                <img src=""images/Y_L_U_26.png"" style= ""width:200px""alt=""img"">
                            </div>
                        </div>","-163","","0","images/Y_L_U_26.png","","","","exciting","2","26","Y","L","U","",""
"","","","","","html-slider-response","116","667192","0.0-108.0","kcfjdljut0","11","NaN","<div style=""width:500px;"">
                            <p style=""font-size:50px; font-weight:bold;""
                            >exciting</p>
                            <div style=""width:240px; margin: auto;"">
                                <img src=""images/Y_L_S_23.png"" style= ""width:200px""alt=""img"">
                            </div>
                        </div>","155","","0","images/Y_L_S_23.png","","","","exciting","2","23","Y","L","S","",""
"","","","","","html-slider-response","117","669038","0.0-109.0","kcfjdljut0","11","NaN","<div style=""width:500px;"">
                            <p style=""font-size:50px; font-weight:bold;""
                            >exciting</p>
                            <div style=""width:240px; margin: auto;"">
                                <img src=""images/R_D_S_37.png"" style= ""width:200px""alt=""img"">
                            </div>
                        </div>","193","","0","images/R_D_S_37.png","","","","exciting","2","37","R","D","S","",""
"","","","","","html-slider-response","118","671596","0.0-110.0","kcfjdljut0","11","NaN","<div style=""width:500px;"">
                            <p style=""font-size:50px; font-weight:bold;""
                            >exciting</p>
                            <div style=""width:240px; margin: auto;"">
                                <img src=""images/Y_D_U_28.png"" style= ""width:200px""alt=""img"">
                            </div>
                        </div>","-197","","0","images/Y_D_U_28.png","","","","exciting","2","28","Y","D","U","",""
"","","","","","html-slider-response","119","673523","0.0-111.0","kcfjdljut0","11","NaN","<div style=""width:500px;"">
                            <p style=""font-size:50px; font-weight:bold;""
                            >exciting</p>
                            <div style=""width:240px; margin: auto;"">
                                <img src=""images/G_D_U_07.png"" style= ""width:200px""alt=""img"">
                            </div>
                        </div>","-193","","0","images/G_D_U_07.png","","","","exciting","2","07","G","D","U","",""
"","","","","","html-slider-response","120","676067","0.0-112.0","kcfjdljut0","11","NaN","<div style=""width:500px;"">
                            <p style=""font-size:50px; font-weight:bold;""
                            >exciting</p>
                            <div style=""width:240px; margin: auto;"">
                                <img src=""images/R_L_U_33.png"" style= ""width:200px""alt=""img"">
                            </div>
                        </div>","200","","0","images/R_L_U_33.png","","","","exciting","2","33","R","L","U","",""
"","","","","","html-slider-response","121","678379","0.0-113.0","kcfjdljut0","11","NaN","<div style=""width:500px;"">
                            <p style=""font-size:50px; font-weight:bold;""
                            >exciting</p>
                            <div style=""width:240px; margin: auto;"">
                                <img src=""images/R_D_U_41.png"" style= ""width:200px""alt=""img"">
                            </div>
                        </div>","-119","","0","images/R_D_U_41.png","","","","exciting","1","41","R","D","U","",""
"","","","","","html-button-response","122","680530","0.0-114.0","kcfjdljut0","11","1647","<p>Great Job! You've finished block 3.<br></br> You have 5 block(s) left to go.<br></br></p>","0","","","","","","","","","","","","","",""
"","","","","","html-button-response","123","681361","0.0-115.0","kcfjdljut0","11","830","<p>In this block of trials, you will be asked to rate how much you associate each map with:</p > <p style = 'font-size:150%; font-weight: bold'>positive</p><br></br>","0","","","","","","","","","","","","","",""
"","","","","","html-slider-response","124","684142","0.0-116.0","kcfjdljut0","11","NaN","<div style=""width:500px;"">
                            <p style=""font-size:50px; font-weight:bold;""
                            >positive</p>
                            <div style=""width:240px; margin: auto;"">
                                <img src=""images/B_D_S_13.png"" style= ""width:200px""alt=""img"">
                            </div>
                        </div>","3","","0","images/B_D_S_13.png","","","","positive","2","13","B","D","S","",""
"","","","","","html-slider-response","125","686826","0.0-117.0","kcfjdljut0","11","NaN","<div style=""width:500px;"">
                            <p style=""font-size:50px; font-weight:bold;""
                            >positive</p>
                            <div style=""width:240px; margin: auto;"">
                                <img src=""images/Y_L_S_23.png"" style= ""width:200px""alt=""img"">
                            </div>
                        </div>","119","","0","images/Y_L_S_23.png","","","","positive","2","23","Y","L","S","",""
"","","","","","html-slider-response","126","688997","0.0-118.0","kcfjdljut0","11","NaN","<div style=""width:500px;"">
                            <p style=""font-size:50px; font-weight:bold;""
                            >positive</p>
                            <div style=""width:240px; margin: auto;"">
                                <img src=""images/Y_L_U_26.png"" style= ""width:200px""alt=""img"">
                            </div>
                        </div>","193","","0","images/Y_L_U_26.png","","","","positive","2","26","Y","L","U","",""
"","","","","","html-slider-response","127","691314","0.0-119.0","kcfjdljut0","11","NaN","<div style=""width:500px;"">
                            <p style=""font-size:50px; font-weight:bold;""
                            >positive</p>
                            <div style=""width:240px; margin: auto;"">
                                <img src=""images/B_D_S_13.png"" style= ""width:200px""alt=""img"">
                            </div>
                        </div>","79","","0","images/B_D_S_13.png","","","","positive","1","13","B","D","S","",""
"","","","","","html-slider-response","128","693431","0.0-120.0","kcfjdljut0","11","NaN","<div style=""width:500px;"">
                            <p style=""font-size:50px; font-weight:bold;""
                            >positive</p>
                            <div style=""width:240px; margin: auto;"">
                                <img src=""images/R_L_S_30.png"" style= ""width:200px""alt=""img"">
                            </div>
                        </div>","189","","0","images/R_L_S_30.png","","","","positive","2","30","R","L","S","",""
"","","","","","html-slider-response","129","695276","0.0-121.0","kcfjdljut0","11","NaN","<div style=""width:500px;"">
                            <p style=""font-size:50px; font-weight:bold;""
                            >positive</p>
                            <div style=""width:240px; margin: auto;"">
                                <img src=""images/R_L_U_33.png"" style= ""width:200px""alt=""img"">
                            </div>
                        </div>","200","","0","images/R_L_U_33.png","","","","positive","1","33","R","L","U","",""
"","","","","","html-slider-response","130","697158","0.0-122.0","kcfjdljut0","11","NaN","<div style=""width:500px;"">
                            <p style=""font-size:50px; font-weight:bold;""
                            >positive</p>
                            <div style=""width:240px; margin: auto;"">
                                <img src=""images/B_L_U_12.png"" style= ""width:200px""alt=""img"">
                            </div>
                        </div>","195","","0","images/B_L_U_12.png","","","","positive","2","12","B","L","U","",""
"","","","","","html-slider-response","131","698916","0.0-123.0","kcfjdljut0","11","NaN","<div style=""width:500px;"">
                            <p style=""font-size:50px; font-weight:bold;""
                            >positive</p>
                            <div style=""width:240px; margin: auto;"">
                                <img src=""images/B_L_S_10.png"" style= ""width:200px""alt=""img"">
                            </div>
                        </div>","192","","0","images/B_L_S_10.png","","","","positive","1","10","B","L","S","",""
"","","","","","html-slider-response","132","701006","0.0-124.0","kcfjdljut0","11","NaN","<div style=""width:500px;"">
                            <p style=""font-size:50px; font-weight:bold;""
                            >positive</p>
                            <div style=""width:240px; margin: auto;"">
                                <img src=""images/B_D_U_15.png"" style= ""width:200px""alt=""img"">
                            </div>
                        </div>","-46","","0","images/B_D_U_15.png","","","","positive","2","15","B","D","U","",""
"","","","","","html-slider-response","133","702861","0.0-125.0","kcfjdljut0","11","NaN","<div style=""width:500px;"">
                            <p style=""font-size:50px; font-weight:bold;""
                            >positive</p>
                            <div style=""width:240px; margin: auto;"">
                                <img src=""images/B_L_S_10.png"" style= ""width:200px""alt=""img"">
                            </div>
                        </div>","200","","0","images/B_L_S_10.png","","","","positive","2","10","B","L","S","",""
"","","","","","html-slider-response","134","707083","0.0-126.0","kcfjdljut0","11","NaN","<div style=""width:500px;"">
                            <p style=""font-size:50px; font-weight:bold;""
                            >positive</p>
                            <div style=""width:240px; margin: auto;"">
                                <img src=""images/G_L_U_02.png"" style= ""width:200px""alt=""img"">
                            </div>
                        </div>","176","","0","images/G_L_U_02.png","","","","positive","2","02","G","L","U","",""
"","","","","","html-slider-response","135","709511","0.0-127.0","kcfjdljut0","11","NaN","<div style=""width:500px;"">
                            <p style=""font-size:50px; font-weight:bold;""
                            >positive</p>
                            <div style=""width:240px; margin: auto;"">
                                <img src=""images/G_L_S_44.png"" style= ""width:200px""alt=""img"">
                            </div>
                        </div>","198","","0","images/G_L_S_44.png","","","","positive","2","44","G","L","S","",""
"","","","","","html-slider-response","136","711068","0.0-128.0","kcfjdljut0","11","NaN","<div style=""width:500px;"">
                            <p style=""font-size:50px; font-weight:bold;""
                            >positive</p>
                            <div style=""width:240px; margin: auto;"">
                                <img src=""images/R_L_S_30.png"" style= ""width:200px""alt=""img"">
                            </div>
                        </div>","197","","0","images/R_L_S_30.png","","","","positive","1","30","R","L","S","",""
"","","","","","html-slider-response","137","713307","0.0-129.0","kcfjdljut0","11","NaN","<div style=""width:500px;"">
                            <p style=""font-size:50px; font-weight:bold;""
                            >positive</p>
                            <div style=""width:240px; margin: auto;"">
                                <img src=""images/Y_L_U_26.png"" style= ""width:200px""alt=""img"">
                            </div>
                        </div>","72","","0","images/Y_L_U_26.png","","","","positive","1","26","Y","L","U","",""
"","","","","","html-slider-response","138","716504","0.0-130.0","kcfjdljut0","11","NaN","<div style=""width:500px;"">
                            <p style=""font-size:50px; font-weight:bold;""
                            >positive</p>
                            <div style=""width:240px; margin: auto;"">
                                <img src=""images/G_L_U_02.png"" style= ""width:200px""alt=""img"">
                            </div>
                        </div>","38","","0","images/G_L_U_02.png","","","","positive","1","02","G","L","U","",""
"","","","","","html-slider-response","139","719456","0.0-131.0","kcfjdljut0","11","NaN","<div style=""width:500px;"">
                            <p style=""font-size:50px; font-weight:bold;""
                            >positive</p>
                            <div style=""width:240px; margin: auto;"">
                                <img src=""images/R_D_S_37.png"" style= ""width:200px""alt=""img"">
                            </div>
                        </div>","-40","","0","images/R_D_S_37.png","","","","positive","2","37","R","D","S","",""
"","","","","","html-slider-response","140","721894","0.0-132.0","kcfjdljut0","11","NaN","<div style=""width:500px;"">
                            <p style=""font-size:50px; font-weight:bold;""
                            >positive</p>
                            <div style=""width:240px; margin: auto;"">
                                <img src=""images/B_D_U_15.png"" style= ""width:200px""alt=""img"">
                            </div>
                        </div>","-98","","0","images/B_D_U_15.png","","","","positive","1","15","B","D","U","",""
"","","","","","html-slider-response","141","724674","0.0-133.0","kcfjdljut0","11","NaN","<div style=""width:500px;"">
                            <p style=""font-size:50px; font-weight:bold;""
                            >positive</p>
                            <div style=""width:240px; margin: auto;"">
                                <img src=""images/Y_L_S_23.png"" style= ""width:200px""alt=""img"">
                            </div>
                        </div>","114","","0","images/Y_L_S_23.png","","","","positive","1","23","Y","L","S","",""
"","","","","","html-slider-response","142","727117","0.0-134.0","kcfjdljut0","11","NaN","<div style=""width:500px;"">
                            <p style=""font-size:50px; font-weight:bold;""
                            >positive</p>
                            <div style=""width:240px; margin: auto;"">
                                <img src=""images/Y_D_U_28.png"" style= ""width:200px""alt=""img"">
                            </div>
                        </div>","-197","","0","images/Y_D_U_28.png","","","","positive","2","28","Y","D","U","",""
"","","","","","html-slider-response","143","729578","0.0-135.0","kcfjdljut0","11","NaN","<div style=""width:500px;"">
                            <p style=""font-size:50px; font-weight:bold;""
                            >positive</p>
                            <div style=""width:240px; margin: auto;"">
                                <img src=""images/R_D_S_37.png"" style= ""width:200px""alt=""img"">
                            </div>
                        </div>","-113","","0","images/R_D_S_37.png","","","","positive","1","37","R","D","S","",""
"","","","","","html-slider-response","144","731605","0.0-136.0","kcfjdljut0","11","NaN","<div style=""width:500px;"">
                            <p style=""font-size:50px; font-weight:bold;""
                            >positive</p>
                            <div style=""width:240px; margin: auto;"">
                                <img src=""images/Y_D_S_27.png"" style= ""width:200px""alt=""img"">
                            </div>
                        </div>","-162","","0","images/Y_D_S_27.png","","","","positive","1","27","Y","D","S","",""
"","","","","","html-slider-response","145","734795","0.0-137.0","kcfjdljut0","11","NaN","<div style=""width:500px;"">
                            <p style=""font-size:50px; font-weight:bold;""
                            >positive</p>
                            <div style=""width:240px; margin: auto;"">
                                <img src=""images/G_D_S_05.png"" style= ""width:200px""alt=""img"">
                            </div>
                        </div>","-22","","0","images/G_D_S_05.png","","","","positive","1","05","G","D","S","",""
"","","","","","html-slider-response","146","736226","0.0-138.0","kcfjdljut0","11","NaN","<div style=""width:500px;"">
                            <p style=""font-size:50px; font-weight:bold;""
                            >positive</p>
                            <div style=""width:240px; margin: auto;"">
                                <img src=""images/G_D_S_05.png"" style= ""width:200px""alt=""img"">
                            </div>
                        </div>","-22","","0","images/G_D_S_05.png","","","","positive","2","05","G","D","S","",""
"","","","","","html-slider-response","147","738806","0.0-139.0","kcfjdljut0","11","NaN","<div style=""width:500px;"">
                            <p style=""font-size:50px; font-weight:bold;""
                            >positive</p>
                            <div style=""width:240px; margin: auto;"">
                                <img src=""images/R_L_U_33.png"" style= ""width:200px""alt=""img"">
                            </div>
                        </div>","162","","0","images/R_L_U_33.png","","","","positive","2","33","R","L","U","",""
"","","","","","html-slider-response","148","740431","0.0-140.0","kcfjdljut0","11","NaN","<div style=""width:500px;"">
                            <p style=""font-size:50px; font-weight:bold;""
                            >positive</p>
                            <div style=""width:240px; margin: auto;"">
                                <img src=""images/B_L_U_12.png"" style= ""width:200px""alt=""img"">
                            </div>
                        </div>","194","","0","images/B_L_U_12.png","","","","positive","1","12","B","L","U","",""
"","","","","","html-slider-response","149","741941","0.0-141.0","kcfjdljut0","11","NaN","<div style=""width:500px;"">
                            <p style=""font-size:50px; font-weight:bold;""
                            >positive</p>
                            <div style=""width:240px; margin: auto;"">
                                <img src=""images/G_L_S_44.png"" style= ""width:200px""alt=""img"">
                            </div>
                        </div>","194","","0","images/G_L_S_44.png","","","","positive","1","44","G","L","S","",""
"","","","","","html-slider-response","150","744219","0.0-142.0","kcfjdljut0","11","NaN","<div style=""width:500px;"">
                            <p style=""font-size:50px; font-weight:bold;""
                            >positive</p>
                            <div style=""width:240px; margin: auto;"">
                                <img src=""images/G_D_U_07.png"" style= ""width:200px""alt=""img"">
                            </div>
                        </div>","-96","","0","images/G_D_U_07.png","","","","positive","1","07","G","D","U","",""
"","","","","","html-slider-response","151","746103","0.0-143.0","kcfjdljut0","11","NaN","<div style=""width:500px;"">
                            <p style=""font-size:50px; font-weight:bold;""
                            >positive</p>
                            <div style=""width:240px; margin: auto;"">
                                <img src=""images/Y_D_S_27.png"" style= ""width:200px""alt=""img"">
                            </div>
                        </div>","-166","","0","images/Y_D_S_27.png","","","","positive","2","27","Y","D","S","",""
"","","","","","html-slider-response","152","748111","0.0-144.0","kcfjdljut0","11","NaN","<div style=""width:500px;"">
                            <p style=""font-size:50px; font-weight:bold;""
                            >positive</p>
                            <div style=""width:240px; margin: auto;"">
                                <img src=""images/R_D_U_41.png"" style= ""width:200px""alt=""img"">
                            </div>
                        </div>","-152","","0","images/R_D_U_41.png","","","","positive","1","41","R","D","U","",""
"","","","","","html-slider-response","153","750112","0.0-145.0","kcfjdljut0","11","NaN","<div style=""width:500px;"">
                            <p style=""font-size:50px; font-weight:bold;""
                            >positive</p>
                            <div style=""width:240px; margin: auto;"">
                                <img src=""images/G_D_U_07.png"" style= ""width:200px""alt=""img"">
                            </div>
                        </div>","-154","","0","images/G_D_U_07.png","","","","positive","2","07","G","D","U","",""
"","","","","","html-slider-response","154","752152","0.0-146.0","kcfjdljut0","11","NaN","<div style=""width:500px;"">
                            <p style=""font-size:50px; font-weight:bold;""
                            >positive</p>
                            <div style=""width:240px; margin: auto;"">
                                <img src=""images/Y_D_U_28.png"" style= ""width:200px""alt=""img"">
                            </div>
                        </div>","-197","","0","images/Y_D_U_28.png","","","","positive","1","28","Y","D","U","",""
"","","","","","html-slider-response","155","754269","0.0-147.0","kcfjdljut0","11","NaN","<div style=""width:500px;"">
                            <p style=""font-size:50px; font-weight:bold;""
                            >positive</p>
                            <div style=""width:240px; margin: auto;"">
                                <img src=""images/R_D_U_41.png"" style= ""width:200px""alt=""img"">
                            </div>
                        </div>","-133","","0","images/R_D_U_41.png","","","","positive","2","41","R","D","U","",""
"","","","","","html-button-response","156","757647","0.0-148.0","kcfjdljut0","11","2874","<p>Great Job! You've finished block 4.<br></br> You have 4 block(s) left to go.<br></br></p>","0","","","","","","","","","","","","","",""
"","","","","","html-button-response","157","758859","0.0-149.0","kcfjdljut0","11","1211","<p>In this block of trials, you will be asked to rate how much you associate each map with:</p > <p style = 'font-size:150%; font-weight: bold'>calm</p><br></br>","0","","","","","","","","","","","","","",""
"","","","","","html-slider-response","158","760581","0.0-150.0","kcfjdljut0","11","NaN","<div style=""width:500px;"">
                            <p style=""font-size:50px; font-weight:bold;""
                            >calm</p>
                            <div style=""width:240px; margin: auto;"">
                                <img src=""images/B_L_S_10.png"" style= ""width:200px""alt=""img"">
                            </div>
                        </div>","198","","0","images/B_L_S_10.png","","","","calm","2","10","B","L","S","",""
"","","","","","html-slider-response","159","762805","0.0-151.0","kcfjdljut0","11","NaN","<div style=""width:500px;"">
                            <p style=""font-size:50px; font-weight:bold;""
                            >calm</p>
                            <div style=""width:240px; margin: auto;"">
                                <img src=""images/R_L_S_30.png"" style= ""width:200px""alt=""img"">
                            </div>
                        </div>","38","","0","images/R_L_S_30.png","","","","calm","1","30","R","L","S","",""
"","","","","","html-slider-response","160","766858","0.0-152.0","kcfjdljut0","11","NaN","<div style=""width:500px;"">
                            <p style=""font-size:50px; font-weight:bold;""
                            >calm</p>
                            <div style=""width:240px; margin: auto;"">
                                <img src=""images/B_D_U_15.png"" style= ""width:200px""alt=""img"">
                            </div>
                        </div>","-35","","0","images/B_D_U_15.png","","","","calm","2","15","B","D","U","",""
"","","","","","html-slider-response","161","773406","0.0-153.0","kcfjdljut0","11","NaN","<div style=""width:500px;"">
                            <p style=""font-size:50px; font-weight:bold;""
                            >calm</p>
                            <div style=""width:240px; margin: auto;"">
                                <img src=""images/G_L_S_44.png"" style= ""width:200px""alt=""img"">
                            </div>
                        </div>","195","","0","images/G_L_S_44.png","","","","calm","1","44","G","L","S","",""
"","","","","","html-slider-response","162","775954","0.0-154.0","kcfjdljut0","11","NaN","<div style=""width:500px;"">
                            <p style=""font-size:50px; font-weight:bold;""
                            >calm</p>
                            <div style=""width:240px; margin: auto;"">
                                <img src=""images/B_L_U_12.png"" style= ""width:200px""alt=""img"">
                            </div>
                        </div>","200","","0","images/B_L_U_12.png","","","","calm","1","12","B","L","U","",""
"","","","","","html-slider-response","163","779821","0.0-155.0","kcfjdljut0","11","NaN","<div style=""width:500px;"">
                            <p style=""font-size:50px; font-weight:bold;""
                            >calm</p>
                            <div style=""width:240px; margin: auto;"">
                                <img src=""images/Y_L_U_26.png"" style= ""width:200px""alt=""img"">
                            </div>
                        </div>","-106","","0","images/Y_L_U_26.png","","","","calm","2","26","Y","L","U","",""
"","","","","","html-slider-response","164","784907","0.0-156.0","kcfjdljut0","11","NaN","<div style=""width:500px;"">
                            <p style=""font-size:50px; font-weight:bold;""
                            >calm</p>
                            <div style=""width:240px; margin: auto;"">
                                <img src=""images/R_D_U_41.png"" style= ""width:200px""alt=""img"">
                            </div>
                        </div>","-26","","0","images/R_D_U_41.png","","","","calm","2","41","R","D","U","",""
"","","","","","html-slider-response","165","790037","0.0-157.0","kcfjdljut0","11","NaN","<div style=""width:500px;"">
                            <p style=""font-size:50px; font-weight:bold;""
                            >calm</p>
                            <div style=""width:240px; margin: auto;"">
                                <img src=""images/G_D_S_05.png"" style= ""width:200px""alt=""img"">
                            </div>
                        </div>","80","","0","images/G_D_S_05.png","","","","calm","2","05","G","D","S","",""
"","","","","","html-slider-response","166","793864","0.0-158.0","kcfjdljut0","11","NaN","<div style=""width:500px;"">
                            <p style=""font-size:50px; font-weight:bold;""
                            >calm</p>
                            <div style=""width:240px; margin: auto;"">
                                <img src=""images/Y_D_U_28.png"" style= ""width:200px""alt=""img"">
                            </div>
                        </div>","196","","0","images/Y_D_U_28.png","","","","calm","1","28","Y","D","U","",""
"","","","","","html-slider-response","167","797587","0.0-159.0","kcfjdljut0","11","NaN","<div style=""width:500px;"">
                            <p style=""font-size:50px; font-weight:bold;""
                            >calm</p>
                            <div style=""width:240px; margin: auto;"">
                                <img src=""images/G_L_U_02.png"" style= ""width:200px""alt=""img"">
                            </div>
                        </div>","-26","","0","images/G_L_U_02.png","","","","calm","1","02","G","L","U","",""
"","","","","","html-slider-response","168","801748","0.0-160.0","kcfjdljut0","11","NaN","<div style=""width:500px;"">
                            <p style=""font-size:50px; font-weight:bold;""
                            >calm</p>
                            <div style=""width:240px; margin: auto;"">
                                <img src=""images/G_D_S_05.png"" style= ""width:200px""alt=""img"">
                            </div>
                        </div>","34","","0","images/G_D_S_05.png","","","","calm","1","05","G","D","S","",""
"","","","","","html-slider-response","169","804809","0.0-161.0","kcfjdljut0","11","NaN","<div style=""width:500px;"">
                            <p style=""font-size:50px; font-weight:bold;""
                            >calm</p>
                            <div style=""width:240px; margin: auto;"">
                                <img src=""images/Y_L_S_23.png"" style= ""width:200px""alt=""img"">
                            </div>
                        </div>","-102","","0","images/Y_L_S_23.png","","","","calm","2","23","Y","L","S","",""
"","","","","","html-slider-response","170","808141","0.0-162.0","kcfjdljut0","11","NaN","<div style=""width:500px;"">
                            <p style=""font-size:50px; font-weight:bold;""
                            >calm</p>
                            <div style=""width:240px; margin: auto;"">
                                <img src=""images/Y_L_U_26.png"" style= ""width:200px""alt=""img"">
                            </div>
                        </div>","-139","","0","images/Y_L_U_26.png","","","","calm","1","26","Y","L","U","",""
"","","","","","html-slider-response","171","814004","0.0-163.0","kcfjdljut0","11","NaN","<div style=""width:500px;"">
                            <p style=""font-size:50px; font-weight:bold;""
                            >calm</p>
                            <div style=""width:240px; margin: auto;"">
                                <img src=""images/R_D_S_37.png"" style= ""width:200px""alt=""img"">
                            </div>
                        </div>","-100","","0","images/R_D_S_37.png","","","","calm","2","37","R","D","S","",""
"","","","","","html-slider-response","172","817259","0.0-164.0","kcfjdljut0","11","NaN","<div style=""width:500px;"">
                            <p style=""font-size:50px; font-weight:bold;""
                            >calm</p>
                            <div style=""width:240px; margin: auto;"">
                                <img src=""images/G_D_U_07.png"" style= ""width:200px""alt=""img"">
                            </div>
                        </div>","38","","0","images/G_D_U_07.png","","","","calm","1","07","G","D","U","",""
"","","","","","html-slider-response","173","820780","0.0-165.0","kcfjdljut0","11","NaN","<div style=""width:500px;"">
                            <p style=""font-size:50px; font-weight:bold;""
                            >calm</p>
                            <div style=""width:240px; margin: auto;"">
                                <img src=""images/B_L_S_10.png"" style= ""width:200px""alt=""img"">
                            </div>
                        </div>","163","","0","images/B_L_S_10.png","","","","calm","1","10","B","L","S","",""
"","","","","","html-slider-response","174","825044","0.0-166.0","kcfjdljut0","11","NaN","<div style=""width:500px;"">
                            <p style=""font-size:50px; font-weight:bold;""
                            >calm</p>
                            <div style=""width:240px; margin: auto;"">
                                <img src=""images/G_D_U_07.png"" style= ""width:200px""alt=""img"">
                            </div>
                        </div>","-77","","0","images/G_D_U_07.png","","","","calm","2","07","G","D","U","",""
"","","","","","html-slider-response","175","830933","0.0-167.0","kcfjdljut0","11","NaN","<div style=""width:500px;"">
                            <p style=""font-size:50px; font-weight:bold;""
                            >calm</p>
                            <div style=""width:240px; margin: auto;"">
                                <img src=""images/B_L_U_12.png"" style= ""width:200px""alt=""img"">
                            </div>
                        </div>","57","","0","images/B_L_U_12.png","","","","calm","2","12","B","L","U","",""
"","","","","","html-slider-response","176","833142","0.0-168.0","kcfjdljut0","11","NaN","<div style=""width:500px;"">
                            <p style=""font-size:50px; font-weight:bold;""
                            >calm</p>
                            <div style=""width:240px; margin: auto;"">
                                <img src=""images/Y_D_U_28.png"" style= ""width:200px""alt=""img"">
                            </div>
                        </div>","195","","0","images/Y_D_U_28.png","","","","calm","2","28","Y","D","U","",""
"","","","","","html-slider-response","177","835670","0.0-169.0","kcfjdljut0","11","NaN","<div style=""width:500px;"">
                            <p style=""font-size:50px; font-weight:bold;""
                            >calm</p>
                            <div style=""width:240px; margin: auto;"">
                                <img src=""images/R_D_S_37.png"" style= ""width:200px""alt=""img"">
                            </div>
                        </div>","-60","","0","images/R_D_S_37.png","","","","calm","1","37","R","D","S","",""
"","","","","","html-slider-response","178","839630","0.0-170.0","kcfjdljut0","11","NaN","<div style=""width:500px;"">
                            <p style=""font-size:50px; font-weight:bold;""
                            >calm</p>
                            <div style=""width:240px; margin: auto;"">
                                <img src=""images/R_D_U_41.png"" style= ""width:200px""alt=""img"">
                            </div>
                        </div>","-100","","0","images/R_D_U_41.png","","","","calm","1","41","R","D","U","",""
"","","","","","html-slider-response","179","841583","0.0-171.0","kcfjdljut0","11","NaN","<div style=""width:500px;"">
                            <p style=""font-size:50px; font-weight:bold;""
                            >calm</p>
                            <div style=""width:240px; margin: auto;"">
                                <img src=""images/Y_L_S_23.png"" style= ""width:200px""alt=""img"">
                            </div>
                        </div>","-110","","0","images/Y_L_S_23.png","","","","calm","1","23","Y","L","S","",""
"","","","","","html-slider-response","180","843635","0.0-172.0","kcfjdljut0","11","NaN","<div style=""width:500px;"">
                            <p style=""font-size:50px; font-weight:bold;""
                            >calm</p>
                            <div style=""width:240px; margin: auto;"">
                                <img src=""images/R_L_U_33.png"" style= ""width:200px""alt=""img"">
                            </div>
                        </div>","-144","","0","images/R_L_U_33.png","","","","calm","2","33","R","L","U","",""
"","","","","","html-slider-response","181","845225","0.0-173.0","kcfjdljut0","11","NaN","<div style=""width:500px;"">
                            <p style=""font-size:50px; font-weight:bold;""
                            >calm</p>
                            <div style=""width:240px; margin: auto;"">
                                <img src=""images/R_L_U_33.png"" style= ""width:200px""alt=""img"">
                            </div>
                        </div>","-158","","0","images/R_L_U_33.png","","","","calm","1","33","R","L","U","",""
"","","","","","html-slider-response","182","849281","0.0-174.0","kcfjdljut0","11","NaN","<div style=""width:500px;"">
                            <p style=""font-size:50px; font-weight:bold;""
                            >calm</p>
                            <div style=""width:240px; margin: auto;"">
                                <img src=""images/Y_D_S_27.png"" style= ""width:200px""alt=""img"">
                            </div>
                        </div>","-114","","0","images/Y_D_S_27.png","","","","calm","1","27","Y","D","S","",""
"","","","","","html-slider-response","183","854286","0.0-175.0","kcfjdljut0","11","NaN","<div style=""width:500px;"">
                            <p style=""font-size:50px; font-weight:bold;""
                            >calm</p>
                            <div style=""width:240px; margin: auto;"">
                                <img src=""images/G_L_U_02.png"" style= ""width:200px""alt=""img"">
                            </div>
                        </div>","46","","0","images/G_L_U_02.png","","","","calm","2","02","G","L","U","",""
"","","","","","html-slider-response","184","856286","0.0-176.0","kcfjdljut0","11","NaN","<div style=""width:500px;"">
                            <p style=""font-size:50px; font-weight:bold;""
                            >calm</p>
                            <div style=""width:240px; margin: auto;"">
                                <img src=""images/Y_D_S_27.png"" style= ""width:200px""alt=""img"">
                            </div>
                        </div>","-102","","0","images/Y_D_S_27.png","","","","calm","2","27","Y","D","S","",""
"","","","","","html-slider-response","185","858855","0.0-177.0","kcfjdljut0","11","NaN","<div style=""width:500px;"">
                            <p style=""font-size:50px; font-weight:bold;""
                            >calm</p>
                            <div style=""width:240px; margin: auto;"">
                                <img src=""images/B_D_U_15.png"" style= ""width:200px""alt=""img"">
                            </div>
                        </div>","-186","","0","images/B_D_U_15.png","","","","calm","1","15","B","D","U","",""
