"success","timeout","failed_images","failed_audio","failed_video","trial_type","trial_index","time_elapsed","internal_node_id","subject_id","condition_num","rt","stimulus","response","question_order","slider_start","image_path","practiceTrial","practiceTrialNum","correct","concept","repetition","map_id","hue","lightness","saturation","ishihara_plate","correct_response"
"true","false","[]","[]","[]","preload","0","374","0.0-0.0","ov4c0zd1oe","5","","","","","","","","","","","","","","","","",""
"","","","","","html-button-response","1","14420992","0.0-1.0","ov4c0zd1oe","5","5532098","Welcome to our experiment!<p>At the bottom of this screen, you will see a button that says ""Begin Experiment"".<br>Please only click that button when you are ready to complete the 25 minute experiment in one sitting.</p><p> Once you click that button, it will not be possible to restart the experiment.","0","","","","","","","","","","","","","",""
"true","","","","","fullscreen","2","14424416","0.0-2.0","ov4c0zd1oe","5","2420","","","","","","","","","","","","","","","",""
"","","","","","survey-multi-select","3","14462559","0.0-3.0","ov4c0zd1oe","5","38142","","{""Consent"":[""<strong>I consent</strong>""]}","[0]","","","","","","","","","","","","",""
"","","","","","html-button-response","4","14468531","0.0-4.0","ov4c0zd1oe","5","5971","Welcome! <p> This experiment involves two parts: demographic information, followed by the experimental task.<p> It will take about 25 minutes to complete both parts.","0","","","","","","","","","","","","","",""
"","","","","","survey-text","5","14481940","0.0-5.0","ov4c0zd1oe","5","13398","","{""Age"":""18"",""Gender"":""Female"",""Race/ethnicity"":""Hispanic"",""Languages"":""English""}","","","","","","","","","","","","","",""
"","","","","","html-slider-response","6","14556031","0.0-6.0","ov4c0zd1oe","5","74089","
                            <div style='text-align:left; font-size:20px; line-height:25px; width: 1400px;'>
                                During this experiment you will be asked to rate how much you associate maps with                    different concepts.<br> Below, you can see some examples of the maps you will be asked to rate. Next to the maps
                    is the list of concepts.<br>You will be asked                    to rate how much you associate each map with each concept on a scale from 'not at all' to 'very much' like the
                    one below. <br><br>
                    Now, please look at the list of concepts and maps. For each concept, think about the map you associate 'very
                    much' with the concept.<br>                     When you see that map during the experiment, please rate it near the 'very much' endpoint of the
                    scale.<br>Now, please think about which map you associate 'not at all'                     with each concept. When you see that map during the experiment, please rate it near the 'not at all' endpoint
                    of the scale.<br>
                    Please use the full range of the scale. That is, if a map is somewhat associated with the concept, you would
                    click partway between the middle point and right side of the scale.                    You will be asked to rate each map for a given concept before moving on to the next concept.<br><br>Press the
                    'Continue' button for instructions on how to use the slider.                    <br><br>
                </div>

                <div style=""width: 500px; margin: 0 auto;"">
                    <!-- Centered text paragraphs -->
                    <div style=""text-align: center; width: 500px;"">
                        <p style=""font-size:25px; line-height:18px;"">calm</p>
                        <p style=""font-size:25px; line-height:18px;"">exciting</p>
                        <p style=""font-size:25px;line-height:18px;"">positive</p>
                        <p style=""font-size:25px;line-height:18px;"">negative</p>
                        <p style=""font-size:25px;line-height:18px;"">serious</p>
                        <p style=""font-size:25px;line-height:18px;"">playful</p>
                        <p style=""font-size:25px;line-height:18px;"">trustworthy</p>
                        <p style=""font-size:25px;line-height:18px;"">disturbing</p>
                    </div>

                    <!-- Grid section -->
                   <div style=""display: flex; justify-content: center; padding-top: 15px;"">
                    <div style=""display: grid; grid-template-columns: repeat(8, 80px); grid-gap: 5px; width: auto;"">
                        <img src=""images/B_D_U_02.png"" alt=""map"" style=""width: 100%;""><img src=""images/G_D_U_33.png"" alt=""map"" style=""width: 100%;""><img src=""images/Y_L_U_07.png"" alt=""map"" style=""width: 100%;""><img src=""images/R_D_U_26.png"" alt=""map"" style=""width: 100%;""><img src=""images/G_L_S_27.png"" alt=""map"" style=""width: 100%;""><img src=""images/B_L_S_37.png"" alt=""map"" style=""width: 100%;""><img src=""images/Y_D_U_12.png"" alt=""map"" style=""width: 100%;""><img src=""images/G_L_U_28.png"" alt=""map"" style=""width: 100%;""><img src=""images/R_L_S_13.png"" alt=""map"" style=""width: 100%;""><img src=""images/B_D_S_44.png"" alt=""map"" style=""width: 100%;""><img src=""images/R_L_U_15.png"" alt=""map"" style=""width: 100%;""><img src=""images/R_D_S_23.png"" alt=""map"" style=""width: 100%;""><img src=""images/Y_L_S_05.png"" alt=""map"" style=""width: 100%;""><img src=""images/G_D_S_30.png"" alt=""map"" style=""width: 100%;""><img src=""images/B_L_U_41.png"" alt=""map"" style=""width: 100%;""><img src=""images/Y_D_S_10.png"" alt=""map"" style=""width: 100%;"">
                    </div>
                </div>

                    <!-- Clear floats -->
                    <div style=""clear: both;""></div>
                </div>
                            ","null","","0","maps_anchoring.png","true","","","","","","","","","",""
"","","","","","html-button-response","7","14566599","0.0-7.0","ov4c0zd1oe","5","10568","<div style=""width:800px;""><p style=""text-align:left"">To move the slider, click and drag your cursor to the location of the scale where you would like to make your rating and then let go. When you let go of the slider, your response will be recorded and the next trial will begin. <br>
                    We are interested in your initial impressions of each map for the given concept, so please go with your first intuition. <br>
                    Before you begin the experiment, there will be four training trials for you to practice using the scale. <br>
                     When you are ready to start the training trials, please click ""Continue"".</p><br></div>","0","","","","","","","","","","","","","",""
"","","","","","html-slider-response","8","14572629","0.0-8.0-0.0","ov4c0zd1oe","5","NaN","<div style=""width:500px;"">
                                    <p style=""font-size:25px;"">Please move the slider all the way to the <br> right endpoint of the scale</p>

                                    </div>
                                </div>","200","","0","","true","0","true","","","","","","","",""
"","","","","","html-button-response","9","14574314","0.0-8.0-1.0","ov4c0zd1oe","5","1183","<p align='center'><b>Good job!</b> Click on 'Continue' to proceed.</p>","0","","","","","","","","","","","","","",""
"","","","","","html-slider-response","10","14576460","0.0-9.0-0.0","ov4c0zd1oe","5","NaN","<div style=""width:500px;"">
                                    <p style=""font-size:25px;"">Please move the slider all the way to the <br> left endpoint of the scale</p>

                                    </div>
                                </div>","-200","","0","","true","1","true","","","","","","","",""
"","","","","","html-button-response","11","14577750","0.0-9.0-1.0","ov4c0zd1oe","5","789","<p align='center'><b>Good job!</b> Click on 'Continue' to proceed.</p>","0","","","","","","","","","","","","","",""
"","","","","","html-slider-response","12","14583833","0.0-10.0-0.0","ov4c0zd1oe","5","NaN","<div style=""width:500px;"">
                                    <p style=""font-size:25px;"">Please move the slider halfway between the center and right endpoint of the scale</p>

                                    </div>
                                </div>","107","","0","","true","2","true","","","","","","","",""
"","","","","","html-button-response","13","14585121","0.0-10.0-1.0","ov4c0zd1oe","5","786","<p align='center'><b>Good job!</b> Click on 'Continue' to proceed.</p>","0","","","","","","","","","","","","","",""
"","","","","","html-slider-response","14","14588576","0.0-11.0-0.0","ov4c0zd1oe","5","NaN","<div style=""width:500px;"">
                                    <p style=""font-size:25px;"">Please move the slider halfway between the center and left endpoint of the scale</p>

                                    </div>
                                </div>","-106","","0","","true","3","true","","","","","","","",""
"","","","","","html-button-response","15","14589943","0.0-11.0-1.0","ov4c0zd1oe","5","865","<p align='center'><b>Good job!</b> Click on 'Continue' to proceed.</p>","0","","","","","","","","","","","","","",""
"","","","","","html-button-response","16","14591394","0.0-12.0","ov4c0zd1oe","5","1451","<p>Great job! You've completed the practice trials. Now you will begin the main task.</p>","0","","","","","","","","","","","","","",""
"","","","","","html-button-response","17","14595743","0.0-13.0","ov4c0zd1oe","5","4348","<p>In this block of trials, you will be asked to rate how much you associate each map with:</p > <p style = 'font-size:150%; font-weight: bold'>trustworthy</p><br></br>","0","","","","","","","","","","","","","",""
"","","","","","html-slider-response","18","14603889","0.0-14.0","ov4c0zd1oe","5","NaN","<div style=""width:500px;"">
                            <p style=""font-size:50px; font-weight:bold;""
                            >trustworthy</p>
                            <div style=""width:240px; margin: auto;"">
                                <img src=""images/B_L_S_37.png"" style= ""width:200px""alt=""img"">
                            </div>
                        </div>","-78","","0","images/B_L_S_37.png","","","","trustworthy","1","37","B","L","S","",""
"","","","","","html-slider-response","19","14609643","0.0-15.0","ov4c0zd1oe","5","NaN","<div style=""width:500px;"">
                            <p style=""font-size:50px; font-weight:bold;""
                            >trustworthy</p>
                            <div style=""width:240px; margin: auto;"">
                                <img src=""images/R_L_U_15.png"" style= ""width:200px""alt=""img"">
                            </div>
                        </div>","56","","0","images/R_L_U_15.png","","","","trustworthy","2","15","R","L","U","",""
"","","","","","html-slider-response","20","14613970","0.0-16.0","ov4c0zd1oe","5","NaN","<div style=""width:500px;"">
                            <p style=""font-size:50px; font-weight:bold;""
                            >trustworthy</p>
                            <div style=""width:240px; margin: auto;"">
                                <img src=""images/R_D_S_23.png"" style= ""width:200px""alt=""img"">
                            </div>
                        </div>","-37","","0","images/R_D_S_23.png","","","","trustworthy","1","23","R","D","S","",""
"","","","","","html-slider-response","21","14621471","0.0-17.0","ov4c0zd1oe","5","NaN","<div style=""width:500px;"">
                            <p style=""font-size:50px; font-weight:bold;""
                            >trustworthy</p>
                            <div style=""width:240px; margin: auto;"">
                                <img src=""images/R_D_U_26.png"" style= ""width:200px""alt=""img"">
                            </div>
                        </div>","111","","0","images/R_D_U_26.png","","","","trustworthy","2","26","R","D","U","",""
"","","","","","html-slider-response","22","14625358","0.0-18.0","ov4c0zd1oe","5","NaN","<div style=""width:500px;"">
                            <p style=""font-size:50px; font-weight:bold;""
                            >trustworthy</p>
                            <div style=""width:240px; margin: auto;"">
                                <img src=""images/G_L_S_27.png"" style= ""width:200px""alt=""img"">
                            </div>
                        </div>","148","","0","images/G_L_S_27.png","","","","trustworthy","2","27","G","L","S","",""
"","","","","","html-slider-response","23","14632526","0.0-19.0","ov4c0zd1oe","5","NaN","<div style=""width:500px;"">
                            <p style=""font-size:50px; font-weight:bold;""
                            >trustworthy</p>
                            <div style=""width:240px; margin: auto;"">
                                <img src=""images/B_L_S_37.png"" style= ""width:200px""alt=""img"">
                            </div>
                        </div>","-82","","0","images/B_L_S_37.png","","","","trustworthy","2","37","B","L","S","",""
"","","","","","html-slider-response","24","14636949","0.0-20.0","ov4c0zd1oe","5","NaN","<div style=""width:500px;"">
                            <p style=""font-size:50px; font-weight:bold;""
                            >trustworthy</p>
                            <div style=""width:240px; margin: auto;"">
                                <img src=""images/R_D_S_23.png"" style= ""width:200px""alt=""img"">
                            </div>
                        </div>","-35","","0","images/R_D_S_23.png","","","","trustworthy","2","23","R","D","S","",""
"","","","","","html-slider-response","25","14641420","0.0-21.0","ov4c0zd1oe","5","NaN","<div style=""width:500px;"">
                            <p style=""font-size:50px; font-weight:bold;""
                            >trustworthy</p>
                            <div style=""width:240px; margin: auto;"">
                                <img src=""images/G_L_U_28.png"" style= ""width:200px""alt=""img"">
                            </div>
                        </div>","123","","0","images/G_L_U_28.png","","","","trustworthy","1","28","G","L","U","",""
"","","","","","html-slider-response","26","14644233","0.0-22.0","ov4c0zd1oe","5","NaN","<div style=""width:500px;"">
                            <p style=""font-size:50px; font-weight:bold;""
                            >trustworthy</p>
                            <div style=""width:240px; margin: auto;"">
                                <img src=""images/B_D_U_02.png"" style= ""width:200px""alt=""img"">
                            </div>
                        </div>","-154","","0","images/B_D_U_02.png","","","","trustworthy","2","02","B","D","U","",""
"","","","","","html-slider-response","27","14647295","0.0-23.0","ov4c0zd1oe","5","NaN","<div style=""width:500px;"">
                            <p style=""font-size:50px; font-weight:bold;""
                            >trustworthy</p>
                            <div style=""width:240px; margin: auto;"">
                                <img src=""images/R_D_U_26.png"" style= ""width:200px""alt=""img"">
                            </div>
                        </div>","-41","","0","images/R_D_U_26.png","","","","trustworthy","1","26","R","D","U","",""
"","","","","","html-slider-response","28","14649892","0.0-24.0","ov4c0zd1oe","5","NaN","<div style=""width:500px;"">
                            <p style=""font-size:50px; font-weight:bold;""
                            >trustworthy</p>
                            <div style=""width:240px; margin: auto;"">
                                <img src=""images/G_L_S_27.png"" style= ""width:200px""alt=""img"">
                            </div>
                        </div>","146","","0","images/G_L_S_27.png","","","","trustworthy","1","27","G","L","S","",""
"","","","","","html-slider-response","29","14652370","0.0-25.0","ov4c0zd1oe","5","NaN","<div style=""width:500px;"">
                            <p style=""font-size:50px; font-weight:bold;""
                            >trustworthy</p>
                            <div style=""width:240px; margin: auto;"">
                                <img src=""images/G_D_S_30.png"" style= ""width:200px""alt=""img"">
                            </div>
                        </div>","153","","0","images/G_D_S_30.png","","","","trustworthy","2","30","G","D","S","",""
"","","","","","html-slider-response","30","14658205","0.0-26.0","ov4c0zd1oe","5","NaN","<div style=""width:500px;"">
                            <p style=""font-size:50px; font-weight:bold;""
                            >trustworthy</p>
                            <div style=""width:240px; margin: auto;"">
                                <img src=""images/Y_D_S_10.png"" style= ""width:200px""alt=""img"">
                            </div>
                        </div>","-71","","0","images/Y_D_S_10.png","","","","trustworthy","1","10","Y","D","S","",""
"","","","","","html-slider-response","31","14662564","0.0-27.0","ov4c0zd1oe","5","NaN","<div style=""width:500px;"">
                            <p style=""font-size:50px; font-weight:bold;""
                            >trustworthy</p>
                            <div style=""width:240px; margin: auto;"">
                                <img src=""images/Y_L_U_07.png"" style= ""width:200px""alt=""img"">
                            </div>
                        </div>","60","","0","images/Y_L_U_07.png","","","","trustworthy","1","07","Y","L","U","",""
"","","","","","html-slider-response","32","14666852","0.0-28.0","ov4c0zd1oe","5","NaN","<div style=""width:500px;"">
                            <p style=""font-size:50px; font-weight:bold;""
                            >trustworthy</p>
                            <div style=""width:240px; margin: auto;"">
                                <img src=""images/G_D_S_30.png"" style= ""width:200px""alt=""img"">
                            </div>
                        </div>","77","","0","images/G_D_S_30.png","","","","trustworthy","1","30","G","D","S","",""
"","","","","","html-slider-response","33","14670278","0.0-29.0","ov4c0zd1oe","5","NaN","<div style=""width:500px;"">
                            <p style=""font-size:50px; font-weight:bold;""
                            >trustworthy</p>
                            <div style=""width:240px; margin: auto;"">
                                <img src=""images/R_L_S_13.png"" style= ""width:200px""alt=""img"">
                            </div>
                        </div>","45","","0","images/R_L_S_13.png","","","","trustworthy","1","13","R","L","S","",""
"","","","","","html-slider-response","34","14673578","0.0-30.0","ov4c0zd1oe","5","NaN","<div style=""width:500px;"">
                            <p style=""font-size:50px; font-weight:bold;""
                            >trustworthy</p>
                            <div style=""width:240px; margin: auto;"">
                                <img src=""images/B_L_U_41.png"" style= ""width:200px""alt=""img"">
                            </div>
                        </div>","62","","0","images/B_L_U_41.png","","","","trustworthy","1","41","B","L","U","",""
"","","","","","html-slider-response","35","14676470","0.0-31.0","ov4c0zd1oe","5","NaN","<div style=""width:500px;"">
                            <p style=""font-size:50px; font-weight:bold;""
                            >trustworthy</p>
                            <div style=""width:240px; margin: auto;"">
                                <img src=""images/Y_L_S_05.png"" style= ""width:200px""alt=""img"">
                            </div>
                        </div>","-54","","0","images/Y_L_S_05.png","","","","trustworthy","1","05","Y","L","S","",""
"","","","","","html-slider-response","36","14685445","0.0-32.0","ov4c0zd1oe","5","NaN","<div style=""width:500px;"">
                            <p style=""font-size:50px; font-weight:bold;""
                            >trustworthy</p>
                            <div style=""width:240px; margin: auto;"">
                                <img src=""images/G_D_U_33.png"" style= ""width:200px""alt=""img"">
                            </div>
                        </div>","42","","0","images/G_D_U_33.png","","","","trustworthy","1","33","G","D","U","",""
"","","","","","html-slider-response","37","14688347","0.0-33.0","ov4c0zd1oe","5","NaN","<div style=""width:500px;"">
                            <p style=""font-size:50px; font-weight:bold;""
                            >trustworthy</p>
                            <div style=""width:240px; margin: auto;"">
                                <img src=""images/Y_D_U_12.png"" style= ""width:200px""alt=""img"">
                            </div>
                        </div>","-78","","0","images/Y_D_U_12.png","","","","trustworthy","1","12","Y","D","U","",""
"","","","","","html-slider-response","38","14694540","0.0-34.0","ov4c0zd1oe","5","NaN","<div style=""width:500px;"">
                            <p style=""font-size:50px; font-weight:bold;""
                            >trustworthy</p>
                            <div style=""width:240px; margin: auto;"">
                                <img src=""images/B_D_U_02.png"" style= ""width:200px""alt=""img"">
                            </div>
                        </div>","21","","0","images/B_D_U_02.png","","","","trustworthy","1","02","B","D","U","",""
"","","","","","html-slider-response","39","14699601","0.0-35.0","ov4c0zd1oe","5","NaN","<div style=""width:500px;"">
                            <p style=""font-size:50px; font-weight:bold;""
                            >trustworthy</p>
                            <div style=""width:240px; margin: auto;"">
                                <img src=""images/Y_L_U_07.png"" style= ""width:200px""alt=""img"">
                            </div>
                        </div>","57","","0","images/Y_L_U_07.png","","","","trustworthy","2","07","Y","L","U","",""
"","","","","","html-slider-response","40","14704771","0.0-36.0","ov4c0zd1oe","5","NaN","<div style=""width:500px;"">
                            <p style=""font-size:50px; font-weight:bold;""
                            >trustworthy</p>
                            <div style=""width:240px; margin: auto;"">
                                <img src=""images/G_D_U_33.png"" style= ""width:200px""alt=""img"">
                            </div>
                        </div>","-45","","0","images/G_D_U_33.png","","","","trustworthy","2","33","G","D","U","",""
"","","","","","html-slider-response","41","14707562","0.0-37.0","ov4c0zd1oe","5","NaN","<div style=""width:500px;"">
                            <p style=""font-size:50px; font-weight:bold;""
                            >trustworthy</p>
                            <div style=""width:240px; margin: auto;"">
                                <img src=""images/R_L_S_13.png"" style= ""width:200px""alt=""img"">
                            </div>
                        </div>","38","","0","images/R_L_S_13.png","","","","trustworthy","2","13","R","L","S","",""
"","","","","","html-slider-response","42","14711141","0.0-38.0","ov4c0zd1oe","5","NaN","<div style=""width:500px;"">
                            <p style=""font-size:50px; font-weight:bold;""
                            >trustworthy</p>
                            <div style=""width:240px; margin: auto;"">
                                <img src=""images/G_L_U_28.png"" style= ""width:200px""alt=""img"">
                            </div>
                        </div>","96","","0","images/G_L_U_28.png","","","","trustworthy","2","28","G","L","U","",""
"","","","","","html-slider-response","43","14717158","0.0-39.0","ov4c0zd1oe","5","NaN","<div style=""width:500px;"">
                            <p style=""font-size:50px; font-weight:bold;""
                            >trustworthy</p>
                            <div style=""width:240px; margin: auto;"">
                                <img src=""images/B_D_S_44.png"" style= ""width:200px""alt=""img"">
                            </div>
                        </div>","-78","","0","images/B_D_S_44.png","","","","trustworthy","1","44","B","D","S","",""
"","","","","","html-slider-response","44","14721781","0.0-40.0","ov4c0zd1oe","5","NaN","<div style=""width:500px;"">
                            <p style=""font-size:50px; font-weight:bold;""
                            >trustworthy</p>
                            <div style=""width:240px; margin: auto;"">
                                <img src=""images/B_L_U_41.png"" style= ""width:200px""alt=""img"">
                            </div>
                        </div>","26","","0","images/B_L_U_41.png","","","","trustworthy","2","41","B","L","U","",""
"","","","","","html-slider-response","45","14739875","0.0-41.0","ov4c0zd1oe","5","NaN","<div style=""width:500px;"">
                            <p style=""font-size:50px; font-weight:bold;""
                            >trustworthy</p>
                            <div style=""width:240px; margin: auto;"">
                                <img src=""images/Y_D_U_12.png"" style= ""width:200px""alt=""img"">
                            </div>
                        </div>","50","","0","images/Y_D_U_12.png","","","","trustworthy","2","12","Y","D","U","",""
"","","","","","html-slider-response","46","14743055","0.0-42.0","ov4c0zd1oe","5","NaN","<div style=""width:500px;"">
                            <p style=""font-size:50px; font-weight:bold;""
                            >trustworthy</p>
                            <div style=""width:240px; margin: auto;"">
                                <img src=""images/B_D_S_44.png"" style= ""width:200px""alt=""img"">
                            </div>
                        </div>","-60","","0","images/B_D_S_44.png","","","","trustworthy","2","44","B","D","S","",""
"","","","","","html-slider-response","47","14745797","0.0-43.0","ov4c0zd1oe","5","NaN","<div style=""width:500px;"">
                            <p style=""font-size:50px; font-weight:bold;""
                            >trustworthy</p>
                            <div style=""width:240px; margin: auto;"">
                                <img src=""images/R_L_U_15.png"" style= ""width:200px""alt=""img"">
                            </div>
                        </div>","38","","0","images/R_L_U_15.png","","","","trustworthy","1","15","R","L","U","",""
"","","","","","html-slider-response","48","14748826","0.0-44.0","ov4c0zd1oe","5","NaN","<div style=""width:500px;"">
                            <p style=""font-size:50px; font-weight:bold;""
                            >trustworthy</p>
                            <div style=""width:240px; margin: auto;"">
                                <img src=""images/Y_D_S_10.png"" style= ""width:200px""alt=""img"">
                            </div>
                        </div>","-70","","0","images/Y_D_S_10.png","","","","trustworthy","2","10","Y","D","S","",""
"","","","","","html-slider-response","49","14751925","0.0-45.0","ov4c0zd1oe","5","NaN","<div style=""width:500px;"">
                            <p style=""font-size:50px; font-weight:bold;""
                            >trustworthy</p>
                            <div style=""width:240px; margin: auto;"">
                                <img src=""images/Y_L_S_05.png"" style= ""width:200px""alt=""img"">
                            </div>
                        </div>","64","","0","images/Y_L_S_05.png","","","","trustworthy","2","05","Y","L","S","",""
"","","","","","html-button-response","50","14754816","0.0-46.0","ov4c0zd1oe","5","2391","<p>Great Job! You've finished block 1.<br></br> You have 7 block(s) left to go.<br></br></p>","0","","","","","","","","","","","","","",""
"","","","","","html-button-response","51","14756737","0.0-47.0","ov4c0zd1oe","5","1921","<p>In this block of trials, you will be asked to rate how much you associate each map with:</p > <p style = 'font-size:150%; font-weight: bold'>playful</p><br></br>","0","","","","","","","","","","","","","",""
"","","","","","html-slider-response","52","14759242","0.0-48.0","ov4c0zd1oe","5","NaN","<div style=""width:500px;"">
                            <p style=""font-size:50px; font-weight:bold;""
                            >playful</p>
                            <div style=""width:240px; margin: auto;"">
                                <img src=""images/R_D_S_23.png"" style= ""width:200px""alt=""img"">
                            </div>
                        </div>","173","","0","images/R_D_S_23.png","","","","playful","2","23","R","D","S","",""
"","","","","","html-slider-response","53","14761704","0.0-49.0","ov4c0zd1oe","5","NaN","<div style=""width:500px;"">
                            <p style=""font-size:50px; font-weight:bold;""
                            >playful</p>
                            <div style=""width:240px; margin: auto;"">
                                <img src=""images/Y_D_S_10.png"" style= ""width:200px""alt=""img"">
                            </div>
                        </div>","-156","","0","images/Y_D_S_10.png","","","","playful","2","10","Y","D","S","",""
"","","","","","html-slider-response","54","14764160","0.0-50.0","ov4c0zd1oe","5","NaN","<div style=""width:500px;"">
                            <p style=""font-size:50px; font-weight:bold;""
                            >playful</p>
                            <div style=""width:240px; margin: auto;"">
                                <img src=""images/G_L_S_27.png"" style= ""width:200px""alt=""img"">
                            </div>
                        </div>","143","","0","images/G_L_S_27.png","","","","playful","1","27","G","L","S","",""
"","","","","","html-slider-response","55","14766495","0.0-51.0","ov4c0zd1oe","5","NaN","<div style=""width:500px;"">
                            <p style=""font-size:50px; font-weight:bold;""
                            >playful</p>
                            <div style=""width:240px; margin: auto;"">
                                <img src=""images/B_L_U_41.png"" style= ""width:200px""alt=""img"">
                            </div>
                        </div>","31","","0","images/B_L_U_41.png","","","","playful","1","41","B","L","U","",""
"","","","","","html-slider-response","56","14769757","0.0-52.0","ov4c0zd1oe","5","NaN","<div style=""width:500px;"">
                            <p style=""font-size:50px; font-weight:bold;""
                            >playful</p>
                            <div style=""width:240px; margin: auto;"">
                                <img src=""images/Y_L_U_07.png"" style= ""width:200px""alt=""img"">
                            </div>
                        </div>","31","","0","images/Y_L_U_07.png","","","","playful","2","07","Y","L","U","",""
"","","","","","html-slider-response","57","14772075","0.0-53.0","ov4c0zd1oe","5","NaN","<div style=""width:500px;"">
                            <p style=""font-size:50px; font-weight:bold;""
                            >playful</p>
                            <div style=""width:240px; margin: auto;"">
                                <img src=""images/B_D_U_02.png"" style= ""width:200px""alt=""img"">
                            </div>
                        </div>","-112","","0","images/B_D_U_02.png","","","","playful","2","02","B","D","U","",""
"","","","","","html-slider-response","58","14774865","0.0-54.0","ov4c0zd1oe","5","NaN","<div style=""width:500px;"">
                            <p style=""font-size:50px; font-weight:bold;""
                            >playful</p>
                            <div style=""width:240px; margin: auto;"">
                                <img src=""images/G_L_U_28.png"" style= ""width:200px""alt=""img"">
                            </div>
                        </div>","132","","0","images/G_L_U_28.png","","","","playful","1","28","G","L","U","",""
"","","","","","html-slider-response","59","14777105","0.0-55.0","ov4c0zd1oe","5","NaN","<div style=""width:500px;"">
                            <p style=""font-size:50px; font-weight:bold;""
                            >playful</p>
                            <div style=""width:240px; margin: auto;"">
                                <img src=""images/Y_D_S_10.png"" style= ""width:200px""alt=""img"">
                            </div>
                        </div>","-136","","0","images/Y_D_S_10.png","","","","playful","1","10","Y","D","S","",""
"","","","","","html-slider-response","60","14779145","0.0-56.0","ov4c0zd1oe","5","NaN","<div style=""width:500px;"">
                            <p style=""font-size:50px; font-weight:bold;""
                            >playful</p>
                            <div style=""width:240px; margin: auto;"">
                                <img src=""images/R_D_U_26.png"" style= ""width:200px""alt=""img"">
                            </div>
                        </div>","-37","","0","images/R_D_U_26.png","","","","playful","2","26","R","D","U","",""
"","","","","","html-slider-response","61","14781743","0.0-57.0","ov4c0zd1oe","5","NaN","<div style=""width:500px;"">
                            <p style=""font-size:50px; font-weight:bold;""
                            >playful</p>
                            <div style=""width:240px; margin: auto;"">
                                <img src=""images/G_D_S_30.png"" style= ""width:200px""alt=""img"">
                            </div>
                        </div>","-9","","0","images/G_D_S_30.png","","","","playful","1","30","G","D","S","",""
"","","","","","html-slider-response","62","14784525","0.0-58.0","ov4c0zd1oe","5","NaN","<div style=""width:500px;"">
                            <p style=""font-size:50px; font-weight:bold;""
                            >playful</p>
                            <div style=""width:240px; margin: auto;"">
                                <img src=""images/Y_L_S_05.png"" style= ""width:200px""alt=""img"">
                            </div>
                        </div>","30","","0","images/Y_L_S_05.png","","","","playful","2","05","Y","L","S","",""
"","","","","","html-slider-response","63","14786597","0.0-59.0","ov4c0zd1oe","5","NaN","<div style=""width:500px;"">
                            <p style=""font-size:50px; font-weight:bold;""
                            >playful</p>
                            <div style=""width:240px; margin: auto;"">
                                <img src=""images/G_L_S_27.png"" style= ""width:200px""alt=""img"">
                            </div>
                        </div>","163","","0","images/G_L_S_27.png","","","","playful","2","27","G","L","S","",""
"","","","","","html-slider-response","64","14788717","0.0-60.0","ov4c0zd1oe","5","NaN","<div style=""width:500px;"">
                            <p style=""font-size:50px; font-weight:bold;""
                            >playful</p>
                            <div style=""width:240px; margin: auto;"">
                                <img src=""images/G_D_U_33.png"" style= ""width:200px""alt=""img"">
                            </div>
                        </div>","-66","","0","images/G_D_U_33.png","","","","playful","1","33","G","D","U","",""
"","","","","","html-slider-response","65","14792392","0.0-61.0","ov4c0zd1oe","5","NaN","<div style=""width:500px;"">
                            <p style=""font-size:50px; font-weight:bold;""
                            >playful</p>
                            <div style=""width:240px; margin: auto;"">
                                <img src=""images/B_D_S_44.png"" style= ""width:200px""alt=""img"">
                            </div>
                        </div>","0","","0","images/B_D_S_44.png","","","","playful","2","44","B","D","S","",""
"","","","","","html-slider-response","66","14795501","0.0-62.0","ov4c0zd1oe","5","NaN","<div style=""width:500px;"">
                            <p style=""font-size:50px; font-weight:bold;""
                            >playful</p>
                            <div style=""width:240px; margin: auto;"">
                                <img src=""images/G_D_S_30.png"" style= ""width:200px""alt=""img"">
                            </div>
                        </div>","-14","","0","images/G_D_S_30.png","","","","playful","2","30","G","D","S","",""
"","","","","","html-slider-response","67","14797684","0.0-63.0","ov4c0zd1oe","5","NaN","<div style=""width:500px;"">
                            <p style=""font-size:50px; font-weight:bold;""
                            >playful</p>
                            <div style=""width:240px; margin: auto;"">
                                <img src=""images/R_L_U_15.png"" style= ""width:200px""alt=""img"">
                            </div>
                        </div>","200","","0","images/R_L_U_15.png","","","","playful","1","15","R","L","U","",""
"","","","","","html-slider-response","68","14799981","0.0-64.0","ov4c0zd1oe","5","NaN","<div style=""width:500px;"">
                            <p style=""font-size:50px; font-weight:bold;""
                            >playful</p>
                            <div style=""width:240px; margin: auto;"">
                                <img src=""images/B_L_S_37.png"" style= ""width:200px""alt=""img"">
                            </div>
                        </div>","142","","0","images/B_L_S_37.png","","","","playful","1","37","B","L","S","",""
"","","","","","html-slider-response","69","14802044","0.0-65.0","ov4c0zd1oe","5","NaN","<div style=""width:500px;"">
                            <p style=""font-size:50px; font-weight:bold;""
                            >playful</p>
                            <div style=""width:240px; margin: auto;"">
                                <img src=""images/G_L_U_28.png"" style= ""width:200px""alt=""img"">
                            </div>
                        </div>","164","","0","images/G_L_U_28.png","","","","playful","2","28","G","L","U","",""
"","","","","","html-slider-response","70","14804316","0.0-66.0","ov4c0zd1oe","5","NaN","<div style=""width:500px;"">
                            <p style=""font-size:50px; font-weight:bold;""
                            >playful</p>
                            <div style=""width:240px; margin: auto;"">
                                <img src=""images/B_L_U_41.png"" style= ""width:200px""alt=""img"">
                            </div>
                        </div>","135","","0","images/B_L_U_41.png","","","","playful","2","41","B","L","U","",""
"","","","","","html-slider-response","71","14807848","0.0-67.0","ov4c0zd1oe","5","NaN","<div style=""width:500px;"">
                            <p style=""font-size:50px; font-weight:bold;""
                            >playful</p>
                            <div style=""width:240px; margin: auto;"">
                                <img src=""images/Y_L_S_05.png"" style= ""width:200px""alt=""img"">
                            </div>
                        </div>","119","","0","images/Y_L_S_05.png","","","","playful","1","05","Y","L","S","",""
"","","","","","html-slider-response","72","14810940","0.0-68.0","ov4c0zd1oe","5","NaN","<div style=""width:500px;"">
                            <p style=""font-size:50px; font-weight:bold;""
                            >playful</p>
                            <div style=""width:240px; margin: auto;"">
                                <img src=""images/B_D_S_44.png"" style= ""width:200px""alt=""img"">
                            </div>
                        </div>","31","","0","images/B_D_S_44.png","","","","playful","1","44","B","D","S","",""
"","","","","","html-slider-response","73","14813180","0.0-69.0","ov4c0zd1oe","5","NaN","<div style=""width:500px;"">
                            <p style=""font-size:50px; font-weight:bold;""
                            >playful</p>
                            <div style=""width:240px; margin: auto;"">
                                <img src=""images/B_D_U_02.png"" style= ""width:200px""alt=""img"">
                            </div>
                        </div>","-46","","0","images/B_D_U_02.png","","","","playful","1","02","B","D","U","",""
"","","","","","html-slider-response","74","14815260","0.0-70.0","ov4c0zd1oe","5","NaN","<div style=""width:500px;"">
                            <p style=""font-size:50px; font-weight:bold;""
                            >playful</p>
                            <div style=""width:240px; margin: auto;"">
                                <img src=""images/R_L_S_13.png"" style= ""width:200px""alt=""img"">
                            </div>
                        </div>","200","","0","images/R_L_S_13.png","","","","playful","1","13","R","L","S","",""
"","","","","","html-slider-response","75","14817459","0.0-71.0","ov4c0zd1oe","5","NaN","<div style=""width:500px;"">
                            <p style=""font-size:50px; font-weight:bold;""
                            >playful</p>
                            <div style=""width:240px; margin: auto;"">
                                <img src=""images/Y_L_U_07.png"" style= ""width:200px""alt=""img"">
                            </div>
                        </div>","50","","0","images/Y_L_U_07.png","","","","playful","1","07","Y","L","U","",""
"","","","","","html-slider-response","76","14821205","0.0-72.0","ov4c0zd1oe","5","NaN","<div style=""width:500px;"">
                            <p style=""font-size:50px; font-weight:bold;""
                            >playful</p>
                            <div style=""width:240px; margin: auto;"">
                                <img src=""images/R_D_S_23.png"" style= ""width:200px""alt=""img"">
                            </div>
                        </div>","51","","0","images/R_D_S_23.png","","","","playful","1","23","R","D","S","",""
"","","","","","html-slider-response","77","14823126","0.0-73.0","ov4c0zd1oe","5","NaN","<div style=""width:500px;"">
                            <p style=""font-size:50px; font-weight:bold;""
                            >playful</p>
                            <div style=""width:240px; margin: auto;"">
                                <img src=""images/R_L_S_13.png"" style= ""width:200px""alt=""img"">
                            </div>
                        </div>","154","","0","images/R_L_S_13.png","","","","playful","2","13","R","L","S","",""
"","","","","","html-slider-response","78","14825222","0.0-74.0","ov4c0zd1oe","5","NaN","<div style=""width:500px;"">
                            <p style=""font-size:50px; font-weight:bold;""
                            >playful</p>
                            <div style=""width:240px; margin: auto;"">
                                <img src=""images/B_L_S_37.png"" style= ""width:200px""alt=""img"">
                            </div>
                        </div>","120","","0","images/B_L_S_37.png","","","","playful","2","37","B","L","S","",""
"","","","","","html-slider-response","79","14827527","0.0-75.0","ov4c0zd1oe","5","NaN","<div style=""width:500px;"">
                            <p style=""font-size:50px; font-weight:bold;""
                            >playful</p>
                            <div style=""width:240px; margin: auto;"">
                                <img src=""images/R_L_U_15.png"" style= ""width:200px""alt=""img"">
                            </div>
                        </div>","105","","0","images/R_L_U_15.png","","","","playful","2","15","R","L","U","",""
"","","","","","html-slider-response","80","14830086","0.0-76.0","ov4c0zd1oe","5","NaN","<div style=""width:500px;"">
                            <p style=""font-size:50px; font-weight:bold;""
                            >playful</p>
                            <div style=""width:240px; margin: auto;"">
                                <img src=""images/G_D_U_33.png"" style= ""width:200px""alt=""img"">
                            </div>
                        </div>","-46","","0","images/G_D_U_33.png","","","","playful","2","33","G","D","U","",""
"","","","","","html-slider-response","81","14833400","0.0-77.0","ov4c0zd1oe","5","NaN","<div style=""width:500px;"">
                            <p style=""font-size:50px; font-weight:bold;""
                            >playful</p>
                            <div style=""width:240px; margin: auto;"">
                                <img src=""images/R_D_U_26.png"" style= ""width:200px""alt=""img"">
                            </div>
                        </div>","-109","","0","images/R_D_U_26.png","","","","playful","1","26","R","D","U","",""
"","","","","","html-slider-response","82","14835688","0.0-78.0","ov4c0zd1oe","5","NaN","<div style=""width:500px;"">
                            <p style=""font-size:50px; font-weight:bold;""
                            >playful</p>
                            <div style=""width:240px; margin: auto;"">
                                <img src=""images/Y_D_U_12.png"" style= ""width:200px""alt=""img"">
                            </div>
                        </div>","-200","","0","images/Y_D_U_12.png","","","","playful","1","12","Y","D","U","",""
"","","","","","html-slider-response","83","14837577","0.0-79.0","ov4c0zd1oe","5","NaN","<div style=""width:500px;"">
                            <p style=""font-size:50px; font-weight:bold;""
                            >playful</p>
                            <div style=""width:240px; margin: auto;"">
                                <img src=""images/Y_D_U_12.png"" style= ""width:200px""alt=""img"">
                            </div>
                        </div>","-200","","0","images/Y_D_U_12.png","","","","playful","2","12","Y","D","U","",""
"","","","","","html-button-response","84","14840478","0.0-80.0","ov4c0zd1oe","5","2400","<p>Great Job! You've finished block 2.<br></br> You have 6 block(s) left to go.<br></br></p>","0","","","","","","","","","","","","","",""
"","","","","","html-button-response","85","14844249","0.0-81.0","ov4c0zd1oe","5","3771","<p>In this block of trials, you will be asked to rate how much you associate each map with:</p > <p style = 'font-size:150%; font-weight: bold'>serious</p><br></br>","0","","","","","","","","","","","","","",""
"","","","","","html-slider-response","86","14846356","0.0-82.0","ov4c0zd1oe","5","NaN","<div style=""width:500px;"">
                            <p style=""font-size:50px; font-weight:bold;""
                            >serious</p>
                            <div style=""width:240px; margin: auto;"">
                                <img src=""images/R_D_S_23.png"" style= ""width:200px""alt=""img"">
                            </div>
                        </div>","-114","","0","images/R_D_S_23.png","","","","serious","1","23","R","D","S","",""
"","","","","","html-slider-response","87","14849169","0.0-83.0","ov4c0zd1oe","5","NaN","<div style=""width:500px;"">
                            <p style=""font-size:50px; font-weight:bold;""
                            >serious</p>
                            <div style=""width:240px; margin: auto;"">
                                <img src=""images/G_D_S_30.png"" style= ""width:200px""alt=""img"">
                            </div>
                        </div>","-88","","0","images/G_D_S_30.png","","","","serious","2","30","G","D","S","",""
"","","","","","html-slider-response","88","14852413","0.0-84.0","ov4c0zd1oe","5","NaN","<div style=""width:500px;"">
                            <p style=""font-size:50px; font-weight:bold;""
                            >serious</p>
                            <div style=""width:240px; margin: auto;"">
                                <img src=""images/Y_D_S_10.png"" style= ""width:200px""alt=""img"">
                            </div>
                        </div>","72","","0","images/Y_D_S_10.png","","","","serious","2","10","Y","D","S","",""
"","","","","","html-slider-response","89","14855533","0.0-85.0","ov4c0zd1oe","5","NaN","<div style=""width:500px;"">
                            <p style=""font-size:50px; font-weight:bold;""
                            >serious</p>
                            <div style=""width:240px; margin: auto;"">
                                <img src=""images/B_D_S_44.png"" style= ""width:200px""alt=""img"">
                            </div>
                        </div>","-35","","0","images/B_D_S_44.png","","","","serious","1","44","B","D","S","",""
"","","","","","html-slider-response","90","14857626","0.0-86.0","ov4c0zd1oe","5","NaN","<div style=""width:500px;"">
                            <p style=""font-size:50px; font-weight:bold;""
                            >serious</p>
                            <div style=""width:240px; margin: auto;"">
                                <img src=""images/Y_D_U_12.png"" style= ""width:200px""alt=""img"">
                            </div>
                        </div>","200","","0","images/Y_D_U_12.png","","","","serious","1","12","Y","D","U","",""
"","","","","","html-slider-response","91","14863253","0.0-87.0","ov4c0zd1oe","5","NaN","<div style=""width:500px;"">
                            <p style=""font-size:50px; font-weight:bold;""
                            >serious</p>
                            <div style=""width:240px; margin: auto;"">
                                <img src=""images/R_L_S_13.png"" style= ""width:200px""alt=""img"">
                            </div>
                        </div>","-200","","0","images/R_L_S_13.png","","","","serious","2","13","R","L","S","",""
"","","","","","html-slider-response","92","14865540","0.0-88.0","ov4c0zd1oe","5","NaN","<div style=""width:500px;"">
                            <p style=""font-size:50px; font-weight:bold;""
                            >serious</p>
                            <div style=""width:240px; margin: auto;"">
                                <img src=""images/R_D_U_26.png"" style= ""width:200px""alt=""img"">
                            </div>
                        </div>","34","","0","images/R_D_U_26.png","","","","serious","1","26","R","D","U","",""
"","","","","","html-slider-response","93","14868066","0.0-89.0","ov4c0zd1oe","5","NaN","<div style=""width:500px;"">
                            <p style=""font-size:50px; font-weight:bold;""
                            >serious</p>
                            <div style=""width:240px; margin: auto;"">
                                <img src=""images/B_L_S_37.png"" style= ""width:200px""alt=""img"">
                            </div>
                        </div>","-46","","0","images/B_L_S_37.png","","","","serious","1","37","B","L","S","",""
"","","","","","html-slider-response","94","14870570","0.0-90.0","ov4c0zd1oe","5","NaN","<div style=""width:500px;"">
                            <p style=""font-size:50px; font-weight:bold;""
                            >serious</p>
                            <div style=""width:240px; margin: auto;"">
                                <img src=""images/R_L_S_13.png"" style= ""width:200px""alt=""img"">
                            </div>
                        </div>","-172","","0","images/R_L_S_13.png","","","","serious","1","13","R","L","S","",""
"","","","","","html-slider-response","95","14873600","0.0-91.0","ov4c0zd1oe","5","NaN","<div style=""width:500px;"">
                            <p style=""font-size:50px; font-weight:bold;""
                            >serious</p>
                            <div style=""width:240px; margin: auto;"">
                                <img src=""images/B_D_S_44.png"" style= ""width:200px""alt=""img"">
                            </div>
                        </div>","24","","0","images/B_D_S_44.png","","","","serious","2","44","B","D","S","",""
"","","","","","html-slider-response","96","14875990","0.0-92.0","ov4c0zd1oe","5","NaN","<div style=""width:500px;"">
                            <p style=""font-size:50px; font-weight:bold;""
                            >serious</p>
                            <div style=""width:240px; margin: auto;"">
                                <img src=""images/R_D_U_26.png"" style= ""width:200px""alt=""img"">
                            </div>
                        </div>","81","","0","images/R_D_U_26.png","","","","serious","2","26","R","D","U","",""
"","","","","","html-slider-response","97","14878310","0.0-93.0","ov4c0zd1oe","5","NaN","<div style=""width:500px;"">
                            <p style=""font-size:50px; font-weight:bold;""
                            >serious</p>
                            <div style=""width:240px; margin: auto;"">
                                <img src=""images/Y_D_U_12.png"" style= ""width:200px""alt=""img"">
                            </div>
                        </div>","166","","0","images/Y_D_U_12.png","","","","serious","2","12","Y","D","U","",""
"","","","","","html-slider-response","98","14880885","0.0-94.0","ov4c0zd1oe","5","NaN","<div style=""width:500px;"">
                            <p style=""font-size:50px; font-weight:bold;""
                            >serious</p>
                            <div style=""width:240px; margin: auto;"">
                                <img src=""images/Y_L_S_05.png"" style= ""width:200px""alt=""img"">
                            </div>
                        </div>","-25","","0","images/Y_L_S_05.png","","","","serious","2","05","Y","L","S","",""
"","","","","","html-slider-response","99","14883243","0.0-95.0","ov4c0zd1oe","5","NaN","<div style=""width:500px;"">
                            <p style=""font-size:50px; font-weight:bold;""
                            >serious</p>
                            <div style=""width:240px; margin: auto;"">
                                <img src=""images/B_D_U_02.png"" style= ""width:200px""alt=""img"">
                            </div>
                        </div>","74","","0","images/B_D_U_02.png","","","","serious","2","02","B","D","U","",""
"","","","","","html-slider-response","100","14886163","0.0-96.0","ov4c0zd1oe","5","NaN","<div style=""width:500px;"">
                            <p style=""font-size:50px; font-weight:bold;""
                            >serious</p>
                            <div style=""width:240px; margin: auto;"">
                                <img src=""images/B_L_U_41.png"" style= ""width:200px""alt=""img"">
                            </div>
                        </div>","-21","","0","images/B_L_U_41.png","","","","serious","1","41","B","L","U","",""
"","","","","","html-slider-response","101","14888665","0.0-97.0","ov4c0zd1oe","5","NaN","<div style=""width:500px;"">
                            <p style=""font-size:50px; font-weight:bold;""
                            >serious</p>
                            <div style=""width:240px; margin: auto;"">
                                <img src=""images/R_L_U_15.png"" style= ""width:200px""alt=""img"">
                            </div>
                        </div>","-22","","0","images/R_L_U_15.png","","","","serious","1","15","R","L","U","",""
"","","","","","html-slider-response","102","14890776","0.0-98.0","ov4c0zd1oe","5","NaN","<div style=""width:500px;"">
                            <p style=""font-size:50px; font-weight:bold;""
                            >serious</p>
                            <div style=""width:240px; margin: auto;"">
                                <img src=""images/G_L_S_27.png"" style= ""width:200px""alt=""img"">
                            </div>
                        </div>","-106","","0","images/G_L_S_27.png","","","","serious","2","27","G","L","S","",""
"","","","","","html-slider-response","103","14892657","0.0-99.0","ov4c0zd1oe","5","NaN","<div style=""width:500px;"">
                            <p style=""font-size:50px; font-weight:bold;""
                            >serious</p>
                            <div style=""width:240px; margin: auto;"">
                                <img src=""images/G_L_U_28.png"" style= ""width:200px""alt=""img"">
                            </div>
                        </div>","-97","","0","images/G_L_U_28.png","","","","serious","1","28","G","L","U","",""
"","","","","","html-slider-response","104","14894698","0.0-100.0","ov4c0zd1oe","5","NaN","<div style=""width:500px;"">
                            <p style=""font-size:50px; font-weight:bold;""
                            >serious</p>
                            <div style=""width:240px; margin: auto;"">
                                <img src=""images/Y_D_S_10.png"" style= ""width:200px""alt=""img"">
                            </div>
                        </div>","123","","0","images/Y_D_S_10.png","","","","serious","1","10","Y","D","S","",""
"","","","","","html-slider-response","105","14897440","0.0-101.0","ov4c0zd1oe","5","NaN","<div style=""width:500px;"">
                            <p style=""font-size:50px; font-weight:bold;""
                            >serious</p>
                            <div style=""width:240px; margin: auto;"">
                                <img src=""images/B_L_U_41.png"" style= ""width:200px""alt=""img"">
                            </div>
                        </div>","28","","0","images/B_L_U_41.png","","","","serious","2","41","B","L","U","",""
"","","","","","html-slider-response","106","14899735","0.0-102.0","ov4c0zd1oe","5","NaN","<div style=""width:500px;"">
                            <p style=""font-size:50px; font-weight:bold;""
                            >serious</p>
                            <div style=""width:240px; margin: auto;"">
                                <img src=""images/G_D_U_33.png"" style= ""width:200px""alt=""img"">
                            </div>
                        </div>","64","","0","images/G_D_U_33.png","","","","serious","1","33","G","D","U","",""
"","","","","","html-slider-response","107","14902469","0.0-103.0","ov4c0zd1oe","5","NaN","<div style=""width:500px;"">
                            <p style=""font-size:50px; font-weight:bold;""
                            >serious</p>
                            <div style=""width:240px; margin: auto;"">
                                <img src=""images/B_L_S_37.png"" style= ""width:200px""alt=""img"">
                            </div>
                        </div>","-23","","0","images/B_L_S_37.png","","","","serious","2","37","B","L","S","",""
"","","","","","html-slider-response","108","14904786","0.0-104.0","ov4c0zd1oe","5","NaN","<div style=""width:500px;"">
                            <p style=""font-size:50px; font-weight:bold;""
                            >serious</p>
                            <div style=""width:240px; margin: auto;"">
                                <img src=""images/G_D_U_33.png"" style= ""width:200px""alt=""img"">
                            </div>
                        </div>","28","","0","images/G_D_U_33.png","","","","serious","2","33","G","D","U","",""
"","","","","","html-slider-response","109","14907794","0.0-105.0","ov4c0zd1oe","5","NaN","<div style=""width:500px;"">
                            <p style=""font-size:50px; font-weight:bold;""
                            >serious</p>
                            <div style=""width:240px; margin: auto;"">
                                <img src=""images/G_D_S_30.png"" style= ""width:200px""alt=""img"">
                            </div>
                        </div>","-56","","0","images/G_D_S_30.png","","","","serious","1","30","G","D","S","",""
"","","","","","html-slider-response","110","14910056","0.0-106.0","ov4c0zd1oe","5","NaN","<div style=""width:500px;"">
                            <p style=""font-size:50px; font-weight:bold;""
                            >serious</p>
                            <div style=""width:240px; margin: auto;"">
                                <img src=""images/B_D_U_02.png"" style= ""width:200px""alt=""img"">
                            </div>
                        </div>","74","","0","images/B_D_U_02.png","","","","serious","1","02","B","D","U","",""
"","","","","","html-slider-response","111","14913942","0.0-107.0","ov4c0zd1oe","5","NaN","<div style=""width:500px;"">
                            <p style=""font-size:50px; font-weight:bold;""
                            >serious</p>
                            <div style=""width:240px; margin: auto;"">
                                <img src=""images/Y_L_S_05.png"" style= ""width:200px""alt=""img"">
                            </div>
                        </div>","120","","0","images/Y_L_S_05.png","","","","serious","1","05","Y","L","S","",""
"","","","","","html-slider-response","112","14919614","0.0-108.0","ov4c0zd1oe","5","NaN","<div style=""width:500px;"">
                            <p style=""font-size:50px; font-weight:bold;""
                            >serious</p>
                            <div style=""width:240px; margin: auto;"">
                                <img src=""images/R_L_U_15.png"" style= ""width:200px""alt=""img"">
                            </div>
                        </div>","-76","","0","images/R_L_U_15.png","","","","serious","2","15","R","L","U","",""
"","","","","","html-slider-response","113","14921607","0.0-109.0","ov4c0zd1oe","5","NaN","<div style=""width:500px;"">
                            <p style=""font-size:50px; font-weight:bold;""
                            >serious</p>
                            <div style=""width:240px; margin: auto;"">
                                <img src=""images/G_L_S_27.png"" style= ""width:200px""alt=""img"">
                            </div>
                        </div>","-131","","0","images/G_L_S_27.png","","","","serious","1","27","G","L","S","",""
"","","","","","html-slider-response","114","14925177","0.0-110.0","ov4c0zd1oe","5","NaN","<div style=""width:500px;"">
                            <p style=""font-size:50px; font-weight:bold;""
                            >serious</p>
                            <div style=""width:240px; margin: auto;"">
                                <img src=""images/Y_L_U_07.png"" style= ""width:200px""alt=""img"">
                            </div>
                        </div>","146","","0","images/Y_L_U_07.png","","","","serious","2","07","Y","L","U","",""
"","","","","","html-slider-response","115","14926946","0.0-111.0","ov4c0zd1oe","5","NaN","<div style=""width:500px;"">
                            <p style=""font-size:50px; font-weight:bold;""
                            >serious</p>
                            <div style=""width:240px; margin: auto;"">
                                <img src=""images/Y_L_U_07.png"" style= ""width:200px""alt=""img"">
                            </div>
                        </div>","92","","0","images/Y_L_U_07.png","","","","serious","1","07","Y","L","U","",""
"","","","","","html-slider-response","116","14928953","0.0-112.0","ov4c0zd1oe","5","NaN","<div style=""width:500px;"">
                            <p style=""font-size:50px; font-weight:bold;""
                            >serious</p>
                            <div style=""width:240px; margin: auto;"">
                                <img src=""images/R_D_S_23.png"" style= ""width:200px""alt=""img"">
                            </div>
                        </div>","-94","","0","images/R_D_S_23.png","","","","serious","2","23","R","D","S","",""
"","","","","","html-slider-response","117","14931472","0.0-113.0","ov4c0zd1oe","5","NaN","<div style=""width:500px;"">
                            <p style=""font-size:50px; font-weight:bold;""
                            >serious</p>
                            <div style=""width:240px; margin: auto;"">
                                <img src=""images/G_L_U_28.png"" style= ""width:200px""alt=""img"">
                            </div>
                        </div>","-41","","0","images/G_L_U_28.png","","","","serious","2","28","G","L","U","",""
"","","","","","html-button-response","118","14932905","0.0-114.0","ov4c0zd1oe","5","931","<p>Great Job! You've finished block 3.<br></br> You have 5 block(s) left to go.<br></br></p>","0","","","","","","","","","","","","","",""
"","","","","","html-button-response","119","14934222","0.0-115.0","ov4c0zd1oe","5","1317","<p>In this block of trials, you will be asked to rate how much you associate each map with:</p > <p style = 'font-size:150%; font-weight: bold'>calm</p><br></br>","0","","","","","","","","","","","","","",""
"","","","","","html-slider-response","120","14935920","0.0-116.0","ov4c0zd1oe","5","NaN","<div style=""width:500px;"">
                            <p style=""font-size:50px; font-weight:bold;""
                            >calm</p>
                            <div style=""width:240px; margin: auto;"">
                                <img src=""images/G_L_S_27.png"" style= ""width:200px""alt=""img"">
                            </div>
                        </div>","-86","","0","images/G_L_S_27.png","","","","calm","2","27","G","L","S","",""
"","","","","","html-slider-response","121","14938072","0.0-117.0","ov4c0zd1oe","5","NaN","<div style=""width:500px;"">
                            <p style=""font-size:50px; font-weight:bold;""
                            >calm</p>
                            <div style=""width:240px; margin: auto;"">
                                <img src=""images/R_L_S_13.png"" style= ""width:200px""alt=""img"">
                            </div>
                        </div>","-151","","0","images/R_L_S_13.png","","","","calm","1","13","R","L","S","",""
"","","","","","html-slider-response","122","14940326","0.0-118.0","ov4c0zd1oe","5","NaN","<div style=""width:500px;"">
                            <p style=""font-size:50px; font-weight:bold;""
                            >calm</p>
                            <div style=""width:240px; margin: auto;"">
                                <img src=""images/R_D_S_23.png"" style= ""width:200px""alt=""img"">
                            </div>
                        </div>","-82","","0","images/R_D_S_23.png","","","","calm","1","23","R","D","S","",""
"","","","","","html-slider-response","123","14943715","0.0-119.0","ov4c0zd1oe","5","NaN","<div style=""width:500px;"">
                            <p style=""font-size:50px; font-weight:bold;""
                            >calm</p>
                            <div style=""width:240px; margin: auto;"">
                                <img src=""images/Y_D_U_12.png"" style= ""width:200px""alt=""img"">
                            </div>
                        </div>","200","","0","images/Y_D_U_12.png","","","","calm","2","12","Y","D","U","",""
"","","","","","html-slider-response","124","14945660","0.0-120.0","ov4c0zd1oe","5","NaN","<div style=""width:500px;"">
                            <p style=""font-size:50px; font-weight:bold;""
                            >calm</p>
                            <div style=""width:240px; margin: auto;"">
                                <img src=""images/B_L_S_37.png"" style= ""width:200px""alt=""img"">
                            </div>
                        </div>","-108","","0","images/B_L_S_37.png","","","","calm","1","37","B","L","S","",""
"","","","","","html-slider-response","125","14947956","0.0-121.0","ov4c0zd1oe","5","NaN","<div style=""width:500px;"">
                            <p style=""font-size:50px; font-weight:bold;""
                            >calm</p>
                            <div style=""width:240px; margin: auto;"">
                                <img src=""images/R_D_U_26.png"" style= ""width:200px""alt=""img"">
                            </div>
                        </div>","-22","","0","images/R_D_U_26.png","","","","calm","2","26","R","D","U","",""
"","","","","","html-slider-response","126","14953312","0.0-122.0","ov4c0zd1oe","5","NaN","<div style=""width:500px;"">
                            <p style=""font-size:50px; font-weight:bold;""
                            >calm</p>
                            <div style=""width:240px; margin: auto;"">
                                <img src=""images/R_L_U_15.png"" style= ""width:200px""alt=""img"">
                            </div>
                        </div>","51","","0","images/R_L_U_15.png","","","","calm","1","15","R","L","U","",""
"","","","","","html-slider-response","127","14955862","0.0-123.0","ov4c0zd1oe","5","NaN","<div style=""width:500px;"">
                            <p style=""font-size:50px; font-weight:bold;""
                            >calm</p>
                            <div style=""width:240px; margin: auto;"">
                                <img src=""images/G_D_U_33.png"" style= ""width:200px""alt=""img"">
                            </div>
                        </div>","78","","0","images/G_D_U_33.png","","","","calm","2","33","G","D","U","",""
"","","","","","html-slider-response","128","14957871","0.0-124.0","ov4c0zd1oe","5","NaN","<div style=""width:500px;"">
                            <p style=""font-size:50px; font-weight:bold;""
                            >calm</p>
                            <div style=""width:240px; margin: auto;"">
                                <img src=""images/G_D_S_30.png"" style= ""width:200px""alt=""img"">
                            </div>
                        </div>","-86","","0","images/G_D_S_30.png","","","","calm","1","30","G","D","S","",""
"","","","","","html-slider-response","129","14960094","0.0-125.0","ov4c0zd1oe","5","NaN","<div style=""width:500px;"">
                            <p style=""font-size:50px; font-weight:bold;""
                            >calm</p>
                            <div style=""width:240px; margin: auto;"">
                                <img src=""images/B_D_S_44.png"" style= ""width:200px""alt=""img"">
                            </div>
                        </div>","-50","","0","images/B_D_S_44.png","","","","calm","2","44","B","D","S","",""
"","","","","","html-slider-response","130","14962271","0.0-126.0","ov4c0zd1oe","5","NaN","<div style=""width:500px;"">
                            <p style=""font-size:50px; font-weight:bold;""
                            >calm</p>
                            <div style=""width:240px; margin: auto;"">
                                <img src=""images/Y_L_U_07.png"" style= ""width:200px""alt=""img"">
                            </div>
                        </div>","-127","","0","images/Y_L_U_07.png","","","","calm","1","07","Y","L","U","",""
"","","","","","html-slider-response","131","14964376","0.0-127.0","ov4c0zd1oe","5","NaN","<div style=""width:500px;"">
                            <p style=""font-size:50px; font-weight:bold;""
                            >calm</p>
                            <div style=""width:240px; margin: auto;"">
                                <img src=""images/Y_D_S_10.png"" style= ""width:200px""alt=""img"">
                            </div>
                        </div>","98","","0","images/Y_D_S_10.png","","","","calm","1","10","Y","D","S","",""
"","","","","","html-slider-response","132","14966423","0.0-128.0","ov4c0zd1oe","5","NaN","<div style=""width:500px;"">
                            <p style=""font-size:50px; font-weight:bold;""
                            >calm</p>
                            <div style=""width:240px; margin: auto;"">
                                <img src=""images/G_L_S_27.png"" style= ""width:200px""alt=""img"">
                            </div>
                        </div>","-41","","0","images/G_L_S_27.png","","","","calm","1","27","G","L","S","",""
"","","","","","html-slider-response","133","14968326","0.0-129.0","ov4c0zd1oe","5","NaN","<div style=""width:500px;"">
                            <p style=""font-size:50px; font-weight:bold;""
                            >calm</p>
                            <div style=""width:240px; margin: auto;"">
                                <img src=""images/B_L_S_37.png"" style= ""width:200px""alt=""img"">
                            </div>
                        </div>","-160","","0","images/B_L_S_37.png","","","","calm","2","37","B","L","S","",""
"","","","","","html-slider-response","134","14970806","0.0-130.0","ov4c0zd1oe","5","NaN","<div style=""width:500px;"">
                            <p style=""font-size:50px; font-weight:bold;""
                            >calm</p>
                            <div style=""width:240px; margin: auto;"">
                                <img src=""images/Y_L_S_05.png"" style= ""width:200px""alt=""img"">
                            </div>
                        </div>","-142","","0","images/Y_L_S_05.png","","","","calm","2","05","Y","L","S","",""
"","","","","","html-slider-response","135","14972838","0.0-131.0","ov4c0zd1oe","5","NaN","<div style=""width:500px;"">
                            <p style=""font-size:50px; font-weight:bold;""
                            >calm</p>
                            <div style=""width:240px; margin: auto;"">
                                <img src=""images/B_D_U_02.png"" style= ""width:200px""alt=""img"">
                            </div>
                        </div>","82","","0","images/B_D_U_02.png","","","","calm","1","02","B","D","U","",""
"","","","","","html-slider-response","136","14976513","0.0-132.0","ov4c0zd1oe","5","NaN","<div style=""width:500px;"">
                            <p style=""font-size:50px; font-weight:bold;""
                            >calm</p>
                            <div style=""width:240px; margin: auto;"">
                                <img src=""images/Y_D_S_10.png"" style= ""width:200px""alt=""img"">
                            </div>
                        </div>","73","","0","images/Y_D_S_10.png","","","","calm","2","10","Y","D","S","",""
"","","","","","html-slider-response","137","14979063","0.0-133.0","ov4c0zd1oe","5","NaN","<div style=""width:500px;"">
                            <p style=""font-size:50px; font-weight:bold;""
                            >calm</p>
                            <div style=""width:240px; margin: auto;"">
                                <img src=""images/Y_L_U_07.png"" style= ""width:200px""alt=""img"">
                            </div>
                        </div>","-31","","0","images/Y_L_U_07.png","","","","calm","2","07","Y","L","U","",""
"","","","","","html-slider-response","138","14981478","0.0-134.0","ov4c0zd1oe","5","NaN","<div style=""width:500px;"">
                            <p style=""font-size:50px; font-weight:bold;""
                            >calm</p>
                            <div style=""width:240px; margin: auto;"">
                                <img src=""images/B_D_U_02.png"" style= ""width:200px""alt=""img"">
                            </div>
                        </div>","153","","0","images/B_D_U_02.png","","","","calm","2","02","B","D","U","",""
"","","","","","html-slider-response","139","14983788","0.0-135.0","ov4c0zd1oe","5","NaN","<div style=""width:500px;"">
                            <p style=""font-size:50px; font-weight:bold;""
                            >calm</p>
                            <div style=""width:240px; margin: auto;"">
                                <img src=""images/G_D_U_33.png"" style= ""width:200px""alt=""img"">
                            </div>
                        </div>","156","","0","images/G_D_U_33.png","","","","calm","1","33","G","D","U","",""
"","","","","","html-slider-response","140","14986084","0.0-136.0","ov4c0zd1oe","5","NaN","<div style=""width:500px;"">
                            <p style=""font-size:50px; font-weight:bold;""
                            >calm</p>
                            <div style=""width:240px; margin: auto;"">
                                <img src=""images/Y_D_U_12.png"" style= ""width:200px""alt=""img"">
                            </div>
                        </div>","115","","0","images/Y_D_U_12.png","","","","calm","1","12","Y","D","U","",""
"","","","","","html-slider-response","141","14988261","0.0-137.0","ov4c0zd1oe","5","NaN","<div style=""width:500px;"">
                            <p style=""font-size:50px; font-weight:bold;""
                            >calm</p>
                            <div style=""width:240px; margin: auto;"">
                                <img src=""images/R_L_S_13.png"" style= ""width:200px""alt=""img"">
                            </div>
                        </div>","-200","","0","images/R_L_S_13.png","","","","calm","2","13","R","L","S","",""
"","","","","","html-slider-response","142","14990931","0.0-138.0","ov4c0zd1oe","5","NaN","<div style=""width:500px;"">
                            <p style=""font-size:50px; font-weight:bold;""
                            >calm</p>
                            <div style=""width:240px; margin: auto;"">
                                <img src=""images/G_D_S_30.png"" style= ""width:200px""alt=""img"">
                            </div>
                        </div>","42","","0","images/G_D_S_30.png","","","","calm","2","30","G","D","S","",""
"","","","","","html-slider-response","143","14993107","0.0-139.0","ov4c0zd1oe","5","NaN","<div style=""width:500px;"">
                            <p style=""font-size:50px; font-weight:bold;""
                            >calm</p>
                            <div style=""width:240px; margin: auto;"">
                                <img src=""images/B_L_U_41.png"" style= ""width:200px""alt=""img"">
                            </div>
                        </div>","-75","","0","images/B_L_U_41.png","","","","calm","2","41","B","L","U","",""
"","","","","","html-slider-response","144","14995148","0.0-140.0","ov4c0zd1oe","5","NaN","<div style=""width:500px;"">
                            <p style=""font-size:50px; font-weight:bold;""
                            >calm</p>
                            <div style=""width:240px; margin: auto;"">
                                <img src=""images/B_L_U_41.png"" style= ""width:200px""alt=""img"">
                            </div>
                        </div>","-71","","0","images/B_L_U_41.png","","","","calm","1","41","B","L","U","",""
"","","","","","html-slider-response","145","14999110","0.0-141.0","ov4c0zd1oe","5","NaN","<div style=""width:500px;"">
                            <p style=""font-size:50px; font-weight:bold;""
                            >calm</p>
                            <div style=""width:240px; margin: auto;"">
                                <img src=""images/R_L_U_15.png"" style= ""width:200px""alt=""img"">
                            </div>
                        </div>","-27","","0","images/R_L_U_15.png","","","","calm","2","15","R","L","U","",""
"","","","","","html-slider-response","146","15001388","0.0-142.0","ov4c0zd1oe","5","NaN","<div style=""width:500px;"">
                            <p style=""font-size:50px; font-weight:bold;""
                            >calm</p>
                            <div style=""width:240px; margin: auto;"">
                                <img src=""images/G_L_U_28.png"" style= ""width:200px""alt=""img"">
                            </div>
                        </div>","-115","","0","images/G_L_U_28.png","","","","calm","1","28","G","L","U","",""
"","","","","","html-slider-response","147","15003389","0.0-143.0","ov4c0zd1oe","5","NaN","<div style=""width:500px;"">
                            <p style=""font-size:50px; font-weight:bold;""
                            >calm</p>
                            <div style=""width:240px; margin: auto;"">
                                <img src=""images/G_L_U_28.png"" style= ""width:200px""alt=""img"">
                            </div>
                        </div>","-110","","0","images/G_L_U_28.png","","","","calm","2","28","G","L","U","",""
"","","","","","html-slider-response","148","15005874","0.0-144.0","ov4c0zd1oe","5","NaN","<div style=""width:500px;"">
                            <p style=""font-size:50px; font-weight:bold;""
                            >calm</p>
                            <div style=""width:240px; margin: auto;"">
                                <img src=""images/B_D_S_44.png"" style= ""width:200px""alt=""img"">
                            </div>
                        </div>","-107","","0","images/B_D_S_44.png","","","","calm","1","44","B","D","S","",""
"","","","","","html-slider-response","149","15008083","0.0-145.0","ov4c0zd1oe","5","NaN","<div style=""width:500px;"">
                            <p style=""font-size:50px; font-weight:bold;""
                            >calm</p>
                            <div style=""width:240px; margin: auto;"">
                                <img src=""images/R_D_U_26.png"" style= ""width:200px""alt=""img"">
                            </div>
                        </div>","39","","0","images/R_D_U_26.png","","","","calm","1","26","R","D","U","",""
"","","","","","html-slider-response","150","15010362","0.0-146.0","ov4c0zd1oe","5","NaN","<div style=""width:500px;"">
                            <p style=""font-size:50px; font-weight:bold;""
                            >calm</p>
                            <div style=""width:240px; margin: auto;"">
                                <img src=""images/R_D_S_23.png"" style= ""width:200px""alt=""img"">
                            </div>
                        </div>","-179","","0","images/R_D_S_23.png","","","","calm","2","23","R","D","S","",""
"","","","","","html-slider-response","151","15012665","0.0-147.0","ov4c0zd1oe","5","NaN","<div style=""width:500px;"">
                            <p style=""font-size:50px; font-weight:bold;""
                            >calm</p>
                            <div style=""width:240px; margin: auto;"">
                                <img src=""images/Y_L_S_05.png"" style= ""width:200px""alt=""img"">
                            </div>
                        </div>","-96","","0","images/Y_L_S_05.png","","","","calm","1","05","Y","L","S","",""
"","","","","","html-button-response","152","15014065","0.0-148.0","ov4c0zd1oe","5","900","<p>Great Job! You've finished block 4.<br></br> You have 4 block(s) left to go.<br></br></p>","0","","","","","","","","","","","","","",""
"","","","","","html-button-response","153","15016098","0.0-149.0","ov4c0zd1oe","5","2032","<p>In this block of trials, you will be asked to rate how much you associate each map with:</p > <p style = 'font-size:150%; font-weight: bold'>positive</p><br></br>","0","","","","","","","","","","","","","",""
"","","","","","html-slider-response","154","15017606","0.0-150.0","ov4c0zd1oe","5","NaN","<div style=""width:500px;"">
                            <p style=""font-size:50px; font-weight:bold;""
                            >positive</p>
                            <div style=""width:240px; margin: auto;"">
                                <img src=""images/R_D_U_26.png"" style= ""width:200px""alt=""img"">
                            </div>
                        </div>","-53","","0","images/R_D_U_26.png","","","","positive","2","26","R","D","U","",""
"","","","","","html-slider-response","155","15019529","0.0-151.0","ov4c0zd1oe","5","NaN","<div style=""width:500px;"">
                            <p style=""font-size:50px; font-weight:bold;""
                            >positive</p>
                            <div style=""width:240px; margin: auto;"">
                                <img src=""images/R_D_S_23.png"" style= ""width:200px""alt=""img"">
                            </div>
                        </div>","200","","0","images/R_D_S_23.png","","","","positive","1","23","R","D","S","",""
"","","","","","html-slider-response","156","15023871","0.0-152.0","ov4c0zd1oe","5","NaN","<div style=""width:500px;"">
                            <p style=""font-size:50px; font-weight:bold;""
                            >positive</p>
                            <div style=""width:240px; margin: auto;"">
                                <img src=""images/Y_L_S_05.png"" style= ""width:200px""alt=""img"">
                            </div>
                        </div>","157","","0","images/Y_L_S_05.png","","","","positive","2","05","Y","L","S","",""
"","","","","","html-slider-response","157","15026367","0.0-153.0","ov4c0zd1oe","5","NaN","<div style=""width:500px;"">
                            <p style=""font-size:50px; font-weight:bold;""
                            >positive</p>
                            <div style=""width:240px; margin: auto;"">
                                <img src=""images/Y_L_U_07.png"" style= ""width:200px""alt=""img"">
                            </div>
                        </div>","102","","0","images/Y_L_U_07.png","","","","positive","2","07","Y","L","U","",""
"","","","","","html-slider-response","158","15029100","0.0-154.0","ov4c0zd1oe","5","NaN","<div style=""width:500px;"">
                            <p style=""font-size:50px; font-weight:bold;""
                            >positive</p>
                            <div style=""width:240px; margin: auto;"">
                                <img src=""images/B_D_S_44.png"" style= ""width:200px""alt=""img"">
                            </div>
                        </div>","78","","0","images/B_D_S_44.png","","","","positive","2","44","B","D","S","",""
"","","","","","html-slider-response","159","15031835","0.0-155.0","ov4c0zd1oe","5","NaN","<div style=""width:500px;"">
                            <p style=""font-size:50px; font-weight:bold;""
                            >positive</p>
                            <div style=""width:240px; margin: auto;"">
                                <img src=""images/B_D_U_02.png"" style= ""width:200px""alt=""img"">
                            </div>
                        </div>","-104","","0","images/B_D_U_02.png","","","","positive","2","02","B","D","U","",""
"","","","","","html-slider-response","160","15034632","0.0-156.0","ov4c0zd1oe","5","NaN","<div style=""width:500px;"">
                            <p style=""font-size:50px; font-weight:bold;""
                            >positive</p>
                            <div style=""width:240px; margin: auto;"">
                                <img src=""images/G_D_S_30.png"" style= ""width:200px""alt=""img"">
                            </div>
                        </div>","25","","0","images/G_D_S_30.png","","","","positive","1","30","G","D","S","",""
"","","","","","html-slider-response","161","15036982","0.0-157.0","ov4c0zd1oe","5","NaN","<div style=""width:500px;"">
                            <p style=""font-size:50px; font-weight:bold;""
                            >positive</p>
                            <div style=""width:240px; margin: auto;"">
                                <img src=""images/G_L_U_28.png"" style= ""width:200px""alt=""img"">
                            </div>
                        </div>","158","","0","images/G_L_U_28.png","","","","positive","2","28","G","L","U","",""
"","","","","","html-slider-response","162","15039246","0.0-158.0","ov4c0zd1oe","5","NaN","<div style=""width:500px;"">
                            <p style=""font-size:50px; font-weight:bold;""
                            >positive</p>
                            <div style=""width:240px; margin: auto;"">
                                <img src=""images/G_D_U_33.png"" style= ""width:200px""alt=""img"">
                            </div>
                        </div>","-66","","0","images/G_D_U_33.png","","","","positive","2","33","G","D","U","",""
"","","","","","html-slider-response","163","15041302","0.0-159.0","ov4c0zd1oe","5","NaN","<div style=""width:500px;"">
                            <p style=""font-size:50px; font-weight:bold;""
                            >positive</p>
                            <div style=""width:240px; margin: auto;"">
                                <img src=""images/B_D_S_44.png"" style= ""width:200px""alt=""img"">
                            </div>
                        </div>","104","","0","images/B_D_S_44.png","","","","positive","1","44","B","D","S","",""
"","","","","","html-slider-response","164","15043407","0.0-160.0","ov4c0zd1oe","5","NaN","<div style=""width:500px;"">
                            <p style=""font-size:50px; font-weight:bold;""
                            >positive</p>
                            <div style=""width:240px; margin: auto;"">
                                <img src=""images/R_D_S_23.png"" style= ""width:200px""alt=""img"">
                            </div>
                        </div>","190","","0","images/R_D_S_23.png","","","","positive","2","23","R","D","S","",""
"","","","","","html-slider-response","165","15045829","0.0-161.0","ov4c0zd1oe","5","NaN","<div style=""width:500px;"">
                            <p style=""font-size:50px; font-weight:bold;""
                            >positive</p>
                            <div style=""width:240px; margin: auto;"">
                                <img src=""images/Y_D_U_12.png"" style= ""width:200px""alt=""img"">
                            </div>
                        </div>","-200","","0","images/Y_D_U_12.png","","","","positive","2","12","Y","D","U","",""
"","","","","","html-slider-response","166","15047837","0.0-162.0","ov4c0zd1oe","5","NaN","<div style=""width:500px;"">
                            <p style=""font-size:50px; font-weight:bold;""
                            >positive</p>
                            <div style=""width:240px; margin: auto;"">
                                <img src=""images/G_D_S_30.png"" style= ""width:200px""alt=""img"">
                            </div>
                        </div>","2","","0","images/G_D_S_30.png","","","","positive","2","30","G","D","S","",""
"","","","","","html-slider-response","167","15050244","0.0-163.0","ov4c0zd1oe","5","NaN","<div style=""width:500px;"">
                            <p style=""font-size:50px; font-weight:bold;""
                            >positive</p>
                            <div style=""width:240px; margin: auto;"">
                                <img src=""images/B_D_U_02.png"" style= ""width:200px""alt=""img"">
                            </div>
                        </div>","-77","","0","images/B_D_U_02.png","","","","positive","1","02","B","D","U","",""
"","","","","","html-slider-response","168","15052190","0.0-164.0","ov4c0zd1oe","5","NaN","<div style=""width:500px;"">
                            <p style=""font-size:50px; font-weight:bold;""
                            >positive</p>
                            <div style=""width:240px; margin: auto;"">
                                <img src=""images/Y_L_U_07.png"" style= ""width:200px""alt=""img"">
                            </div>
                        </div>","52","","0","images/Y_L_U_07.png","","","","positive","1","07","Y","L","U","",""
"","","","","","html-slider-response","169","15054349","0.0-165.0","ov4c0zd1oe","5","NaN","<div style=""width:500px;"">
                            <p style=""font-size:50px; font-weight:bold;""
                            >positive</p>
                            <div style=""width:240px; margin: auto;"">
                                <img src=""images/R_L_U_15.png"" style= ""width:200px""alt=""img"">
                            </div>
                        </div>","175","","0","images/R_L_U_15.png","","","","positive","1","15","R","L","U","",""
"","","","","","html-slider-response","170","15056461","0.0-166.0","ov4c0zd1oe","5","NaN","<div style=""width:500px;"">
                            <p style=""font-size:50px; font-weight:bold;""
                            >positive</p>
                            <div style=""width:240px; margin: auto;"">
                                <img src=""images/G_L_S_27.png"" style= ""width:200px""alt=""img"">
                            </div>
                        </div>","120","","0","images/G_L_S_27.png","","","","positive","2","27","G","L","S","",""
"","","","","","html-slider-response","171","15058493","0.0-167.0","ov4c0zd1oe","5","NaN","<div style=""width:500px;"">
                            <p style=""font-size:50px; font-weight:bold;""
                            >positive</p>
                            <div style=""width:240px; margin: auto;"">
                                <img src=""images/R_L_S_13.png"" style= ""width:200px""alt=""img"">
                            </div>
                        </div>","181","","0","images/R_L_S_13.png","","","","positive","1","13","R","L","S","",""
"","","","","","html-slider-response","172","15060454","0.0-168.0","ov4c0zd1oe","5","NaN","<div style=""width:500px;"">
                            <p style=""font-size:50px; font-weight:bold;""
                            >positive</p>
                            <div style=""width:240px; margin: auto;"">
                                <img src=""images/G_L_S_27.png"" style= ""width:200px""alt=""img"">
                            </div>
                        </div>","181","","0","images/G_L_S_27.png","","","","positive","1","27","G","L","S","",""
"","","","","","html-slider-response","173","15062414","0.0-169.0","ov4c0zd1oe","5","NaN","<div style=""width:500px;"">
                            <p style=""font-size:50px; font-weight:bold;""
                            >positive</p>
                            <div style=""width:240px; margin: auto;"">
                                <img src=""images/B_L_S_37.png"" style= ""width:200px""alt=""img"">
                            </div>
                        </div>","170","","0","images/B_L_S_37.png","","","","positive","2","37","B","L","S","",""
"","","","","","html-slider-response","174","15065139","0.0-170.0","ov4c0zd1oe","5","NaN","<div style=""width:500px;"">
                            <p style=""font-size:50px; font-weight:bold;""
                            >positive</p>
                            <div style=""width:240px; margin: auto;"">
                                <img src=""images/Y_L_S_05.png"" style= ""width:200px""alt=""img"">
                            </div>
                        </div>","102","","0","images/Y_L_S_05.png","","","","positive","1","05","Y","L","S","",""
"","","","","","html-slider-response","175","15067522","0.0-171.0","ov4c0zd1oe","5","NaN","<div style=""width:500px;"">
                            <p style=""font-size:50px; font-weight:bold;""
                            >positive</p>
                            <div style=""width:240px; margin: auto;"">
                                <img src=""images/G_L_U_28.png"" style= ""width:200px""alt=""img"">
                            </div>
                        </div>","53","","0","images/G_L_U_28.png","","","","positive","1","28","G","L","U","",""
"","","","","","html-slider-response","176","15069700","0.0-172.0","ov4c0zd1oe","5","NaN","<div style=""width:500px;"">
                            <p style=""font-size:50px; font-weight:bold;""
                            >positive</p>
                            <div style=""width:240px; margin: auto;"">
                                <img src=""images/R_D_U_26.png"" style= ""width:200px""alt=""img"">
                            </div>
                        </div>","-64","","0","images/R_D_U_26.png","","","","positive","1","26","R","D","U","",""
"","","","","","html-slider-response","177","15072058","0.0-173.0","ov4c0zd1oe","5","NaN","<div style=""width:500px;"">
                            <p style=""font-size:50px; font-weight:bold;""
                            >positive</p>
                            <div style=""width:240px; margin: auto;"">
                                <img src=""images/Y_D_U_12.png"" style= ""width:200px""alt=""img"">
                            </div>
                        </div>","-200","","0","images/Y_D_U_12.png","","","","positive","1","12","Y","D","U","",""
"","","","","","html-slider-response","178","15074242","0.0-174.0","ov4c0zd1oe","5","NaN","<div style=""width:500px;"">
                            <p style=""font-size:50px; font-weight:bold;""
                            >positive</p>
                            <div style=""width:240px; margin: auto;"">
                                <img src=""images/B_L_U_41.png"" style= ""width:200px""alt=""img"">
                            </div>
                        </div>","114","","0","images/B_L_U_41.png","","","","positive","1","41","B","L","U","",""
"","","","","","html-slider-response","179","15075635","0.0-175.0","ov4c0zd1oe","5","NaN","<div style=""width:500px;"">
                            <p style=""font-size:50px; font-weight:bold;""
                            >positive</p>
                            <div style=""width:240px; margin: auto;"">
                                <img src=""images/B_L_S_37.png"" style= ""width:200px""alt=""img"">
                            </div>
                        </div>","42","","0","images/B_L_S_37.png","","","","positive","1","37","B","L","S","",""
"","","","","","html-slider-response","180","15078951","0.0-176.0","ov4c0zd1oe","5","NaN","<div style=""width:500px;"">
                            <p style=""font-size:50px; font-weight:bold;""
                            >positive</p>
                            <div style=""width:240px; margin: auto;"">
                                <img src=""images/Y_D_S_10.png"" style= ""width:200px""alt=""img"">
                            </div>
                        </div>","-154","","0","images/Y_D_S_10.png","","","","positive","2","10","Y","D","S","",""
"","","","","","html-slider-response","181","15081017","0.0-177.0","ov4c0zd1oe","5","NaN","<div style=""width:500px;"">
                            <p style=""font-size:50px; font-weight:bold;""
                            >positive</p>
                            <div style=""width:240px; margin: auto;"">
                                <img src=""images/G_D_U_33.png"" style= ""width:200px""alt=""img"">
                            </div>
                        </div>","-66","","0","images/G_D_U_33.png","","","","positive","1","33","G","D","U","",""
"","","","","","html-slider-response","182","15083065","0.0-178.0","ov4c0zd1oe","5","NaN","<div style=""width:500px;"">
                            <p style=""font-size:50px; font-weight:bold;""
                            >positive</p>
                            <div style=""width:240px; margin: auto;"">
                                <img src=""images/R_L_S_13.png"" style= ""width:200px""alt=""img"">
                            </div>
                        </div>","200","","0","images/R_L_S_13.png","","","","positive","2","13","R","L","S","",""
"","","","","","html-slider-response","183","15085087","0.0-179.0","ov4c0zd1oe","5","NaN","<div style=""width:500px;"">
                            <p style=""font-size:50px; font-weight:bold;""
                            >positive</p>
                            <div style=""width:240px; margin: auto;"">
                                <img src=""images/R_L_U_15.png"" style= ""width:200px""alt=""img"">
                            </div>
                        </div>","50","","0","images/R_L_U_15.png","","","","positive","2","15","R","L","U","",""
"","","","","","html-slider-response","184","15087352","0.0-180.0","ov4c0zd1oe","5","NaN","<div style=""width:500px;"">
                            <p style=""font-size:50px; font-weight:bold;""
