"success","timeout","failed_images","failed_audio","failed_video","trial_type","trial_index","time_elapsed","internal_node_id","subject_id","condition_num","rt","stimulus","response","question_order","slider_start","image_path","practiceTrial","practiceTrialNum","correct","concept","repetition","map_id","hue","lightness","saturation","ishihara_plate","correct_response"
"true","false","[]","[]","[]","preload","0","195","0.0-0.0","pocbnf60vz","3","","","","","","","","","","","","","","","","",""
"","","","","","html-button-response","1","1038","0.0-1.0","pocbnf60vz","3","841","Welcome to our experiment!<p>At the bottom of this screen, you will see a button that says ""Begin Experiment"".<br>Please only click that button when you are ready to complete the 25 minute experiment in one sitting.</p><p> Once you click that button, it will not be possible to restart the experiment.","0","","","","","","","","","","","","","",""
"true","","","","","fullscreen","2","5754","0.0-2.0","pocbnf60vz","3","3711","","","","","","","","","","","","","","","",""
"","","","","","survey-multi-select","3","12946","0.0-3.0","pocbnf60vz","3","7185","","{""Consent"":[""<strong>I consent</strong>""]}","[0]","","","","","","","","","","","","",""
"","","","","","html-button-response","4","16434","0.0-4.0","pocbnf60vz","3","3484","Welcome! <p> This experiment involves two parts: demographic information, followed by the experimental task.<p> It will take about 25 minutes to complete both parts.","0","","","","","","","","","","","","","",""
"","","","","","survey-text","5","29085","0.0-5.0","pocbnf60vz","3","12634","","{""Age"":""19"",""Gender"":""Female"",""Race/ethnicity"":""White"",""Languages"":""English, Spanish""}","","","","","","","","","","","","","",""
"","","","","","html-slider-response","6","61911","0.0-6.0","pocbnf60vz","3","32821","
                            <div style='text-align:left; font-size:20px; line-height:25px; width: 1400px;'>
                                During this experiment you will be asked to rate how much you associate maps with                    different concepts.<br> Below, you can see some examples of the maps you will be asked to rate. Next to the maps
                    is the list of concepts.<br>You will be asked                    to rate how much you associate each map with each concept on a scale from 'not at all' to 'very much' like the
                    one below. <br><br>
                    Now, please look at the list of concepts and maps. For each concept, think about the map you associate 'very
                    much' with the concept.<br>                     When you see that map during the experiment, please rate it near the 'very much' endpoint of the
                    scale.<br>Now, please think about which map you associate 'not at all'                     with each concept. When you see that map during the experiment, please rate it near the 'not at all' endpoint
                    of the scale.<br>
                    Please use the full range of the scale. That is, if a map is somewhat associated with the concept, you would
                    click partway between the middle point and right side of the scale.                    You will be asked to rate each map for a given concept before moving on to the next concept.<br><br>Press the
                    'Continue' button for instructions on how to use the slider.                    <br><br>
                </div>

                <div style=""width: 500px; margin: 0 auto;"">
                    <!-- Centered text paragraphs -->
                    <div style=""text-align: center; width: 500px;"">
                        <p style=""font-size:25px; line-height:18px;"">calm</p>
                        <p style=""font-size:25px; line-height:18px;"">exciting</p>
                        <p style=""font-size:25px;line-height:18px;"">positive</p>
                        <p style=""font-size:25px;line-height:18px;"">negative</p>
                        <p style=""font-size:25px;line-height:18px;"">serious</p>
                        <p style=""font-size:25px;line-height:18px;"">playful</p>
                        <p style=""font-size:25px;line-height:18px;"">trustworthy</p>
                        <p style=""font-size:25px;line-height:18px;"">disturbing</p>
                    </div>

                    <!-- Grid section -->
                   <div style=""display: flex; justify-content: center; padding-top: 15px;"">
                    <div style=""display: grid; grid-template-columns: repeat(8, 80px); grid-gap: 5px; width: auto;"">
                        <img src=""images/Y_D_S_05.png"" alt=""map"" style=""width: 100%;""><img src=""images/B_D_S_37.png"" alt=""map"" style=""width: 100%;""><img src=""images/Y_D_U_07.png"" alt=""map"" style=""width: 100%;""><img src=""images/B_L_S_30.png"" alt=""map"" style=""width: 100%;""><img src=""images/R_D_U_15.png"" alt=""map"" style=""width: 100%;""><img src=""images/G_L_U_26.png"" alt=""map"" style=""width: 100%;""><img src=""images/R_L_S_10.png"" alt=""map"" style=""width: 100%;""><img src=""images/Y_L_S_44.png"" alt=""map"" style=""width: 100%;""><img src=""images/R_L_U_12.png"" alt=""map"" style=""width: 100%;""><img src=""images/R_D_S_13.png"" alt=""map"" style=""width: 100%;""><img src=""images/Y_L_U_02.png"" alt=""map"" style=""width: 100%;""><img src=""images/B_L_U_33.png"" alt=""map"" style=""width: 100%;""><img src=""images/B_D_U_41.png"" alt=""map"" style=""width: 100%;""><img src=""images/G_D_U_28.png"" alt=""map"" style=""width: 100%;""><img src=""images/G_L_S_23.png"" alt=""map"" style=""width: 100%;""><img src=""images/G_D_S_27.png"" alt=""map"" style=""width: 100%;"">
                    </div>
                </div>

                    <!-- Clear floats -->
                    <div style=""clear: both;""></div>
                </div>
                            ","5","","0","maps_anchoring.png","true","","","","","","","","","",""
"","","","","","html-button-response","7","69614","0.0-7.0","pocbnf60vz","3","7702","<div style=""width:800px;""><p style=""text-align:left"">To move the slider, click and drag your cursor to the location of the scale where you would like to make your rating and then let go. When you let go of the slider, your response will be recorded and the next trial will begin. <br>
                    We are interested in your initial impressions of each map for the given concept, so please go with your first intuition. <br>
                    Before you begin the experiment, there will be four training trials for you to practice using the scale. <br>
                     When you are ready to start the training trials, please click ""Continue"".</p><br></div>","0","","","","","","","","","","","","","",""
"","","","","","html-slider-response","8","72633","0.0-8.0-0.0","pocbnf60vz","3","NaN","<div style=""width:500px;"">
                                    <p style=""font-size:25px;"">Please move the slider all the way to the <br> right endpoint of the scale</p>

                                    </div>
                                </div>","200","","0","","true","0","true","","","","","","","",""
"","","","","","html-button-response","9","74334","0.0-8.0-1.0","pocbnf60vz","3","1197","<p align='center'><b>Good job!</b> Click on 'Continue' to proceed.</p>","0","","","","","","","","","","","","","",""
"","","","","","html-slider-response","10","76314","0.0-9.0-0.0","pocbnf60vz","3","NaN","<div style=""width:500px;"">
                                    <p style=""font-size:25px;"">Please move the slider all the way to the <br> left endpoint of the scale</p>

                                    </div>
                                </div>","-200","","0","","true","1","true","","","","","","","",""
"","","","","","html-button-response","11","77606","0.0-9.0-1.0","pocbnf60vz","3","789","<p align='center'><b>Good job!</b> Click on 'Continue' to proceed.</p>","0","","","","","","","","","","","","","",""
"","","","","","html-slider-response","12","79153","0.0-10.0-0.0","pocbnf60vz","3","NaN","<div style=""width:500px;"">
                                    <p style=""font-size:25px;"">Please move the slider halfway between the center and right endpoint of the scale</p>

                                    </div>
                                </div>","1","","0","","true","2","false","","","","","","","",""
"","","","","","html-button-response","13","82436","0.0-10.0-1.0","pocbnf60vz","3","2781","<p align='center'><b>Not quite!</b> The slider was not placed near the instructed located. Click on 'Continue' to try again. </p>","0","","","","","","","","","","","","","",""
"","","","","","html-slider-response","14","83839","0.0-10.1-0.1","pocbnf60vz","3","NaN","<div style=""width:500px;"">
                                    <p style=""font-size:25px;"">Please move the slider halfway between the center and right endpoint of the scale</p>

                                    </div>
                                </div>","-2","","0","","true","2","false","","","","","","","",""
"","","","","","html-button-response","15","87106","0.0-10.1-1.1","pocbnf60vz","3","2764","<p align='center'><b>Not quite!</b> The slider was not placed near the instructed located. Click on 'Continue' to try again. </p>","0","","","","","","","","","","","","","",""
"","","","","","html-slider-response","16","91435","0.0-10.2-0.2","pocbnf60vz","3","NaN","<div style=""width:500px;"">
                                    <p style=""font-size:25px;"">Please move the slider halfway between the center and right endpoint of the scale</p>

                                    </div>
                                </div>","98","","0","","true","2","true","","","","","","","",""
"","","","","","html-button-response","17","92824","0.0-10.2-1.2","pocbnf60vz","3","886","<p align='center'><b>Good job!</b> Click on 'Continue' to proceed.</p>","0","","","","","","","","","","","","","",""
"","","","","","html-slider-response","18","95124","0.0-11.0-0.0","pocbnf60vz","3","NaN","<div style=""width:500px;"">
                                    <p style=""font-size:25px;"">Please move the slider halfway between the center and left endpoint of the scale</p>

                                    </div>
                                </div>","-105","","0","","true","3","true","","","","","","","",""
"","","","","","html-button-response","19","96152","0.0-11.0-1.0","pocbnf60vz","3","525","<p align='center'><b>Good job!</b> Click on 'Continue' to proceed.</p>","0","","","","","","","","","","","","","",""
"","","","","","html-button-response","20","97704","0.0-12.0","pocbnf60vz","3","1551","<p>Great job! You've completed the practice trials. Now you will begin the main task.</p>","0","","","","","","","","","","","","","",""
"","","","","","html-button-response","21","101815","0.0-13.0","pocbnf60vz","3","4109","<p>In this block of trials, you will be asked to rate how much you associate each map with:</p > <p style = 'font-size:150%; font-weight: bold'>trustworthy</p><br></br>","0","","","","","","","","","","","","","",""
"","","","","","html-slider-response","22","109079","0.0-14.0","pocbnf60vz","3","NaN","<div style=""width:500px;"">
                            <p style=""font-size:50px; font-weight:bold;""
                            >trustworthy</p>
                            <div style=""width:240px; margin: auto;"">
                                <img src=""images/Y_L_S_44.png"" style= ""width:200px""alt=""img"">
                            </div>
                        </div>","97","","0","images/Y_L_S_44.png","","","","trustworthy","1","44","Y","L","S","",""
"","","","","","html-slider-response","23","113771","0.0-15.0","pocbnf60vz","3","NaN","<div style=""width:500px;"">
                            <p style=""font-size:50px; font-weight:bold;""
                            >trustworthy</p>
                            <div style=""width:240px; margin: auto;"">
                                <img src=""images/Y_D_S_05.png"" style= ""width:200px""alt=""img"">
                            </div>
                        </div>","-100","","0","images/Y_D_S_05.png","","","","trustworthy","2","05","Y","D","S","",""
"","","","","","html-slider-response","24","118769","0.0-16.0","pocbnf60vz","3","NaN","<div style=""width:500px;"">
                            <p style=""font-size:50px; font-weight:bold;""
                            >trustworthy</p>
                            <div style=""width:240px; margin: auto;"">
                                <img src=""images/G_D_U_28.png"" style= ""width:200px""alt=""img"">
                            </div>
                        </div>","34","","0","images/G_D_U_28.png","","","","trustworthy","1","28","G","D","U","",""
"","","","","","html-slider-response","25","120748","0.0-17.0","pocbnf60vz","3","NaN","<div style=""width:500px;"">
                            <p style=""font-size:50px; font-weight:bold;""
                            >trustworthy</p>
                            <div style=""width:240px; margin: auto;"">
                                <img src=""images/R_L_U_12.png"" style= ""width:200px""alt=""img"">
                            </div>
                        </div>","76","","0","images/R_L_U_12.png","","","","trustworthy","2","12","R","L","U","",""
"","","","","","html-slider-response","26","122530","0.0-18.0","pocbnf60vz","3","NaN","<div style=""width:500px;"">
                            <p style=""font-size:50px; font-weight:bold;""
                            >trustworthy</p>
                            <div style=""width:240px; margin: auto;"">
                                <img src=""images/R_D_S_13.png"" style= ""width:200px""alt=""img"">
                            </div>
                        </div>","116","","0","images/R_D_S_13.png","","","","trustworthy","2","13","R","D","S","",""
"","","","","","html-slider-response","27","124339","0.0-19.0","pocbnf60vz","3","NaN","<div style=""width:500px;"">
                            <p style=""font-size:50px; font-weight:bold;""
                            >trustworthy</p>
                            <div style=""width:240px; margin: auto;"">
                                <img src=""images/R_D_S_13.png"" style= ""width:200px""alt=""img"">
                            </div>
                        </div>","104","","0","images/R_D_S_13.png","","","","trustworthy","1","13","R","D","S","",""
"","","","","","html-slider-response","28","126115","0.0-20.0","pocbnf60vz","3","NaN","<div style=""width:500px;"">
                            <p style=""font-size:50px; font-weight:bold;""
                            >trustworthy</p>
                            <div style=""width:240px; margin: auto;"">
                                <img src=""images/R_D_U_15.png"" style= ""width:200px""alt=""img"">
                            </div>
                        </div>","-99","","0","images/R_D_U_15.png","","","","trustworthy","2","15","R","D","U","",""
"","","","","","html-slider-response","29","127650","0.0-21.0","pocbnf60vz","3","NaN","<div style=""width:500px;"">
                            <p style=""font-size:50px; font-weight:bold;""
                            >trustworthy</p>
                            <div style=""width:240px; margin: auto;"">
                                <img src=""images/G_L_S_23.png"" style= ""width:200px""alt=""img"">
                            </div>
                        </div>","0","","0","images/G_L_S_23.png","","","","trustworthy","2","23","G","L","S","",""
"","","","","","html-slider-response","30","129026","0.0-22.0","pocbnf60vz","3","NaN","<div style=""width:500px;"">
                            <p style=""font-size:50px; font-weight:bold;""
                            >trustworthy</p>
                            <div style=""width:240px; margin: auto;"">
                                <img src=""images/Y_D_S_05.png"" style= ""width:200px""alt=""img"">
                            </div>
                        </div>","0","","0","images/Y_D_S_05.png","","","","trustworthy","1","05","Y","D","S","",""
"","","","","","html-slider-response","31","130025","0.0-23.0","pocbnf60vz","3","NaN","<div style=""width:500px;"">
                            <p style=""font-size:50px; font-weight:bold;""
                            >trustworthy</p>
                            <div style=""width:240px; margin: auto;"">
                                <img src=""images/G_D_U_28.png"" style= ""width:200px""alt=""img"">
                            </div>
                        </div>","0","","0","images/G_D_U_28.png","","","","trustworthy","2","28","G","D","U","",""
"","","","","","html-slider-response","32","131120","0.0-24.0","pocbnf60vz","3","NaN","<div style=""width:500px;"">
                            <p style=""font-size:50px; font-weight:bold;""
                            >trustworthy</p>
                            <div style=""width:240px; margin: auto;"">
                                <img src=""images/Y_L_S_44.png"" style= ""width:200px""alt=""img"">
                            </div>
                        </div>","0","","0","images/Y_L_S_44.png","","","","trustworthy","2","44","Y","L","S","",""
"","","","","","html-slider-response","33","132057","0.0-25.0","pocbnf60vz","3","NaN","<div style=""width:500px;"">
                            <p style=""font-size:50px; font-weight:bold;""
                            >trustworthy</p>
                            <div style=""width:240px; margin: auto;"">
                                <img src=""images/B_D_U_41.png"" style= ""width:200px""alt=""img"">
                            </div>
                        </div>","30","","0","images/B_D_U_41.png","","","","trustworthy","2","41","B","D","U","",""
"","","","","","html-slider-response","34","133114","0.0-26.0","pocbnf60vz","3","NaN","<div style=""width:500px;"">
                            <p style=""font-size:50px; font-weight:bold;""
                            >trustworthy</p>
                            <div style=""width:240px; margin: auto;"">
                                <img src=""images/B_L_S_30.png"" style= ""width:200px""alt=""img"">
                            </div>
                        </div>","-30","","0","images/B_L_S_30.png","","","","trustworthy","2","30","B","L","S","",""
"","","","","","html-slider-response","35","134034","0.0-27.0","pocbnf60vz","3","NaN","<div style=""width:500px;"">
                            <p style=""font-size:50px; font-weight:bold;""
                            >trustworthy</p>
                            <div style=""width:240px; margin: auto;"">
                                <img src=""images/G_D_S_27.png"" style= ""width:200px""alt=""img"">
                            </div>
                        </div>","21","","0","images/G_D_S_27.png","","","","trustworthy","2","27","G","D","S","",""
"","","","","","html-slider-response","36","134952","0.0-28.0","pocbnf60vz","3","NaN","<div style=""width:500px;"">
                            <p style=""font-size:50px; font-weight:bold;""
                            >trustworthy</p>
                            <div style=""width:240px; margin: auto;"">
                                <img src=""images/R_D_U_15.png"" style= ""width:200px""alt=""img"">
                            </div>
                        </div>","68","","0","images/R_D_U_15.png","","","","trustworthy","1","15","R","D","U","",""
"","","","","","html-slider-response","37","136010","0.0-29.0","pocbnf60vz","3","NaN","<div style=""width:500px;"">
                            <p style=""font-size:50px; font-weight:bold;""
                            >trustworthy</p>
                            <div style=""width:240px; margin: auto;"">
                                <img src=""images/R_L_U_12.png"" style= ""width:200px""alt=""img"">
                            </div>
                        </div>","37","","0","images/R_L_U_12.png","","","","trustworthy","1","12","R","L","U","",""
"","","","","","html-slider-response","38","136880","0.0-30.0","pocbnf60vz","3","NaN","<div style=""width:500px;"">
                            <p style=""font-size:50px; font-weight:bold;""
                            >trustworthy</p>
                            <div style=""width:240px; margin: auto;"">
                                <img src=""images/B_D_U_41.png"" style= ""width:200px""alt=""img"">
                            </div>
                        </div>","22","","0","images/B_D_U_41.png","","","","trustworthy","1","41","B","D","U","",""
"","","","","","html-slider-response","39","138025","0.0-31.0","pocbnf60vz","3","NaN","<div style=""width:500px;"">
                            <p style=""font-size:50px; font-weight:bold;""
                            >trustworthy</p>
                            <div style=""width:240px; margin: auto;"">
                                <img src=""images/B_L_U_33.png"" style= ""width:200px""alt=""img"">
                            </div>
                        </div>","39","","0","images/B_L_U_33.png","","","","trustworthy","1","33","B","L","U","",""
"","","","","","html-slider-response","40","138671","0.0-32.0","pocbnf60vz","3","NaN","<div style=""width:500px;"">
                            <p style=""font-size:50px; font-weight:bold;""
                            >trustworthy</p>
                            <div style=""width:240px; margin: auto;"">
                                <img src=""images/G_D_S_27.png"" style= ""width:200px""alt=""img"">
                            </div>
                        </div>","39","","0","images/G_D_S_27.png","","","","trustworthy","1","27","G","D","S","",""
"","","","","","html-slider-response","41","139493","0.0-33.0","pocbnf60vz","3","NaN","<div style=""width:500px;"">
                            <p style=""font-size:50px; font-weight:bold;""
                            >trustworthy</p>
                            <div style=""width:240px; margin: auto;"">
                                <img src=""images/B_L_S_30.png"" style= ""width:200px""alt=""img"">
                            </div>
                        </div>","39","","0","images/B_L_S_30.png","","","","trustworthy","1","30","B","L","S","",""
"","","","","","html-slider-response","42","140644","0.0-34.0","pocbnf60vz","3","NaN","<div style=""width:500px;"">
                            <p style=""font-size:50px; font-weight:bold;""
                            >trustworthy</p>
                            <div style=""width:240px; margin: auto;"">
                                <img src=""images/R_L_S_10.png"" style= ""width:200px""alt=""img"">
                            </div>
                        </div>","39","","0","images/R_L_S_10.png","","","","trustworthy","1","10","R","L","S","",""
"","","","","","html-slider-response","43","141534","0.0-35.0","pocbnf60vz","3","NaN","<div style=""width:500px;"">
                            <p style=""font-size:50px; font-weight:bold;""
                            >trustworthy</p>
                            <div style=""width:240px; margin: auto;"">
                                <img src=""images/G_L_S_23.png"" style= ""width:200px""alt=""img"">
                            </div>
                        </div>","39","","0","images/G_L_S_23.png","","","","trustworthy","1","23","G","L","S","",""
"","","","","","html-slider-response","44","142423","0.0-36.0","pocbnf60vz","3","NaN","<div style=""width:500px;"">
                            <p style=""font-size:50px; font-weight:bold;""
                            >trustworthy</p>
                            <div style=""width:240px; margin: auto;"">
                                <img src=""images/Y_L_U_02.png"" style= ""width:200px""alt=""img"">
                            </div>
                        </div>","39","","0","images/Y_L_U_02.png","","","","trustworthy","1","02","Y","L","U","",""
"","","","","","html-slider-response","45","143271","0.0-37.0","pocbnf60vz","3","NaN","<div style=""width:500px;"">
                            <p style=""font-size:50px; font-weight:bold;""
                            >trustworthy</p>
                            <div style=""width:240px; margin: auto;"">
                                <img src=""images/G_L_U_26.png"" style= ""width:200px""alt=""img"">
                            </div>
                        </div>","-53","","0","images/G_L_U_26.png","","","","trustworthy","2","26","G","L","U","",""
"","","","","","html-slider-response","46","144648","0.0-38.0","pocbnf60vz","3","NaN","<div style=""width:500px;"">
                            <p style=""font-size:50px; font-weight:bold;""
                            >trustworthy</p>
                            <div style=""width:240px; margin: auto;"">
                                <img src=""images/R_L_S_10.png"" style= ""width:200px""alt=""img"">
                            </div>
                        </div>","-36","","0","images/R_L_S_10.png","","","","trustworthy","2","10","R","L","S","",""
"","","","","","html-slider-response","47","146241","0.0-39.0","pocbnf60vz","3","NaN","<div style=""width:500px;"">
                            <p style=""font-size:50px; font-weight:bold;""
                            >trustworthy</p>
                            <div style=""width:240px; margin: auto;"">
                                <img src=""images/G_L_U_26.png"" style= ""width:200px""alt=""img"">
                            </div>
                        </div>","36","","0","images/G_L_U_26.png","","","","trustworthy","1","26","G","L","U","",""
"","","","","","html-slider-response","48","147742","0.0-40.0","pocbnf60vz","3","NaN","<div style=""width:500px;"">
                            <p style=""font-size:50px; font-weight:bold;""
                            >trustworthy</p>
                            <div style=""width:240px; margin: auto;"">
                                <img src=""images/Y_D_U_07.png"" style= ""width:200px""alt=""img"">
                            </div>
                        </div>","36","","0","images/Y_D_U_07.png","","","","trustworthy","2","07","Y","D","U","",""
"","","","","","html-slider-response","49","149312","0.0-41.0","pocbnf60vz","3","NaN","<div style=""width:500px;"">
                            <p style=""font-size:50px; font-weight:bold;""
                            >trustworthy</p>
                            <div style=""width:240px; margin: auto;"">
                                <img src=""images/Y_L_U_02.png"" style= ""width:200px""alt=""img"">
                            </div>
                        </div>","36","","0","images/Y_L_U_02.png","","","","trustworthy","2","02","Y","L","U","",""
"","","","","","html-slider-response","50","150158","0.0-42.0","pocbnf60vz","3","NaN","<div style=""width:500px;"">
                            <p style=""font-size:50px; font-weight:bold;""
                            >trustworthy</p>
                            <div style=""width:240px; margin: auto;"">
                                <img src=""images/B_D_S_37.png"" style= ""width:200px""alt=""img"">
                            </div>
                        </div>","36","","0","images/B_D_S_37.png","","","","trustworthy","1","37","B","D","S","",""
"","","","","","html-slider-response","51","150895","0.0-43.0","pocbnf60vz","3","NaN","<div style=""width:500px;"">
                            <p style=""font-size:50px; font-weight:bold;""
                            >trustworthy</p>
                            <div style=""width:240px; margin: auto;"">
                                <img src=""images/B_L_U_33.png"" style= ""width:200px""alt=""img"">
                            </div>
                        </div>","-29","","0","images/B_L_U_33.png","","","","trustworthy","2","33","B","L","U","",""
"","","","","","html-slider-response","52","151999","0.0-44.0","pocbnf60vz","3","NaN","<div style=""width:500px;"">
                            <p style=""font-size:50px; font-weight:bold;""
                            >trustworthy</p>
                            <div style=""width:240px; margin: auto;"">
                                <img src=""images/Y_D_U_07.png"" style= ""width:200px""alt=""img"">
                            </div>
                        </div>","38","","0","images/Y_D_U_07.png","","","","trustworthy","1","07","Y","D","U","",""
"","","","","","html-slider-response","53","153431","0.0-45.0","pocbnf60vz","3","NaN","<div style=""width:500px;"">
                            <p style=""font-size:50px; font-weight:bold;""
                            >trustworthy</p>
                            <div style=""width:240px; margin: auto;"">
                                <img src=""images/B_D_S_37.png"" style= ""width:200px""alt=""img"">
                            </div>
                        </div>","38","","0","images/B_D_S_37.png","","","","trustworthy","2","37","B","D","S","",""
"","","","","","html-button-response","54","156188","0.0-46.0","pocbnf60vz","3","2253","<p>Great Job! You've finished block 1.<br></br> You have 7 block(s) left to go.<br></br></p>","0","","","","","","","","","","","","","",""
"","","","","","html-button-response","55","158314","0.0-47.0","pocbnf60vz","3","2125","<p>In this block of trials, you will be asked to rate how much you associate each map with:</p > <p style = 'font-size:150%; font-weight: bold'>negative</p><br></br>","0","","","","","","","","","","","","","",""
"","","","","","html-slider-response","56","158902","0.0-48.0","pocbnf60vz","3","NaN","<div style=""width:500px;"">
                            <p style=""font-size:50px; font-weight:bold;""
                            >negative</p>
                            <div style=""width:240px; margin: auto;"">
                                <img src=""images/G_D_U_28.png"" style= ""width:200px""alt=""img"">
                            </div>
                        </div>","-21","","0","images/G_D_U_28.png","","","","negative","1","28","G","D","U","",""
"","","","","","html-slider-response","57","159830","0.0-49.0","pocbnf60vz","3","NaN","<div style=""width:500px;"">
                            <p style=""font-size:50px; font-weight:bold;""
                            >negative</p>
                            <div style=""width:240px; margin: auto;"">
                                <img src=""images/R_D_S_13.png"" style= ""width:200px""alt=""img"">
                            </div>
                        </div>","-43","","0","images/R_D_S_13.png","","","","negative","2","13","R","D","S","",""
"","","","","","html-slider-response","58","160646","0.0-50.0","pocbnf60vz","3","NaN","<div style=""width:500px;"">
                            <p style=""font-size:50px; font-weight:bold;""
                            >negative</p>
                            <div style=""width:240px; margin: auto;"">
                                <img src=""images/Y_L_U_02.png"" style= ""width:200px""alt=""img"">
                            </div>
                        </div>","2","","0","images/Y_L_U_02.png","","","","negative","1","02","Y","L","U","",""
"","","","","","html-slider-response","59","161366","0.0-51.0","pocbnf60vz","3","NaN","<div style=""width:500px;"">
                            <p style=""font-size:50px; font-weight:bold;""
                            >negative</p>
                            <div style=""width:240px; margin: auto;"">
                                <img src=""images/G_D_S_27.png"" style= ""width:200px""alt=""img"">
                            </div>
                        </div>","-46","","0","images/G_D_S_27.png","","","","negative","2","27","G","D","S","",""
"","","","","","html-slider-response","60","162351","0.0-52.0","pocbnf60vz","3","NaN","<div style=""width:500px;"">
                            <p style=""font-size:50px; font-weight:bold;""
                            >negative</p>
                            <div style=""width:240px; margin: auto;"">
                                <img src=""images/B_D_U_41.png"" style= ""width:200px""alt=""img"">
                            </div>
                        </div>","-131","","0","images/B_D_U_41.png","","","","negative","1","41","B","D","U","",""
"","","","","","html-slider-response","61","163198","0.0-53.0","pocbnf60vz","3","NaN","<div style=""width:500px;"">
                            <p style=""font-size:50px; font-weight:bold;""
                            >negative</p>
                            <div style=""width:240px; margin: auto;"">
                                <img src=""images/R_L_U_12.png"" style= ""width:200px""alt=""img"">
                            </div>
                        </div>","-136","","0","images/R_L_U_12.png","","","","negative","2","12","R","L","U","",""
"","","","","","html-slider-response","62","164111","0.0-54.0","pocbnf60vz","3","NaN","<div style=""width:500px;"">
                            <p style=""font-size:50px; font-weight:bold;""
                            >negative</p>
                            <div style=""width:240px; margin: auto;"">
                                <img src=""images/G_D_U_28.png"" style= ""width:200px""alt=""img"">
                            </div>
                        </div>","-122","","0","images/G_D_U_28.png","","","","negative","2","28","G","D","U","",""
"","","","","","html-slider-response","63","165076","0.0-55.0","pocbnf60vz","3","NaN","<div style=""width:500px;"">
                            <p style=""font-size:50px; font-weight:bold;""
                            >negative</p>
                            <div style=""width:240px; margin: auto;"">
                                <img src=""images/Y_D_S_05.png"" style= ""width:200px""alt=""img"">
                            </div>
                        </div>","-119","","0","images/Y_D_S_05.png","","","","negative","2","05","Y","D","S","",""
"","","","","","html-slider-response","64","166083","0.0-56.0","pocbnf60vz","3","NaN","<div style=""width:500px;"">
                            <p style=""font-size:50px; font-weight:bold;""
                            >negative</p>
                            <div style=""width:240px; margin: auto;"">
                                <img src=""images/B_L_U_33.png"" style= ""width:200px""alt=""img"">
                            </div>
                        </div>","-118","","0","images/B_L_U_33.png","","","","negative","1","33","B","L","U","",""
"","","","","","html-slider-response","65","166917","0.0-57.0","pocbnf60vz","3","NaN","<div style=""width:500px;"">
                            <p style=""font-size:50px; font-weight:bold;""
                            >negative</p>
                            <div style=""width:240px; margin: auto;"">
                                <img src=""images/B_L_S_30.png"" style= ""width:200px""alt=""img"">
                            </div>
                        </div>","-117","","0","images/B_L_S_30.png","","","","negative","2","30","B","L","S","",""
"","","","","","html-slider-response","66","167773","0.0-58.0","pocbnf60vz","3","NaN","<div style=""width:500px;"">
                            <p style=""font-size:50px; font-weight:bold;""
                            >negative</p>
                            <div style=""width:240px; margin: auto;"">
                                <img src=""images/R_L_U_12.png"" style= ""width:200px""alt=""img"">
                            </div>
                        </div>","-101","","0","images/R_L_U_12.png","","","","negative","1","12","R","L","U","",""
"","","","","","html-slider-response","67","169069","0.0-59.0","pocbnf60vz","3","NaN","<div style=""width:500px;"">
                            <p style=""font-size:50px; font-weight:bold;""
                            >negative</p>
                            <div style=""width:240px; margin: auto;"">
                                <img src=""images/R_L_S_10.png"" style= ""width:200px""alt=""img"">
                            </div>
                        </div>","-83","","0","images/R_L_S_10.png","","","","negative","2","10","R","L","S","",""
"","","","","","html-slider-response","68","169950","0.0-60.0","pocbnf60vz","3","NaN","<div style=""width:500px;"">
                            <p style=""font-size:50px; font-weight:bold;""
                            >negative</p>
                            <div style=""width:240px; margin: auto;"">
                                <img src=""images/Y_L_U_02.png"" style= ""width:200px""alt=""img"">
                            </div>
                        </div>","-99","","0","images/Y_L_U_02.png","","","","negative","2","02","Y","L","U","",""
"","","","","","html-slider-response","69","170797","0.0-61.0","pocbnf60vz","3","NaN","<div style=""width:500px;"">
                            <p style=""font-size:50px; font-weight:bold;""
                            >negative</p>
                            <div style=""width:240px; margin: auto;"">
                                <img src=""images/G_L_U_26.png"" style= ""width:200px""alt=""img"">
                            </div>
                        </div>","-66","","0","images/G_L_U_26.png","","","","negative","2","26","G","L","U","",""
"","","","","","html-slider-response","70","171661","0.0-62.0","pocbnf60vz","3","NaN","<div style=""width:500px;"">
                            <p style=""font-size:50px; font-weight:bold;""
                            >negative</p>
                            <div style=""width:240px; margin: auto;"">
                                <img src=""images/B_L_U_33.png"" style= ""width:200px""alt=""img"">
                            </div>
                        </div>","-66","","0","images/B_L_U_33.png","","","","negative","2","33","B","L","U","",""
"","","","","","html-slider-response","71","172445","0.0-63.0","pocbnf60vz","3","NaN","<div style=""width:500px;"">
                            <p style=""font-size:50px; font-weight:bold;""
                            >negative</p>
                            <div style=""width:240px; margin: auto;"">
                                <img src=""images/B_D_S_37.png"" style= ""width:200px""alt=""img"">
                            </div>
                        </div>","-80","","0","images/B_D_S_37.png","","","","negative","1","37","B","D","S","",""
"","","","","","html-slider-response","72","173628","0.0-64.0","pocbnf60vz","3","NaN","<div style=""width:500px;"">
                            <p style=""font-size:50px; font-weight:bold;""
                            >negative</p>
                            <div style=""width:240px; margin: auto;"">
                                <img src=""images/B_L_S_30.png"" style= ""width:200px""alt=""img"">
                            </div>
                        </div>","-57","","0","images/B_L_S_30.png","","","","negative","1","30","B","L","S","",""
"","","","","","html-slider-response","73","174516","0.0-65.0","pocbnf60vz","3","NaN","<div style=""width:500px;"">
                            <p style=""font-size:50px; font-weight:bold;""
                            >negative</p>
                            <div style=""width:240px; margin: auto;"">
                                <img src=""images/Y_D_S_05.png"" style= ""width:200px""alt=""img"">
                            </div>
                        </div>","-98","","0","images/Y_D_S_05.png","","","","negative","1","05","Y","D","S","",""
"","","","","","html-slider-response","74","175181","0.0-66.0","pocbnf60vz","3","NaN","<div style=""width:500px;"">
                            <p style=""font-size:50px; font-weight:bold;""
                            >negative</p>
                            <div style=""width:240px; margin: auto;"">
                                <img src=""images/Y_D_U_07.png"" style= ""width:200px""alt=""img"">
                            </div>
                        </div>","-77","","0","images/Y_D_U_07.png","","","","negative","1","07","Y","D","U","",""
"","","","","","html-slider-response","75","175948","0.0-67.0","pocbnf60vz","3","NaN","<div style=""width:500px;"">
                            <p style=""font-size:50px; font-weight:bold;""
                            >negative</p>
                            <div style=""width:240px; margin: auto;"">
                                <img src=""images/G_D_S_27.png"" style= ""width:200px""alt=""img"">
                            </div>
                        </div>","-90","","0","images/G_D_S_27.png","","","","negative","1","27","G","D","S","",""
"","","","","","html-slider-response","76","176804","0.0-68.0","pocbnf60vz","3","NaN","<div style=""width:500px;"">
                            <p style=""font-size:50px; font-weight:bold;""
                            >negative</p>
                            <div style=""width:240px; margin: auto;"">
                                <img src=""images/G_L_U_26.png"" style= ""width:200px""alt=""img"">
                            </div>
                        </div>","-78","","0","images/G_L_U_26.png","","","","negative","1","26","G","L","U","",""
"","","","","","html-slider-response","77","177610","0.0-69.0","pocbnf60vz","3","NaN","<div style=""width:500px;"">
                            <p style=""font-size:50px; font-weight:bold;""
                            >negative</p>
                            <div style=""width:240px; margin: auto;"">
                                <img src=""images/G_L_S_23.png"" style= ""width:200px""alt=""img"">
                            </div>
                        </div>","-78","","0","images/G_L_S_23.png","","","","negative","1","23","G","L","S","",""
"","","","","","html-slider-response","78","178355","0.0-70.0","pocbnf60vz","3","NaN","<div style=""width:500px;"">
                            <p style=""font-size:50px; font-weight:bold;""
                            >negative</p>
                            <div style=""width:240px; margin: auto;"">
                                <img src=""images/R_D_U_15.png"" style= ""width:200px""alt=""img"">
                            </div>
                        </div>","-78","","0","images/R_D_U_15.png","","","","negative","2","15","R","D","U","",""
"","","","","","html-slider-response","79","179036","0.0-71.0","pocbnf60vz","3","NaN","<div style=""width:500px;"">
                            <p style=""font-size:50px; font-weight:bold;""
                            >negative</p>
                            <div style=""width:240px; margin: auto;"">
                                <img src=""images/R_D_U_15.png"" style= ""width:200px""alt=""img"">
                            </div>
                        </div>","-82","","0","images/R_D_U_15.png","","","","negative","1","15","R","D","U","",""
"","","","","","html-slider-response","80","179723","0.0-72.0","pocbnf60vz","3","NaN","<div style=""width:500px;"">
                            <p style=""font-size:50px; font-weight:bold;""
                            >negative</p>
                            <div style=""width:240px; margin: auto;"">
                                <img src=""images/R_D_S_13.png"" style= ""width:200px""alt=""img"">
                            </div>
                        </div>","-82","","0","images/R_D_S_13.png","","","","negative","1","13","R","D","S","",""
"","","","","","html-slider-response","81","180331","0.0-73.0","pocbnf60vz","3","NaN","<div style=""width:500px;"">
                            <p style=""font-size:50px; font-weight:bold;""
                            >negative</p>
                            <div style=""width:240px; margin: auto;"">
                                <img src=""images/Y_L_S_44.png"" style= ""width:200px""alt=""img"">
                            </div>
                        </div>","-82","","0","images/Y_L_S_44.png","","","","negative","1","44","Y","L","S","",""
"","","","","","html-slider-response","82","181002","0.0-74.0","pocbnf60vz","3","NaN","<div style=""width:500px;"">
                            <p style=""font-size:50px; font-weight:bold;""
                            >negative</p>
                            <div style=""width:240px; margin: auto;"">
                                <img src=""images/B_D_S_37.png"" style= ""width:200px""alt=""img"">
                            </div>
                        </div>","-82","","0","images/B_D_S_37.png","","","","negative","2","37","B","D","S","",""
"","","","","","html-slider-response","83","181595","0.0-75.0","pocbnf60vz","3","NaN","<div style=""width:500px;"">
                            <p style=""font-size:50px; font-weight:bold;""
                            >negative</p>
                            <div style=""width:240px; margin: auto;"">
                                <img src=""images/R_L_S_10.png"" style= ""width:200px""alt=""img"">
                            </div>
                        </div>","-82","","0","images/R_L_S_10.png","","","","negative","1","10","R","L","S","",""
"","","","","","html-slider-response","84","182275","0.0-76.0","pocbnf60vz","3","NaN","<div style=""width:500px;"">
                            <p style=""font-size:50px; font-weight:bold;""
                            >negative</p>
                            <div style=""width:240px; margin: auto;"">
                                <img src=""images/Y_L_S_44.png"" style= ""width:200px""alt=""img"">
                            </div>
                        </div>","-82","","0","images/Y_L_S_44.png","","","","negative","2","44","Y","L","S","",""
"","","","","","html-slider-response","85","183323","0.0-77.0","pocbnf60vz","3","NaN","<div style=""width:500px;"">
                            <p style=""font-size:50px; font-weight:bold;""
                            >negative</p>
                            <div style=""width:240px; margin: auto;"">
                                <img src=""images/G_L_S_23.png"" style= ""width:200px""alt=""img"">
                            </div>
                        </div>","-90","","0","images/G_L_S_23.png","","","","negative","2","23","G","L","S","",""
"","","","","","html-slider-response","86","184179","0.0-78.0","pocbnf60vz","3","NaN","<div style=""width:500px;"">
                            <p style=""font-size:50px; font-weight:bold;""
                            >negative</p>
                            <div style=""width:240px; margin: auto;"">
                                <img src=""images/Y_D_U_07.png"" style= ""width:200px""alt=""img"">
                            </div>
                        </div>","-90","","0","images/Y_D_U_07.png","","","","negative","2","07","Y","D","U","",""
"","","","","","html-slider-response","87","184947","0.0-79.0","pocbnf60vz","3","NaN","<div style=""width:500px;"">
                            <p style=""font-size:50px; font-weight:bold;""
                            >negative</p>
                            <div style=""width:240px; margin: auto;"">
                                <img src=""images/B_D_U_41.png"" style= ""width:200px""alt=""img"">
                            </div>
                        </div>","-73","","0","images/B_D_U_41.png","","","","negative","2","41","B","D","U","",""
"","","","","","html-button-response","88","186688","0.0-80.0","pocbnf60vz","3","1238","<p>Great Job! You've finished block 2.<br></br> You have 6 block(s) left to go.<br></br></p>","0","","","","","","","","","","","","","",""
"","","","","","html-button-response","89","187583","0.0-81.0","pocbnf60vz","3","894","<p>In this block of trials, you will be asked to rate how much you associate each map with:</p > <p style = 'font-size:150%; font-weight: bold'>calm</p><br></br>","0","","","","","","","","","","","","","",""
"","","","","","html-slider-response","90","188546","0.0-82.0","pocbnf60vz","3","NaN","<div style=""width:500px;"">
                            <p style=""font-size:50px; font-weight:bold;""
                            >calm</p>
                            <div style=""width:240px; margin: auto;"">
                                <img src=""images/R_L_S_10.png"" style= ""width:200px""alt=""img"">
                            </div>
                        </div>","59","","0","images/R_L_S_10.png","","","","calm","1","10","R","L","S","",""
"","","","","","html-slider-response","91","189434","0.0-83.0","pocbnf60vz","3","NaN","<div style=""width:500px;"">
                            <p style=""font-size:50px; font-weight:bold;""
                            >calm</p>
                            <div style=""width:240px; margin: auto;"">
                                <img src=""images/B_L_U_33.png"" style= ""width:200px""alt=""img"">
                            </div>
                        </div>","86","","0","images/B_L_U_33.png","","","","calm","2","33","B","L","U","",""
"","","","","","html-slider-response","92","191209","0.0-84.0","pocbnf60vz","3","NaN","<div style=""width:500px;"">
                            <p style=""font-size:50px; font-weight:bold;""
                            >calm</p>
                            <div style=""width:240px; margin: auto;"">
                                <img src=""images/G_D_S_27.png"" style= ""width:200px""alt=""img"">
                            </div>
                        </div>","66","","0","images/G_D_S_27.png","","","","calm","2","27","G","D","S","",""
"","","","","","html-slider-response","93","192473","0.0-85.0","pocbnf60vz","3","NaN","<div style=""width:500px;"">
                            <p style=""font-size:50px; font-weight:bold;""
                            >calm</p>
                            <div style=""width:240px; margin: auto;"">
                                <img src=""images/R_L_U_12.png"" style= ""width:200px""alt=""img"">
                            </div>
                        </div>","74","","0","images/R_L_U_12.png","","","","calm","1","12","R","L","U","",""
"","","","","","html-slider-response","94","194032","0.0-86.0","pocbnf60vz","3","NaN","<div style=""width:500px;"">
                            <p style=""font-size:50px; font-weight:bold;""
                            >calm</p>
                            <div style=""width:240px; margin: auto;"">
                                <img src=""images/B_L_U_33.png"" style= ""width:200px""alt=""img"">
                            </div>
                        </div>","107","","0","images/B_L_U_33.png","","","","calm","1","33","B","L","U","",""
"","","","","","html-slider-response","95","195337","0.0-87.0","pocbnf60vz","3","NaN","<div style=""width:500px;"">
                            <p style=""font-size:50px; font-weight:bold;""
                            >calm</p>
                            <div style=""width:240px; margin: auto;"">
                                <img src=""images/B_D_U_41.png"" style= ""width:200px""alt=""img"">
                            </div>
                        </div>","69","","0","images/B_D_U_41.png","","","","calm","2","41","B","D","U","",""
"","","","","","html-slider-response","96","196608","0.0-88.0","pocbnf60vz","3","NaN","<div style=""width:500px;"">
                            <p style=""font-size:50px; font-weight:bold;""
                            >calm</p>
                            <div style=""width:240px; margin: auto;"">
                                <img src=""images/B_D_S_37.png"" style= ""width:200px""alt=""img"">
                            </div>
                        </div>","86","","0","images/B_D_S_37.png","","","","calm","2","37","B","D","S","",""
"","","","","","html-slider-response","97","197904","0.0-89.0","pocbnf60vz","3","NaN","<div style=""width:500px;"">
                            <p style=""font-size:50px; font-weight:bold;""
                            >calm</p>
                            <div style=""width:240px; margin: auto;"">
                                <img src=""images/B_D_S_37.png"" style= ""width:200px""alt=""img"">
                            </div>
                        </div>","12","","0","images/B_D_S_37.png","","","","calm","1","37","B","D","S","",""
"","","","","","html-slider-response","98","199919","0.0-90.0","pocbnf60vz","3","NaN","<div style=""width:500px;"">
                            <p style=""font-size:50px; font-weight:bold;""
                            >calm</p>
                            <div style=""width:240px; margin: auto;"">
                                <img src=""images/B_L_S_30.png"" style= ""width:200px""alt=""img"">
                            </div>
                        </div>","34","","0","images/B_L_S_30.png","","","","calm","2","30","B","L","S","",""
"","","","","","html-slider-response","99","201216","0.0-91.0","pocbnf60vz","3","NaN","<div style=""width:500px;"">
                            <p style=""font-size:50px; font-weight:bold;""
                            >calm</p>
                            <div style=""width:240px; margin: auto;"">
                                <img src=""images/G_L_S_23.png"" style= ""width:200px""alt=""img"">
                            </div>
                        </div>","-11","","0","images/G_L_S_23.png","","","","calm","1","23","G","L","S","",""
"","","","","","html-slider-response","100","202423","0.0-92.0","pocbnf60vz","3","NaN","<div style=""width:500px;"">
                            <p style=""font-size:50px; font-weight:bold;""
                            >calm</p>
                            <div style=""width:240px; margin: auto;"">
                                <img src=""images/R_D_S_13.png"" style= ""width:200px""alt=""img"">
                            </div>
                        </div>","-62","","0","images/R_D_S_13.png","","","","calm","2","13","R","D","S","",""
"","","","","","html-slider-response","101","203592","0.0-93.0","pocbnf60vz","3","NaN","<div style=""width:500px;"">
                            <p style=""font-size:50px; font-weight:bold;""
                            >calm</p>
                            <div style=""width:240px; margin: auto;"">
                                <img src=""images/R_D_S_13.png"" style= ""width:200px""alt=""img"">
                            </div>
                        </div>","-124","","0","images/R_D_S_13.png","","","","calm","1","13","R","D","S","",""
"","","","","","html-slider-response","102","205383","0.0-94.0","pocbnf60vz","3","NaN","<div style=""width:500px;"">
                            <p style=""font-size:50px; font-weight:bold;""
                            >calm</p>
                            <div style=""width:240px; margin: auto;"">
                                <img src=""images/Y_D_S_05.png"" style= ""width:200px""alt=""img"">
                            </div>
                        </div>","18","","0","images/Y_D_S_05.png","","","","calm","2","05","Y","D","S","",""
"","","","","","html-slider-response","103","206880","0.0-95.0","pocbnf60vz","3","NaN","<div style=""width:500px;"">
                            <p style=""font-size:50px; font-weight:bold;""
                            >calm</p>
                            <div style=""width:240px; margin: auto;"">
                                <img src=""images/R_D_U_15.png"" style= ""width:200px""alt=""img"">
                            </div>
                        </div>","27","","0","images/R_D_U_15.png","","","","calm","1","15","R","D","U","",""
"","","","","","html-slider-response","104","208423","0.0-96.0","pocbnf60vz","3","NaN","<div style=""width:500px;"">
                            <p style=""font-size:50px; font-weight:bold;""
                            >calm</p>
                            <div style=""width:240px; margin: auto;"">
                                <img src=""images/Y_D_S_05.png"" style= ""width:200px""alt=""img"">
                            </div>
                        </div>","30","","0","images/Y_D_S_05.png","","","","calm","1","05","Y","D","S","",""
"","","","","","html-slider-response","105","209735","0.0-97.0","pocbnf60vz","3","NaN","<div style=""width:500px;"">
                            <p style=""font-size:50px; font-weight:bold;""
                            >calm</p>
                            <div style=""width:240px; margin: auto;"">
                                <img src=""images/G_L_U_26.png"" style= ""width:200px""alt=""img"">
                            </div>
                        </div>","-36","","0","images/G_L_U_26.png","","","","calm","2","26","G","L","U","",""
"","","","","","html-slider-response","106","211135","0.0-98.0","pocbnf60vz","3","NaN","<div style=""width:500px;"">
                            <p style=""font-size:50px; font-weight:bold;""
                            >calm</p>
                            <div style=""width:240px; margin: auto;"">
                                <img src=""images/B_D_U_41.png"" style= ""width:200px""alt=""img"">
                            </div>
                        </div>","37","","0","images/B_D_U_41.png","","","","calm","1","41","B","D","U","",""
"","","","","","html-slider-response","107","212890","0.0-99.0","pocbnf60vz","3","NaN","<div style=""width:500px;"">
                            <p style=""font-size:50px; font-weight:bold;""
                            >calm</p>
                            <div style=""width:240px; margin: auto;"">
                                <img src=""images/G_D_U_28.png"" style= ""width:200px""alt=""img"">
                            </div>
                        </div>","-13","","0","images/G_D_U_28.png","","","","calm","1","28","G","D","U","",""
"","","","","","html-slider-response","108","214365","0.0-100.0","pocbnf60vz","3","NaN","<div style=""width:500px;"">
                            <p style=""font-size:50px; font-weight:bold;""
                            >calm</p>
                            <div style=""width:240px; margin: auto;"">
                                <img src=""images/G_L_S_23.png"" style= ""width:200px""alt=""img"">
                            </div>
                        </div>","-42","","0","images/G_L_S_23.png","","","","calm","2","23","G","L","S","",""
"","","","","","html-slider-response","109","215606","0.0-101.0","pocbnf60vz","3","NaN","<div style=""width:500px;"">
                            <p style=""font-size:50px; font-weight:bold;""
                            >calm</p>
                            <div style=""width:240px; margin: auto;"">
                                <img src=""images/G_D_S_27.png"" style= ""width:200px""alt=""img"">
                            </div>
                        </div>","-53","","0","images/G_D_S_27.png","","","","calm","1","27","G","D","S","",""
"","","","","","html-slider-response","110","216942","0.0-102.0","pocbnf60vz","3","NaN","<div style=""width:500px;"">
                            <p style=""font-size:50px; font-weight:bold;""
                            >calm</p>
                            <div style=""width:240px; margin: auto;"">
                                <img src=""images/Y_L_S_44.png"" style= ""width:200px""alt=""img"">
                            </div>
                        </div>","-47","","0","images/Y_L_S_44.png","","","","calm","1","44","Y","L","S","",""
"","","","","","html-slider-response","111","218621","0.0-103.0","pocbnf60vz","3","NaN","<div style=""width:500px;"">
                            <p style=""font-size:50px; font-weight:bold;""
                            >calm</p>
                            <div style=""width:240px; margin: auto;"">
                                <img src=""images/B_L_S_30.png"" style= ""width:200px""alt=""img"">
                            </div>
                        </div>","-24","","0","images/B_L_S_30.png","","","","calm","1","30","B","L","S","",""
"","","","","","html-slider-response","112","219894","0.0-104.0","pocbnf60vz","3","NaN","<div style=""width:500px;"">
                            <p style=""font-size:50px; font-weight:bold;""
                            >calm</p>
                            <div style=""width:240px; margin: auto;"">
                                <img src=""images/G_L_U_26.png"" style= ""width:200px""alt=""img"">
                            </div>
                        </div>","17","","0","images/G_L_U_26.png","","","","calm","1","26","G","L","U","",""
"","","","","","html-slider-response","113","221436","0.0-105.0","pocbnf60vz","3","NaN","<div style=""width:500px;"">
                            <p style=""font-size:50px; font-weight:bold;""
                            >calm</p>
                            <div style=""width:240px; margin: auto;"">
                                <img src=""images/Y_D_U_07.png"" style= ""width:200px""alt=""img"">
                            </div>
                        </div>","32","","0","images/Y_D_U_07.png","","","","calm","2","07","Y","D","U","",""
"","","","","","html-slider-response","114","222437","0.0-106.0","pocbnf60vz","3","NaN","<div style=""width:500px;"">
                            <p style=""font-size:50px; font-weight:bold;""
                            >calm</p>
                            <div style=""width:240px; margin: auto;"">
                                <img src=""images/G_D_U_28.png"" style= ""width:200px""alt=""img"">
                            </div>
                        </div>","55","","0","images/G_D_U_28.png","","","","calm","2","28","G","D","U","",""
"","","","","","html-slider-response","115","223876","0.0-107.0","pocbnf60vz","3","NaN","<div style=""width:500px;"">
                            <p style=""font-size:50px; font-weight:bold;""
                            >calm</p>
                            <div style=""width:240px; margin: auto;"">
                                <img src=""images/Y_L_S_44.png"" style= ""width:200px""alt=""img"">
                            </div>
                        </div>","-143","","0","images/Y_L_S_44.png","","","","calm","2","44","Y","L","S","",""
"","","","","","html-slider-response","116","225355","0.0-108.0","pocbnf60vz","3","NaN","<div style=""width:500px;"">
                            <p style=""font-size:50px; font-weight:bold;""
                            >calm</p>
                            <div style=""width:240px; margin: auto;"">
                                <img src=""images/Y_D_U_07.png"" style= ""width:200px""alt=""img"">
                            </div>
                        </div>","15","","0","images/Y_D_U_07.png","","","","calm","1","07","Y","D","U","",""
"","","","","","html-slider-response","117","226220","0.0-109.0","pocbnf60vz","3","NaN","<div style=""width:500px;"">
                            <p style=""font-size:50px; font-weight:bold;""
                            >calm</p>
                            <div style=""width:240px; margin: auto;"">
                                <img src=""images/R_D_U_15.png"" style= ""width:200px""alt=""img"">
                            </div>
                        </div>","-98","","0","images/R_D_U_15.png","","","","calm","2","15","R","D","U","",""
"","","","","","html-slider-response","118","227140","0.0-110.0","pocbnf60vz","3","NaN","<div style=""width:500px;"">
                            <p style=""font-size:50px; font-weight:bold;""
                            >calm</p>
                            <div style=""width:240px; margin: auto;"">
                                <img src=""images/R_L_U_12.png"" style= ""width:200px""alt=""img"">
                            </div>
                        </div>","107","","0","images/R_L_U_12.png","","","","calm","2","12","R","L","U","",""
"","","","","","html-slider-response","119","227948","0.0-111.0","pocbnf60vz","3","NaN","<div style=""width:500px;"">
                            <p style=""font-size:50px; font-weight:bold;""
                            >calm</p>
                            <div style=""width:240px; margin: auto;"">
                                <img src=""images/Y_L_U_02.png"" style= ""width:200px""alt=""img"">
                            </div>
                        </div>","-101","","0","images/Y_L_U_02.png","","","","calm","2","02","Y","L","U","",""
"","","","","","html-slider-response","120","228787","0.0-112.0","pocbnf60vz","3","NaN","<div style=""width:500px;"">
                            <p style=""font-size:50px; font-weight:bold;""
                            >calm</p>
                            <div style=""width:240px; margin: auto;"">
                                <img src=""images/R_L_S_10.png"" style= ""width:200px""alt=""img"">
                            </div>
                        </div>","3","","0","images/R_L_S_10.png","","","","calm","2","10","R","L","S","",""
"","","","","","html-slider-response","121","230316","0.0-113.0","pocbnf60vz","3","NaN","<div style=""width:500px;"">
                            <p style=""font-size:50px; font-weight:bold;""
                            >calm</p>
                            <div style=""width:240px; margin: auto;"">
                                <img src=""images/Y_L_U_02.png"" style= ""width:200px""alt=""img"">
                            </div>
                        </div>","31","","0","images/Y_L_U_02.png","","","","calm","1","02","Y","L","U","",""
"","","","","","html-button-response","122","231855","0.0-114.0","pocbnf60vz","3","1036","<p>Great Job! You've finished block 3.<br></br> You have 5 block(s) left to go.<br></br></p>","0","","","","","","","","","","","","","",""
"","","","","","html-button-response","123","232672","0.0-115.0","pocbnf60vz","3","815","<p>In this block of trials, you will be asked to rate how much you associate each map with:</p > <p style = 'font-size:150%; font-weight: bold'>disturbing</p><br></br>","0","","","","","","","","","","","","","",""
"","","","","","html-slider-response","124","233484","0.0-116.0","pocbnf60vz","3","NaN","<div style=""width:500px;"">
                            <p style=""font-size:50px; font-weight:bold;""
                            >disturbing</p>
                            <div style=""width:240px; margin: auto;"">
                                <img src=""images/R_L_U_12.png"" style= ""width:200px""alt=""img"">
                            </div>
                        </div>","-78","","0","images/R_L_U_12.png","","","","disturbing","1","12","R","L","U","",""
"","","","","","html-slider-response","125","234363","0.0-117.0","pocbnf60vz","3","NaN","<div style=""width:500px;"">
                            <p style=""font-size:50px; font-weight:bold;""
                            >disturbing</p>
                            <div style=""width:240px; margin: auto;"">
                                <img src=""images/B_D_U_41.png"" style= ""width:200px""alt=""img"">
                            </div>
                        </div>","-70","","0","images/B_D_U_41.png","","","","disturbing","2","41","B","D","U","",""
"","","","","","html-slider-response","126","235442","0.0-118.0","pocbnf60vz","3","NaN","<div style=""width:500px;"">
                            <p style=""font-size:50px; font-weight:bold;""
                            >disturbing</p>
                            <div style=""width:240px; margin: auto;"">
                                <img src=""images/B_L_S_30.png"" style= ""width:200px""alt=""img"">
                            </div>
                        </div>","-43","","0","images/B_L_S_30.png","","","","disturbing","2","30","B","L","S","",""
"","","","","","html-slider-response","127","237274","0.0-119.0","pocbnf60vz","3","NaN","<div style=""width:500px;"">
                            <p style=""font-size:50px; font-weight:bold;""
                            >disturbing</p>
                            <div style=""width:240px; margin: auto;"">
                                <img src=""images/Y_L_S_44.png"" style= ""width:200px""alt=""img"">
                            </div>
                        </div>","-94","","0","images/Y_L_S_44.png","","","","disturbing","2","44","Y","L","S","",""
"","","","","","html-slider-response","128","238002","0.0-120.0","pocbnf60vz","3","NaN","<div style=""width:500px;"">
                            <p style=""font-size:50px; font-weight:bold;""
                            >disturbing</p>
                            <div style=""width:240px; margin: auto;"">
                                <img src=""images/R_L_U_12.png"" style= ""width:200px""alt=""img"">
                            </div>
                        </div>","-20","","0","images/R_L_U_12.png","","","","disturbing","2","12","R","L","U","",""
"","","","","","html-slider-response","129","238898","0.0-121.0","pocbnf60vz","3","NaN","<div style=""width:500px;"">
                            <p style=""font-size:50px; font-weight:bold;""
                            >disturbing</p>
                            <div style=""width:240px; margin: auto;"">
                                <img src=""images/R_D_U_15.png"" style= ""width:200px""alt=""img"">
                            </div>
                        </div>","-61","","0","images/R_D_U_15.png","","","","disturbing","2","15","R","D","U","",""
"","","","","","html-slider-response","130","239618","0.0-122.0","pocbnf60vz","3","NaN","<div style=""width:500px;"">
                            <p style=""font-size:50px; font-weight:bold;""
                            >disturbing</p>
                            <div style=""width:240px; margin: auto;"">
                                <img src=""images/Y_D_S_05.png"" style= ""width:200px""alt=""img"">
                            </div>
                        </div>","-84","","0","images/Y_D_S_05.png","","","","disturbing","1","05","Y","D","S","",""
"","","","","","html-slider-response","131","240441","0.0-123.0","pocbnf60vz","3","NaN","<div style=""width:500px;"">
                            <p style=""font-size:50px; font-weight:bold;""
                            >disturbing</p>
                            <div style=""width:240px; margin: auto;"">
                                <img src=""images/G_D_S_27.png"" style= ""width:200px""alt=""img"">
                            </div>
                        </div>","-90","","0","images/G_D_S_27.png","","","","disturbing","1","27","G","D","S","",""
"","","","","","html-slider-response","132","241465","0.0-124.0","pocbnf60vz","3","NaN","<div style=""width:500px;"">
                            <p style=""font-size:50px; font-weight:bold;""
                            >disturbing</p>
                            <div style=""width:240px; margin: auto;"">
                                <img src=""images/R_D_S_13.png"" style= ""width:200px""alt=""img"">
                            </div>
                        </div>","-98","","0","images/R_D_S_13.png","","","","disturbing","1","13","R","D","S","",""
"","","","","","html-slider-response","133","242545","0.0-125.0","pocbnf60vz","3","NaN","<div style=""width:500px;"">
                            <p style=""font-size:50px; font-weight:bold;""
                            >disturbing</p>
                            <div style=""width:240px; margin: auto;"">
                                <img src=""images/G_L_S_23.png"" style= ""width:200px""alt=""img"">
                            </div>
                        </div>","-114","","0","images/G_L_S_23.png","","","","disturbing","1","23","G","L","S","",""
"","","","","","html-slider-response","134","243418","0.0-126.0","pocbnf60vz","3","NaN","<div style=""width:500px;"">
                            <p style=""font-size:50px; font-weight:bold;""
                            >disturbing</p>
                            <div style=""width:240px; margin: auto;"">
                                <img src=""images/R_D_U_15.png"" style= ""width:200px""alt=""img"">
                            </div>
                        </div>","-99","","0","images/R_D_U_15.png","","","","disturbing","1","15","R","D","U","",""
"","","","","","html-slider-response","135","244209","0.0-127.0","pocbnf60vz","3","NaN","<div style=""width:500px;"">
                            <p style=""font-size:50px; font-weight:bold;""
                            >disturbing</p>
                            <div style=""width:240px; margin: auto;"">
                                <img src=""images/B_D_S_37.png"" style= ""width:200px""alt=""img"">
                            </div>
                        </div>","-28","","0","images/B_D_S_37.png","","","","disturbing","1","37","B","D","S","",""
"","","","","","html-slider-response","136","245064","0.0-128.0","pocbnf60vz","3","NaN","<div style=""width:500px;"">
                            <p style=""font-size:50px; font-weight:bold;""
                            >disturbing</p>
                            <div style=""width:240px; margin: auto;"">
                                <img src=""images/B_L_U_33.png"" style= ""width:200px""alt=""img"">
                            </div>
                        </div>","-81","","0","images/B_L_U_33.png","","","","disturbing","1","33","B","L","U","",""
"","","","","","html-slider-response","137","245928","0.0-129.0","pocbnf60vz","3","NaN","<div style=""width:500px;"">
                            <p style=""font-size:50px; font-weight:bold;""
                            >disturbing</p>
                            <div style=""width:240px; margin: auto;"">
                                <img src=""images/Y_D_U_07.png"" style= ""width:200px""alt=""img"">
                            </div>
                        </div>","-106","","0","images/Y_D_U_07.png","","","","disturbing","2","07","Y","D","U","",""
"","","","","","html-slider-response","138","246857","0.0-130.0","pocbnf60vz","3","NaN","<div style=""width:500px;"">
                            <p style=""font-size:50px; font-weight:bold;""
                            >disturbing</p>
                            <div style=""width:240px; margin: auto;"">
                                <img src=""images/Y_D_U_07.png"" style= ""width:200px""alt=""img"">
                            </div>
                        </div>","-22","","0","images/Y_D_U_07.png","","","","disturbing","1","07","Y","D","U","",""
"","","","","","html-slider-response","139","247544","0.0-131.0","pocbnf60vz","3","NaN","<div style=""width:500px;"">
                            <p style=""font-size:50px; font-weight:bold;""
                            >disturbing</p>
                            <div style=""width:240px; margin: auto;"">
                                <img src=""images/G_L_U_26.png"" style= ""width:200px""alt=""img"">
                            </div>
                        </div>","36","","0","images/G_L_U_26.png","","","","disturbing","2","26","G","L","U","",""
"","","","","","html-slider-response","140","248209","0.0-132.0","pocbnf60vz","3","NaN","<div style=""width:500px;"">
                            <p style=""font-size:50px; font-weight:bold;""
                            >disturbing</p>
                            <div style=""width:240px; margin: auto;"">
                                <img src=""images/G_L_S_23.png"" style= ""width:200px""alt=""img"">
                            </div>
                        </div>","-90","","0","images/G_L_S_23.png","","","","disturbing","2","23","G","L","S","",""
"","","","","","html-slider-response","141","249088","0.0-133.0","pocbnf60vz","3","NaN","<div style=""width:500px;"">
                            <p style=""font-size:50px; font-weight:bold;""
                            >disturbing</p>
                            <div style=""width:240px; margin: auto;"">
                                <img src=""images/B_D_S_37.png"" style= ""width:200px""alt=""img"">
                            </div>
                        </div>","-85","","0","images/B_D_S_37.png","","","","disturbing","2","37","B","D","S","",""
"","","","","","html-slider-response","142","250129","0.0-134.0","pocbnf60vz","3","NaN","<div style=""width:500px;"">
                            <p style=""font-size:50px; font-weight:bold;""
                            >disturbing</p>
                            <div style=""width:240px; margin: auto;"">
                                <img src=""images/B_L_S_30.png"" style= ""width:200px""alt=""img"">
                            </div>
                        </div>","-102","","0","images/B_L_S_30.png","","","","disturbing","1","30","B","L","S","",""
"","","","","","html-slider-response","143","251143","0.0-135.0","pocbnf60vz","3","NaN","<div style=""width:500px;"">
                            <p style=""font-size:50px; font-weight:bold;""
                            >disturbing</p>
                            <div style=""width:240px; margin: auto;"">
                                <img src=""images/G_D_U_28.png"" style= ""width:200px""alt=""img"">
                            </div>
                        </div>","-84","","0","images/G_D_U_28.png","","","","disturbing","2","28","G","D","U","",""
"","","","","","html-slider-response","144","251992","0.0-136.0","pocbnf60vz","3","NaN","<div style=""width:500px;"">
                            <p style=""font-size:50px; font-weight:bold;""
                            >disturbing</p>
                            <div style=""width:240px; margin: auto;"">
                                <img src=""images/Y_L_U_02.png"" style= ""width:200px""alt=""img"">
                            </div>
                        </div>","-123","","0","images/Y_L_U_02.png","","","","disturbing","2","02","Y","L","U","",""
"","","","","","html-slider-response","145","252775","0.0-137.0","pocbnf60vz","3","NaN","<div style=""width:500px;"">
                            <p style=""font-size:50px; font-weight:bold;""
                            >disturbing</p>
                            <div style=""width:240px; margin: auto;"">
                                <img src=""images/Y_L_U_02.png"" style= ""width:200px""alt=""img"">
                            </div>
                        </div>","-41","","0","images/Y_L_U_02.png","","","","disturbing","1","02","Y","L","U","",""
"","","","","","html-slider-response","146","254840","0.0-138.0","pocbnf60vz","3","NaN","<div style=""width:500px;"">
                            <p style=""font-size:50px; font-weight:bold;""
                            >disturbing</p>
                            <div style=""width:240px; margin: auto;"">
                                <img src=""images/Y_L_S_44.png"" style= ""width:200px""alt=""img"">
                            </div>
                        </div>","-106","","0","images/Y_L_S_44.png","","","","disturbing","1","44","Y","L","S","",""
"","","","","","html-slider-response","147","255582","0.0-139.0","pocbnf60vz","3","NaN","<div style=""width:500px;"">
                            <p style=""font-size:50px; font-weight:bold;""
                            >disturbing</p>
                            <div style=""width:240px; margin: auto;"">
                                <img src=""images/G_D_S_27.png"" style= ""width:200px""alt=""img"">
                            </div>
                        </div>","-151","","0","images/G_D_S_27.png","","","","disturbing","2","27","G","D","S","",""
"","","","","","html-slider-response","148","256632","0.0-140.0","pocbnf60vz","3","NaN","<div style=""width:500px;"">
                            <p style=""font-size:50px; font-weight:bold;""
                            >disturbing</p>
                            <div style=""width:240px; margin: auto;"">
                                <img src=""images/B_L_U_33.png"" style= ""width:200px""alt=""img"">
                            </div>
                        </div>","-169","","0","images/B_L_U_33.png","","","","disturbing","2","33","B","L","U","",""
"","","","","","html-slider-response","149","259622","0.0-141.0","pocbnf60vz","3","NaN","<div style=""width:500px;"">
                            <p style=""font-size:50px; font-weight:bold;""
                            >disturbing</p>
                            <div style=""width:240px; margin: auto;"">
                                <img src=""images/G_D_U_28.png"" style= ""width:200px""alt=""img"">
                            </div>
                        </div>","-114","","0","images/G_D_U_28.png","","","","disturbing","1","28","G","D","U","",""
"","","","","","html-slider-response","150","260734","0.0-142.0","pocbnf60vz","3","NaN","<div style=""width:500px;"">
                            <p style=""font-size:50px; font-weight:bold;""
                            >disturbing</p>
                            <div style=""width:240px; margin: auto;"">
                                <img src=""images/B_D_U_41.png"" style= ""width:200px""alt=""img"">
                            </div>
                        </div>","-114","","0","images/B_D_U_41.png","","","","disturbing","1","41","B","D","U","",""
"","","","","","html-slider-response","151","261391","0.0-143.0","pocbnf60vz","3","NaN","<div style=""width:500px;"">
                            <p style=""font-size:50px; font-weight:bold;""
                            >disturbing</p>
                            <div style=""width:240px; margin: auto;"">
                                <img src=""images/G_L_U_26.png"" style= ""width:200px""alt=""img"">
                            </div>
                        </div>","66","","0","images/G_L_U_26.png","","","","disturbing","1","26","G","L","U","",""
"","","","","","html-slider-response","152","262575","0.0-144.0","pocbnf60vz","3","NaN","<div style=""width:500px;"">
                            <p style=""font-size:50px; font-weight:bold;""
                            >disturbing</p>
                            <div style=""width:240px; margin: auto;"">
                                <img src=""images/Y_D_S_05.png"" style= ""width:200px""alt=""img"">
                            </div>
                        </div>","-137","","0","images/Y_D_S_05.png","","","","disturbing","2","05","Y","D","S","",""
"","","","","","html-slider-response","153","263630","0.0-145.0","pocbnf60vz","3","NaN","<div style=""width:500px;"">
                            <p style=""font-size:50px; font-weight:bold;""
                            >disturbing</p>
                            <div style=""width:240px; margin: auto;"">
                                <img src=""images/R_D_S_13.png"" style= ""width:200px""alt=""img"">
                            </div>
                        </div>","22","","0","images/R_D_S_13.png","","","","disturbing","2","13","R","D","S","",""
"","","","","","html-slider-response","154","264495","0.0-146.0","pocbnf60vz","3","NaN","<div style=""width:500px;"">
                            <p style=""font-size:50px; font-weight:bold;""
                            >disturbing</p>
                            <div style=""width:240px; margin: auto;"">
                                <img src=""images/R_L_S_10.png"" style= ""width:200px""alt=""img"">
                            </div>
                        </div>","-97","","0","images/R_L_S_10.png","","","","disturbing","1","10","R","L","S","",""
"","","","","","html-slider-response","155","265206","0.0-147.0","pocbnf60vz","3","NaN","<div style=""width:500px;"">
                            <p style=""font-size:50px; font-weight:bold;""
                            >disturbing</p>
                            <div style=""width:240px; margin: auto;"">
                                <img src=""images/R_L_S_10.png"" style= ""width:200px""alt=""img"">
                            </div>
                        </div>","54","","0","images/R_L_S_10.png","","","","disturbing","2","10","R","L","S","",""
"","","","","","html-button-response","156","266843","0.0-148.0","pocbnf60vz","3","1135","<p>Great Job! You've finished block 4.<br></br> You have 4 block(s) left to go.<br></br></p>","0","","","","","","","","","","","","","",""
"","","","","","html-button-response","157","268066","0.0-149.0","pocbnf60vz","3","1222","<p>In this block of trials, you will be asked to rate how much you associate each map with:</p > <p style = 'font-size:150%; font-weight: bold'>positive</p><br></br>","0","","","","","","","","","","","","","",""
"","","","","","html-slider-response","158","269157","0.0-150.0","pocbnf60vz","3","NaN","<div style=""width:500px;"">
                            <p style=""font-size:50px; font-weight:bold;""
                            >positive</p>
                            <div style=""width:240px; margin: auto;"">
                                <img src=""images/R_D_S_13.png"" style= ""width:200px""alt=""img"">
                            </div>
                        </div>","-132","","0","images/R_D_S_13.png","","","","positive","2","13","R","D","S","",""
"","","","","","html-slider-response","159","270069","0.0-151.0","pocbnf60vz","3","NaN","<div style=""width:500px;"">
                            <p style=""font-size:50px; font-weight:bold;""
                            >positive</p>
                            <div style=""width:240px; margin: auto;"">
                                <img src=""images/Y_L_U_02.png"" style= ""width:200px""alt=""img"">
                            </div>
                        </div>","-63","","0","images/Y_L_U_02.png","","","","positive","2","02","Y","L","U","",""
"","","","","","html-slider-response","160","270949","0.0-152.0","pocbnf60vz","3","NaN","<div style=""width:500px;"">
                            <p style=""font-size:50px; font-weight:bold;""
                            >positive</p>
                            <div style=""width:240px; margin: auto;"">
                                <img src=""images/G_D_S_27.png"" style= ""width:200px""alt=""img"">
                            </div>
                        </div>","98","","0","images/G_D_S_27.png","","","","positive","2","27","G","D","S","",""
"","","","","","html-slider-response","161","271734","0.0-153.0","pocbnf60vz","3","NaN","<div style=""width:500px;"">
                            <p style=""font-size:50px; font-weight:bold;""
                            >positive</p>
                            <div style=""width:240px; margin: auto;"">
                                <img src=""images/G_D_U_28.png"" style= ""width:200px""alt=""img"">
                            </div>
                        </div>","45","","0","images/G_D_U_28.png","","","","positive","1","28","G","D","U","",""
"","","","","","html-slider-response","162","272621","0.0-154.0","pocbnf60vz","3","NaN","<div style=""width:500px;"">
                            <p style=""font-size:50px; font-weight:bold;""
                            >positive</p>
                            <div style=""width:240px; margin: auto;"">
                                <img src=""images/G_L_U_26.png"" style= ""width:200px""alt=""img"">
                            </div>
                        </div>","-78","","0","images/G_L_U_26.png","","","","positive","1","26","G","L","U","",""
"","","","","","html-slider-response","163","273453","0.0-155.0","pocbnf60vz","3","NaN","<div style=""width:500px;"">
                            <p style=""font-size:50px; font-weight:bold;""
                            >positive</p>
                            <div style=""width:240px; margin: auto;"">
                                <img src=""images/Y_D_S_05.png"" style= ""width:200px""alt=""img"">
                            </div>
                        </div>","166","","0","images/Y_D_S_05.png","","","","positive","2","05","Y","D","S","",""
"","","","","","html-slider-response","164","274187","0.0-156.0","pocbnf60vz","3","NaN","<div style=""width:500px;"">
                            <p style=""font-size:50px; font-weight:bold;""
                            >positive</p>
                            <div style=""width:240px; margin: auto;"">
                                <img src=""images/Y_D_S_05.png"" style= ""width:200px""alt=""img"">
                            </div>
                        </div>","-49","","0","images/Y_D_S_05.png","","","","positive","1","05","Y","D","S","",""
"","","","","","html-slider-response","165","275140","0.0-157.0","pocbnf60vz","3","NaN","<div style=""width:500px;"">
                            <p style=""font-size:50px; font-weight:bold;""
                            >positive</p>
                            <div style=""width:240px; margin: auto;"">
                                <img src=""images/Y_D_U_07.png"" style= ""width:200px""alt=""img"">
                            </div>
                        </div>","133","","0","images/Y_D_U_07.png","","","","positive","1","07","Y","D","U","",""
"","","","","","html-slider-response","166","275988","0.0-158.0","pocbnf60vz","3","NaN","<div style=""width:500px;"">
                            <p style=""font-size:50px; font-weight:bold;""
                            >positive</p>
                            <div style=""width:240px; margin: auto;"">
                                <img src=""images/B_D_U_41.png"" style= ""width:200px""alt=""img"">
                            </div>
                        </div>","61","","0","images/B_D_U_41.png","","","","positive","1","41","B","D","U","",""
"","","","","","html-slider-response","167","276692","0.0-159.0","pocbnf60vz","3","NaN","<div style=""width:500px;"">
                            <p style=""font-size:50px; font-weight:bold;""
                            >positive</p>
                            <div style=""width:240px; margin: auto;"">
                                <img src=""images/R_D_S_13.png"" style= ""width:200px""alt=""img"">
                            </div>
                        </div>","43","","0","images/R_D_S_13.png","","","","positive","1","13","R","D","S","",""
"","","","","","html-slider-response","168","277564","0.0-160.0","pocbnf60vz","3","NaN","<div style=""width:500px;"">
                            <p style=""font-size:50px; font-weight:bold;""
                            >positive</p>
                            <div style=""width:240px; margin: auto;"">
                                <img src=""images/Y_D_U_07.png"" style= ""width:200px""alt=""img"">
                            </div>
                        </div>","-74","","0","images/Y_D_U_07.png","","","","positive","2","07","Y","D","U","",""
"","","","","","html-slider-response","169","278396","0.0-161.0","pocbnf60vz","3","NaN","<div style=""width:500px;"">
                            <p style=""font-size:50px; font-weight:bold;""
                            >positive</p>
                            <div style=""width:240px; margin: auto;"">
                                <img src=""images/Y_L_S_44.png"" style= ""width:200px""alt=""img"">
                            </div>
                        </div>","-89","","0","images/Y_L_S_44.png","","","","positive","1","44","Y","L","S","",""
"","","","","","html-slider-response","170","279579","0.0-162.0","pocbnf60vz","3","NaN","<div style=""width:500px;"">
                            <p style=""font-size:50px; font-weight:bold;""
                            >positive</p>
                            <div style=""width:240px; margin: auto;"">
                                <img src=""images/R_L_S_10.png"" style= ""width:200px""alt=""img"">
                            </div>
                        </div>","-104","","0","images/R_L_S_10.png","","","","positive","2","10","R","L","S","",""
"","","","","","html-slider-response","171","280443","0.0-163.0","pocbnf60vz","3","NaN","<div style=""width:500px;"">
                            <p style=""font-size:50px; font-weight:bold;""
                            >positive</p>
                            <div style=""width:240px; margin: auto;"">
                                <img src=""images/R_D_U_15.png"" style= ""width:200px""alt=""img"">
                            </div>
                        </div>","77","","0","images/R_D_U_15.png","","","","positive","1","15","R","D","U","",""
"","","","","","html-slider-response","172","281483","0.0-164.0","pocbnf60vz","3","NaN","<div style=""width:500px;"">
                            <p style=""font-size:50px; font-weight:bold;""
                            >positive</p>
                            <div style=""width:240px; margin: auto;"">
                                <img src=""images/G_D_S_27.png"" style= ""width:200px""alt=""img"">
                            </div>
                        </div>","61","","0","images/G_D_S_27.png","","","","positive","1","27","G","D","S","",""
"","","","","","html-slider-response","173","282707","0.0-165.0","pocbnf60vz","3","NaN","<div style=""width:500px;"">
                            <p style=""font-size:50px; font-weight:bold;""
                            >positive</p>
                            <div style=""width:240px; margin: auto;"">
                                <img src=""images/R_L_U_12.png"" style= ""width:200px""alt=""img"">
                            </div>
                        </div>","-53","","0","images/R_L_U_12.png","","","","positive","1","12","R","L","U","",""
"","","","","","html-slider-response","174","283914","0.0-166.0","pocbnf60vz","3","NaN","<div style=""width:500px;"">
                            <p style=""font-size:50px; font-weight:bold;""
                            >positive</p>
                            <div style=""width:240px; margin: auto;"">
                                <img src=""images/G_L_S_23.png"" style= ""width:200px""alt=""img"">
                            </div>
                        </div>","16","","0","images/G_L_S_23.png","","","","positive","1","23","G","L","S","",""
"","","","","","html-slider-response","175","285138","0.0-167.0","pocbnf60vz","3","NaN","<div style=""width:500px;"">
                            <p style=""font-size:50px; font-weight:bold;""
                            >positive</p>
                            <div style=""width:240px; margin: auto;"">
                                <img src=""images/B_L_U_33.png"" style= ""width:200px""alt=""img"">
                            </div>
                        </div>","-18","","0","images/B_L_U_33.png","","","","positive","1","33","B","L","U","",""
"","","","","","html-slider-response","176","286090","0.0-168.0","pocbnf60vz","3","NaN","<div style=""width:500px;"">
                            <p style=""font-size:50px; font-weight:bold;""
                            >positive</p>
                            <div style=""width:240px; margin: auto;"">
                                <img src=""images/B_L_U_33.png"" style= ""width:200px""alt=""img"">
                            </div>
                        </div>","53","","0","images/B_L_U_33.png","","","","positive","2","33","B","L","U","",""
"","","","","","html-slider-response","177","286986","0.0-169.0","pocbnf60vz","3","NaN","<div style=""width:500px;"">
                            <p style=""font-size:50px; font-weight:bold;""
                            >positive</p>
                            <div style=""width:240px; margin: auto;"">
                                <img src=""images/Y_L_S_44.png"" style= ""width:200px""alt=""img"">
                            </div>
                        </div>","11","","0","images/Y_L_S_44.png","","","","positive","2","44","Y","L","S","",""
"","","","","","html-slider-response","178","287746","0.0-170.0","pocbnf60vz","3","NaN","<div style=""width:500px;"">
                            <p style=""font-size:50px; font-weight:bold;""
                            >positive</p>
                            <div style=""width:240px; margin: auto;"">
                                <img src=""images/B_D_S_37.png"" style= ""width:200px""alt=""img"">
                            </div>
                        </div>","-102","","0","images/B_D_S_37.png","","","","positive","2","37","B","D","S","",""
"","","","","","html-slider-response","179","288625","0.0-171.0","pocbnf60vz","3","NaN","<div style=""width:500px;"">
                            <p style=""font-size:50px; font-weight:bold;""
                            >positive</p>
                            <div style=""width:240px; margin: auto;"">
                                <img src=""images/R_L_U_12.png"" style= ""width:200px""alt=""img"">
                            </div>
                        </div>","-78","","0","images/R_L_U_12.png","","","","positive","2","12","R","L","U","",""
"","","","","","html-slider-response","180","289305","0.0-172.0","pocbnf60vz","3","NaN","<div style=""width:500px;"">
                            <p style=""font-size:50px; font-weight:bold;""
                            >positive</p>
                            <div style=""width:240px; margin: auto;"">
                                <img src=""images/Y_L_U_02.png"" style= ""width:200px""alt=""img"">
                            </div>
                        </div>","-10","","0","images/Y_L_U_02.png","","","","positive","1","02","Y","L","U","",""
"","","","","","html-slider-response","181","290089","0.0-173.0","pocbnf60vz","3","NaN","<div style=""width:500px;"">
                            <p style=""font-size:50px; font-weight:bold;""
                            >positive</p>
                            <div style=""width:240px; margin: auto;"">
                                <img src=""images/B_L_S_30.png"" style= ""width:200px""alt=""img"">
                            </div>
                        </div>","28","","0","images/B_L_S_30.png","","","","positive","2","30","B","L","S","",""
"","","","","","html-slider-response","182","290762","0.0-174.0","pocbnf60vz","3","NaN","<div style=""width:500px;"">
                            <p style=""font-size:50px; font-weight:bold;""
                            >positive</p>
                            <div style=""width:240px; margin: auto;"">
                                <img src=""images/B_D_S_37.png"" style= ""width:200px""alt=""img"">
                            </div>
                        </div>","-42","","0","images/B_D_S_37.png","","","","positive","1","37","B","D","S","",""
"","","","","","html-slider-response","183","291401","0.0-175.0","pocbnf60vz","3","NaN","<div style=""width:500px;"">
                            <p style=""font-size:50px; font-weight:bold;""
                            >positive</p>
                            <div style=""width:240px; margin: auto;"">
                                <img src=""images/B_D_U_41.png"" style= ""width:200px""alt=""img"">
                            </div>
                        </div>","-92","","0","images/B_D_U_41.png","","","","positive","2","41","B","D","U","",""
"","","","","","html-slider-response","184","292120","0.0-176.0","pocbnf60vz","3","NaN","<div style=""width:500px;"">
                            <p style=""font-size:50px; font-weight:bold;""
                            >positive</p>
                            <div style=""width:240px; margin: auto;"">
                                <img src=""images/R_D_U_15.png"" style= ""width:200px""alt=""img"">
                            </div>
                        </div>","38","","0","images/R_D_U_15.png","","","","positive","2","15","R","D","U","",""
"","","","","","html-slider-response","185","292993","0.0-177.0","pocbnf60vz","3","NaN","<div style=""width:500px;"">
                            <p style=""font-size:50px; font-weight:bold;""
                            >positive</p>
                            <div style=""width:240px; margin: auto;"">
                                <img src=""images/B_L_S_30.png"" style= ""width:200px""alt=""img"">
                            </div>
                        </div>","-130","","0","images/B_L_S_30.png","","","","positive","1","30","B","L","S","",""
