"success","timeout","failed_images","failed_audio","failed_video","trial_type","trial_index","time_elapsed","internal_node_id","subject_id","condition_num","rt","stimulus","response","question_order","slider_start","image_path","practiceTrial","practiceTrialNum","correct","concept","repetition","map_id","hue","lightness","saturation","ishihara_plate","correct_response"
"true","false","[]","[]","[]","preload","0","851","0.0-0.0","ptamah5jpp","10","","","","","","","","","","","","","","","","",""
"","","","","","html-button-response","1","2548","0.0-1.0","ptamah5jpp","10","1695","Welcome to our experiment!<p>At the bottom of this screen, you will see a button that says ""Begin Experiment"".<br>Please only click that button when you are ready to complete the 25 minute experiment in one sitting.</p><p> Once you click that button, it will not be possible to restart the experiment.","0","","","","","","","","","","","","","",""
"true","","","","","fullscreen","2","4620","0.0-2.0","ptamah5jpp","10","1069","","","","","","","","","","","","","","","",""
"","","","","","survey-multi-select","3","7654","0.0-3.0","ptamah5jpp","10","3032","","{""Consent"":[""<strong>I consent</strong>""]}","[0]","","","","","","","","","","","","",""
"","","","","","html-button-response","4","8568","0.0-4.0","ptamah5jpp","10","913","Welcome! <p> This experiment involves two parts: demographic information, followed by the experimental task.<p> It will take about 25 minutes to complete both parts.","0","","","","","","","","","","","","","",""
"","","","","","survey-text","5","19556","0.0-5.0","ptamah5jpp","10","10982","","{""Age"":""19"",""Gender"":""female"",""Race/ethnicity"":""white"",""Languages"":""english""}","","","","","","","","","","","","","",""
"","","","","","html-slider-response","6","24248","0.0-6.0","ptamah5jpp","10","4691","
                            <div style='text-align:left; font-size:20px; line-height:25px; width: 1400px;'>
                                During this experiment you will be asked to rate how much you associate maps with                    different concepts.<br> Below, you can see some examples of the maps you will be asked to rate. Next to the maps
                    is the list of concepts.<br>You will be asked                    to rate how much you associate each map with each concept on a scale from 'not at all' to 'very much' like the
                    one below. <br><br>
                    Now, please look at the list of concepts and maps. For each concept, think about the map you associate 'very
                    much' with the concept.<br>                     When you see that map during the experiment, please rate it near the 'very much' endpoint of the
                    scale.<br>Now, please think about which map you associate 'not at all'                     with each concept. When you see that map during the experiment, please rate it near the 'not at all' endpoint
                    of the scale.<br>
                    Please use the full range of the scale. That is, if a map is somewhat associated with the concept, you would
                    click partway between the middle point and right side of the scale.                    You will be asked to rate each map for a given concept before moving on to the next concept.<br><br>Press the
                    'Continue' button for instructions on how to use the slider.                    <br><br>
                </div>

                <div style=""width: 500px; margin: 0 auto;"">
                    <!-- Centered text paragraphs -->
                    <div style=""text-align: center; width: 500px;"">
                        <p style=""font-size:25px; line-height:18px;"">calm</p>
                        <p style=""font-size:25px; line-height:18px;"">exciting</p>
                        <p style=""font-size:25px;line-height:18px;"">positive</p>
                        <p style=""font-size:25px;line-height:18px;"">negative</p>
                        <p style=""font-size:25px;line-height:18px;"">serious</p>
                        <p style=""font-size:25px;line-height:18px;"">playful</p>
                        <p style=""font-size:25px;line-height:18px;"">trustworthy</p>
                        <p style=""font-size:25px;line-height:18px;"">disturbing</p>
                    </div>

                    <!-- Grid section -->
                   <div style=""display: flex; justify-content: center; padding-top: 15px;"">
                    <div style=""display: grid; grid-template-columns: repeat(8, 80px); grid-gap: 5px; width: auto;"">
                        <img src=""images/R_D_U_37.png"" alt=""map"" style=""width: 100%;""><img src=""images/G_D_S_02.png"" alt=""map"" style=""width: 100%;""><img src=""images/R_L_U_30.png"" alt=""map"" style=""width: 100%;""><img src=""images/B_L_U_10.png"" alt=""map"" style=""width: 100%;""><img src=""images/G_D_U_05.png"" alt=""map"" style=""width: 100%;""><img src=""images/R_L_S_28.png"" alt=""map"" style=""width: 100%;""><img src=""images/R_D_S_33.png"" alt=""map"" style=""width: 100%;""><img src=""images/Y_D_S_26.png"" alt=""map"" style=""width: 100%;""><img src=""images/Y_L_U_23.png"" alt=""map"" style=""width: 100%;""><img src=""images/Y_L_S_15.png"" alt=""map"" style=""width: 100%;""><img src=""images/G_L_U_44.png"" alt=""map"" style=""width: 100%;""><img src=""images/Y_D_U_27.png"" alt=""map"" style=""width: 100%;""><img src=""images/B_D_U_13.png"" alt=""map"" style=""width: 100%;""><img src=""images/G_L_S_41.png"" alt=""map"" style=""width: 100%;""><img src=""images/B_D_S_12.png"" alt=""map"" style=""width: 100%;""><img src=""images/B_L_S_07.png"" alt=""map"" style=""width: 100%;"">
                    </div>
                </div>

                    <!-- Clear floats -->
                    <div style=""clear: both;""></div>
                </div>
                            ","56","","0","maps_anchoring.png","true","","","","","","","","","",""
"","","","","","html-button-response","7","25490","0.0-7.0","ptamah5jpp","10","1241","<div style=""width:800px;""><p style=""text-align:left"">To move the slider, click and drag your cursor to the location of the scale where you would like to make your rating and then let go. When you let go of the slider, your response will be recorded and the next trial will begin. <br>
                    We are interested in your initial impressions of each map for the given concept, so please go with your first intuition. <br>
                    Before you begin the experiment, there will be four training trials for you to practice using the scale. <br>
                     When you are ready to start the training trials, please click ""Continue"".</p><br></div>","0","","","","","","","","","","","","","",""
"","","","","","html-slider-response","8","27236","0.0-8.0-0.0","ptamah5jpp","10","NaN","<div style=""width:500px;"">
                                    <p style=""font-size:25px;"">Please move the slider all the way to the <br> right endpoint of the scale</p>

                                    </div>
                                </div>","198","","0","","true","0","true","","","","","","","",""
"","","","","","html-button-response","9","28846","0.0-8.0-1.0","ptamah5jpp","10","1108","<p align='center'><b>Good job!</b> Click on 'Continue' to proceed.</p>","0","","","","","","","","","","","","","",""
"","","","","","html-slider-response","10","29906","0.0-9.0-0.0","ptamah5jpp","10","NaN","<div style=""width:500px;"">
                                    <p style=""font-size:25px;"">Please move the slider all the way to the <br> left endpoint of the scale</p>

                                    </div>
                                </div>","-198","","0","","true","1","true","","","","","","","",""
"","","","","","html-button-response","11","38238","0.0-9.0-1.0","ptamah5jpp","10","7830","<p align='center'><b>Good job!</b> Click on 'Continue' to proceed.</p>","0","","","","","","","","","","","","","",""
"","","","","","html-slider-response","12","41656","0.0-10.0-0.0","ptamah5jpp","10","NaN","<div style=""width:500px;"">
                                    <p style=""font-size:25px;"">Please move the slider halfway between the center and right endpoint of the scale</p>

                                    </div>
                                </div>","92","","0","","true","2","true","","","","","","","",""
"","","","","","html-button-response","13","42842","0.0-10.0-1.0","ptamah5jpp","10","684","<p align='center'><b>Good job!</b> Click on 'Continue' to proceed.</p>","0","","","","","","","","","","","","","",""
"","","","","","html-slider-response","14","44349","0.0-11.0-0.0","ptamah5jpp","10","NaN","<div style=""width:500px;"">
                                    <p style=""font-size:25px;"">Please move the slider halfway between the center and left endpoint of the scale</p>

                                    </div>
                                </div>","-119","","0","","true","3","false","","","","","","","",""
"","","","","","html-button-response","15","47508","0.0-11.0-1.0","ptamah5jpp","10","2657","<p align='center'><b>Not quite!</b> The slider was not placed near the instructed located. Click on 'Continue' to try again. </p>","0","","","","","","","","","","","","","",""
"","","","","","html-slider-response","16","48943","0.0-11.1-0.1","ptamah5jpp","10","NaN","<div style=""width:500px;"">
                                    <p style=""font-size:25px;"">Please move the slider halfway between the center and left endpoint of the scale</p>

                                    </div>
                                </div>","3","","0","","true","3","false","","","","","","","",""
"","","","","","html-button-response","17","50258","0.0-11.1-1.1","ptamah5jpp","10","812","<p align='center'><b>Not quite!</b> The slider was not placed near the instructed located. Click on 'Continue' to try again. </p>","0","","","","","","","","","","","","","",""
"","","","","","html-slider-response","18","51075","0.0-11.2-0.2","ptamah5jpp","10","NaN","<div style=""width:500px;"">
                                    <p style=""font-size:25px;"">Please move the slider halfway between the center and left endpoint of the scale</p>

                                    </div>
                                </div>","-106","","0","","true","3","true","","","","","","","",""
"","","","","","html-button-response","19","53167","0.0-11.2-1.2","ptamah5jpp","10","1590","<p align='center'><b>Good job!</b> Click on 'Continue' to proceed.</p>","0","","","","","","","","","","","","","",""
"","","","","","html-button-response","20","53680","0.0-12.0","ptamah5jpp","10","512","<p>Great job! You've completed the practice trials. Now you will begin the main task.</p>","0","","","","","","","","","","","","","",""
"","","","","","html-button-response","21","54424","0.0-13.0","ptamah5jpp","10","744","<p>In this block of trials, you will be asked to rate how much you associate each map with:</p > <p style = 'font-size:150%; font-weight: bold'>calm</p><br></br>","0","","","","","","","","","","","","","",""
"","","","","","html-slider-response","22","55284","0.0-14.0","ptamah5jpp","10","NaN","<div style=""width:500px;"">
                            <p style=""font-size:50px; font-weight:bold;""
                            >calm</p>
                            <div style=""width:240px; margin: auto;"">
                                <img src=""images/Y_D_U_27.png"" style= ""width:200px""alt=""img"">
                            </div>
                        </div>","2","","0","images/Y_D_U_27.png","","","","calm","1","27","Y","D","U","",""
"","","","","","html-slider-response","23","55998","0.0-15.0","ptamah5jpp","10","NaN","<div style=""width:500px;"">
                            <p style=""font-size:50px; font-weight:bold;""
                            >calm</p>
                            <div style=""width:240px; margin: auto;"">
                                <img src=""images/B_D_S_12.png"" style= ""width:200px""alt=""img"">
                            </div>
                        </div>","2","","0","images/B_D_S_12.png","","","","calm","1","12","B","D","S","",""
"","","","","","html-slider-response","24","56723","0.0-16.0","ptamah5jpp","10","NaN","<div style=""width:500px;"">
                            <p style=""font-size:50px; font-weight:bold;""
                            >calm</p>
                            <div style=""width:240px; margin: auto;"">
                                <img src=""images/R_L_S_28.png"" style= ""width:200px""alt=""img"">
                            </div>
                        </div>","2","","0","images/R_L_S_28.png","","","","calm","1","28","R","L","S","",""
"","","","","","html-slider-response","25","57450","0.0-17.0","ptamah5jpp","10","NaN","<div style=""width:500px;"">
                            <p style=""font-size:50px; font-weight:bold;""
                            >calm</p>
                            <div style=""width:240px; margin: auto;"">
                                <img src=""images/G_L_S_41.png"" style= ""width:200px""alt=""img"">
                            </div>
                        </div>","2","","0","images/G_L_S_41.png","","","","calm","2","41","G","L","S","",""
"","","","","","html-slider-response","26","58244","0.0-18.0","ptamah5jpp","10","NaN","<div style=""width:500px;"">
                            <p style=""font-size:50px; font-weight:bold;""
                            >calm</p>
                            <div style=""width:240px; margin: auto;"">
                                <img src=""images/G_L_U_44.png"" style= ""width:200px""alt=""img"">
                            </div>
                        </div>","2","","0","images/G_L_U_44.png","","","","calm","2","44","G","L","U","",""
"","","","","","html-slider-response","27","58967","0.0-19.0","ptamah5jpp","10","NaN","<div style=""width:500px;"">
                            <p style=""font-size:50px; font-weight:bold;""
                            >calm</p>
                            <div style=""width:240px; margin: auto;"">
                                <img src=""images/G_D_S_02.png"" style= ""width:200px""alt=""img"">
                            </div>
                        </div>","2","","0","images/G_D_S_02.png","","","","calm","1","02","G","D","S","",""
"","","","","","html-slider-response","28","59729","0.0-20.0","ptamah5jpp","10","NaN","<div style=""width:500px;"">
                            <p style=""font-size:50px; font-weight:bold;""
                            >calm</p>
                            <div style=""width:240px; margin: auto;"">
                                <img src=""images/G_D_U_05.png"" style= ""width:200px""alt=""img"">
                            </div>
                        </div>","2","","0","images/G_D_U_05.png","","","","calm","1","05","G","D","U","",""
"","","","","","html-slider-response","29","60402","0.0-21.0","ptamah5jpp","10","NaN","<div style=""width:500px;"">
                            <p style=""font-size:50px; font-weight:bold;""
                            >calm</p>
                            <div style=""width:240px; margin: auto;"">
                                <img src=""images/B_D_U_13.png"" style= ""width:200px""alt=""img"">
                            </div>
                        </div>","2","","0","images/B_D_U_13.png","","","","calm","2","13","B","D","U","",""
"","","","","","html-slider-response","30","61073","0.0-22.0","ptamah5jpp","10","NaN","<div style=""width:500px;"">
                            <p style=""font-size:50px; font-weight:bold;""
                            >calm</p>
                            <div style=""width:240px; margin: auto;"">
                                <img src=""images/G_D_U_05.png"" style= ""width:200px""alt=""img"">
                            </div>
                        </div>","2","","0","images/G_D_U_05.png","","","","calm","2","05","G","D","U","",""
"","","","","","html-slider-response","31","61850","0.0-23.0","ptamah5jpp","10","NaN","<div style=""width:500px;"">
                            <p style=""font-size:50px; font-weight:bold;""
                            >calm</p>
                            <div style=""width:240px; margin: auto;"">
                                <img src=""images/R_L_U_30.png"" style= ""width:200px""alt=""img"">
                            </div>
                        </div>","2","","0","images/R_L_U_30.png","","","","calm","1","30","R","L","U","",""
"","","","","","html-slider-response","32","62578","0.0-24.0","ptamah5jpp","10","NaN","<div style=""width:500px;"">
                            <p style=""font-size:50px; font-weight:bold;""
                            >calm</p>
                            <div style=""width:240px; margin: auto;"">
                                <img src=""images/R_D_S_33.png"" style= ""width:200px""alt=""img"">
                            </div>
                        </div>","2","","0","images/R_D_S_33.png","","","","calm","2","33","R","D","S","",""
"","","","","","html-slider-response","33","63199","0.0-25.0","ptamah5jpp","10","NaN","<div style=""width:500px;"">
                            <p style=""font-size:50px; font-weight:bold;""
                            >calm</p>
                            <div style=""width:240px; margin: auto;"">
                                <img src=""images/G_D_S_02.png"" style= ""width:200px""alt=""img"">
                            </div>
                        </div>","2","","0","images/G_D_S_02.png","","","","calm","2","02","G","D","S","",""
"","","","","","html-slider-response","34","63855","0.0-26.0","ptamah5jpp","10","NaN","<div style=""width:500px;"">
                            <p style=""font-size:50px; font-weight:bold;""
                            >calm</p>
                            <div style=""width:240px; margin: auto;"">
                                <img src=""images/Y_D_S_26.png"" style= ""width:200px""alt=""img"">
                            </div>
                        </div>","2","","0","images/Y_D_S_26.png","","","","calm","1","26","Y","D","S","",""
"","","","","","html-slider-response","35","64495","0.0-27.0","ptamah5jpp","10","NaN","<div style=""width:500px;"">
                            <p style=""font-size:50px; font-weight:bold;""
                            >calm</p>
                            <div style=""width:240px; margin: auto;"">
                                <img src=""images/G_L_S_41.png"" style= ""width:200px""alt=""img"">
                            </div>
                        </div>","2","","0","images/G_L_S_41.png","","","","calm","1","41","G","L","S","",""
"","","","","","html-slider-response","36","65255","0.0-28.0","ptamah5jpp","10","NaN","<div style=""width:500px;"">
                            <p style=""font-size:50px; font-weight:bold;""
                            >calm</p>
                            <div style=""width:240px; margin: auto;"">
                                <img src=""images/B_L_S_07.png"" style= ""width:200px""alt=""img"">
                            </div>
                        </div>","2","","0","images/B_L_S_07.png","","","","calm","1","07","B","L","S","",""
"","","","","","html-slider-response","37","66050","0.0-29.0","ptamah5jpp","10","NaN","<div style=""width:500px;"">
                            <p style=""font-size:50px; font-weight:bold;""
                            >calm</p>
                            <div style=""width:240px; margin: auto;"">
                                <img src=""images/Y_D_U_27.png"" style= ""width:200px""alt=""img"">
                            </div>
                        </div>","2","","0","images/Y_D_U_27.png","","","","calm","2","27","Y","D","U","",""
"","","","","","html-slider-response","38","66997","0.0-30.0","ptamah5jpp","10","NaN","<div style=""width:500px;"">
                            <p style=""font-size:50px; font-weight:bold;""
                            >calm</p>
                            <div style=""width:240px; margin: auto;"">
                                <img src=""images/R_L_S_28.png"" style= ""width:200px""alt=""img"">
                            </div>
                        </div>","2","","0","images/R_L_S_28.png","","","","calm","2","28","R","L","S","",""
"","","","","","html-slider-response","39","67757","0.0-31.0","ptamah5jpp","10","NaN","<div style=""width:500px;"">
                            <p style=""font-size:50px; font-weight:bold;""
                            >calm</p>
                            <div style=""width:240px; margin: auto;"">
                                <img src=""images/G_L_U_44.png"" style= ""width:200px""alt=""img"">
                            </div>
                        </div>","3","","0","images/G_L_U_44.png","","","","calm","1","44","G","L","U","",""
"","","","","","html-slider-response","40","68419","0.0-32.0","ptamah5jpp","10","NaN","<div style=""width:500px;"">
                            <p style=""font-size:50px; font-weight:bold;""
                            >calm</p>
                            <div style=""width:240px; margin: auto;"">
                                <img src=""images/B_D_U_13.png"" style= ""width:200px""alt=""img"">
                            </div>
                        </div>","3","","0","images/B_D_U_13.png","","","","calm","1","13","B","D","U","",""
"","","","","","html-slider-response","41","69225","0.0-33.0","ptamah5jpp","10","NaN","<div style=""width:500px;"">
                            <p style=""font-size:50px; font-weight:bold;""
                            >calm</p>
                            <div style=""width:240px; margin: auto;"">
                                <img src=""images/R_L_U_30.png"" style= ""width:200px""alt=""img"">
                            </div>
                        </div>","3","","0","images/R_L_U_30.png","","","","calm","2","30","R","L","U","",""
"","","","","","html-slider-response","42","70069","0.0-34.0","ptamah5jpp","10","NaN","<div style=""width:500px;"">
                            <p style=""font-size:50px; font-weight:bold;""
                            >calm</p>
                            <div style=""width:240px; margin: auto;"">
                                <img src=""images/Y_L_S_15.png"" style= ""width:200px""alt=""img"">
                            </div>
                        </div>","3","","0","images/Y_L_S_15.png","","","","calm","2","15","Y","L","S","",""
"","","","","","html-slider-response","43","70779","0.0-35.0","ptamah5jpp","10","NaN","<div style=""width:500px;"">
                            <p style=""font-size:50px; font-weight:bold;""
                            >calm</p>
                            <div style=""width:240px; margin: auto;"">
                                <img src=""images/B_L_S_07.png"" style= ""width:200px""alt=""img"">
                            </div>
                        </div>","3","","0","images/B_L_S_07.png","","","","calm","2","07","B","L","S","",""
"","","","","","html-slider-response","44","71455","0.0-36.0","ptamah5jpp","10","NaN","<div style=""width:500px;"">
                            <p style=""font-size:50px; font-weight:bold;""
                            >calm</p>
                            <div style=""width:240px; margin: auto;"">
                                <img src=""images/Y_D_S_26.png"" style= ""width:200px""alt=""img"">
                            </div>
                        </div>","3","","0","images/Y_D_S_26.png","","","","calm","2","26","Y","D","S","",""
"","","","","","html-slider-response","45","72181","0.0-37.0","ptamah5jpp","10","NaN","<div style=""width:500px;"">
                            <p style=""font-size:50px; font-weight:bold;""
                            >calm</p>
                            <div style=""width:240px; margin: auto;"">
                                <img src=""images/B_L_U_10.png"" style= ""width:200px""alt=""img"">
                            </div>
                        </div>","3","","0","images/B_L_U_10.png","","","","calm","1","10","B","L","U","",""
"","","","","","html-slider-response","46","72971","0.0-38.0","ptamah5jpp","10","NaN","<div style=""width:500px;"">
                            <p style=""font-size:50px; font-weight:bold;""
                            >calm</p>
                            <div style=""width:240px; margin: auto;"">
                                <img src=""images/R_D_U_37.png"" style= ""width:200px""alt=""img"">
                            </div>
                        </div>","3","","0","images/R_D_U_37.png","","","","calm","2","37","R","D","U","",""
"","","","","","html-slider-response","47","73762","0.0-39.0","ptamah5jpp","10","NaN","<div style=""width:500px;"">
                            <p style=""font-size:50px; font-weight:bold;""
                            >calm</p>
                            <div style=""width:240px; margin: auto;"">
                                <img src=""images/Y_L_S_15.png"" style= ""width:200px""alt=""img"">
                            </div>
                        </div>","3","","0","images/Y_L_S_15.png","","","","calm","1","15","Y","L","S","",""
"","","","","","html-slider-response","48","74605","0.0-40.0","ptamah5jpp","10","NaN","<div style=""width:500px;"">
                            <p style=""font-size:50px; font-weight:bold;""
                            >calm</p>
                            <div style=""width:240px; margin: auto;"">
                                <img src=""images/R_D_U_37.png"" style= ""width:200px""alt=""img"">
                            </div>
                        </div>","3","","0","images/R_D_U_37.png","","","","calm","1","37","R","D","U","",""
"","","","","","html-slider-response","49","75300","0.0-41.0","ptamah5jpp","10","NaN","<div style=""width:500px;"">
                            <p style=""font-size:50px; font-weight:bold;""
                            >calm</p>
                            <div style=""width:240px; margin: auto;"">
                                <img src=""images/Y_L_U_23.png"" style= ""width:200px""alt=""img"">
                            </div>
                        </div>","3","","0","images/Y_L_U_23.png","","","","calm","1","23","Y","L","U","",""
"","","","","","html-slider-response","50","76863","0.0-42.0","ptamah5jpp","10","NaN","<div style=""width:500px;"">
                            <p style=""font-size:50px; font-weight:bold;""
                            >calm</p>
                            <div style=""width:240px; margin: auto;"">
                                <img src=""images/B_L_U_10.png"" style= ""width:200px""alt=""img"">
                            </div>
                        </div>","5","","0","images/B_L_U_10.png","","","","calm","2","10","B","L","U","",""
"","","","","","html-slider-response","51","77573","0.0-43.0","ptamah5jpp","10","NaN","<div style=""width:500px;"">
                            <p style=""font-size:50px; font-weight:bold;""
                            >calm</p>
                            <div style=""width:240px; margin: auto;"">
                                <img src=""images/Y_L_U_23.png"" style= ""width:200px""alt=""img"">
                            </div>
                        </div>","5","","0","images/Y_L_U_23.png","","","","calm","2","23","Y","L","U","",""
"","","","","","html-slider-response","52","78499","0.0-44.0","ptamah5jpp","10","NaN","<div style=""width:500px;"">
                            <p style=""font-size:50px; font-weight:bold;""
                            >calm</p>
                            <div style=""width:240px; margin: auto;"">
                                <img src=""images/B_D_S_12.png"" style= ""width:200px""alt=""img"">
                            </div>
                        </div>","5","","0","images/B_D_S_12.png","","","","calm","2","12","B","D","S","",""
"","","","","","html-slider-response","53","79720","0.0-45.0","ptamah5jpp","10","NaN","<div style=""width:500px;"">
                            <p style=""font-size:50px; font-weight:bold;""
                            >calm</p>
                            <div style=""width:240px; margin: auto;"">
                                <img src=""images/R_D_S_33.png"" style= ""width:200px""alt=""img"">
                            </div>
                        </div>","3","","0","images/R_D_S_33.png","","","","calm","1","33","R","D","S","",""
"","","","","","html-button-response","54","81595","0.0-46.0","ptamah5jpp","10","1373","<p>Great Job! You've finished block 1.<br></br> You have 7 block(s) left to go.<br></br></p>","0","","","","","","","","","","","","","",""
"","","","","","html-button-response","55","82882","0.0-47.0","ptamah5jpp","10","1286","<p>In this block of trials, you will be asked to rate how much you associate each map with:</p > <p style = 'font-size:150%; font-weight: bold'>trustworthy</p><br></br>","0","","","","","","","","","","","","","",""
"","","","","","html-slider-response","56","84507","0.0-48.0","ptamah5jpp","10","NaN","<div style=""width:500px;"">
                            <p style=""font-size:50px; font-weight:bold;""
                            >trustworthy</p>
                            <div style=""width:240px; margin: auto;"">
                                <img src=""images/G_L_U_44.png"" style= ""width:200px""alt=""img"">
                            </div>
                        </div>","1","","0","images/G_L_U_44.png","","","","trustworthy","2","44","G","L","U","",""
"","","","","","html-slider-response","57","85145","0.0-49.0","ptamah5jpp","10","NaN","<div style=""width:500px;"">
                            <p style=""font-size:50px; font-weight:bold;""
                            >trustworthy</p>
                            <div style=""width:240px; margin: auto;"">
                                <img src=""images/R_L_S_28.png"" style= ""width:200px""alt=""img"">
                            </div>
                        </div>","1","","0","images/R_L_S_28.png","","","","trustworthy","2","28","R","L","S","",""
"","","","","","html-slider-response","58","85838","0.0-50.0","ptamah5jpp","10","NaN","<div style=""width:500px;"">
                            <p style=""font-size:50px; font-weight:bold;""
                            >trustworthy</p>
                            <div style=""width:240px; margin: auto;"">
                                <img src=""images/B_D_U_13.png"" style= ""width:200px""alt=""img"">
                            </div>
                        </div>","1","","0","images/B_D_U_13.png","","","","trustworthy","2","13","B","D","U","",""
"","","","","","html-slider-response","59","86597","0.0-51.0","ptamah5jpp","10","NaN","<div style=""width:500px;"">
                            <p style=""font-size:50px; font-weight:bold;""
                            >trustworthy</p>
                            <div style=""width:240px; margin: auto;"">
                                <img src=""images/B_D_S_12.png"" style= ""width:200px""alt=""img"">
                            </div>
                        </div>","1","","0","images/B_D_S_12.png","","","","trustworthy","1","12","B","D","S","",""
"","","","","","html-slider-response","60","87236","0.0-52.0","ptamah5jpp","10","NaN","<div style=""width:500px;"">
                            <p style=""font-size:50px; font-weight:bold;""
                            >trustworthy</p>
                            <div style=""width:240px; margin: auto;"">
                                <img src=""images/G_L_S_41.png"" style= ""width:200px""alt=""img"">
                            </div>
                        </div>","1","","0","images/G_L_S_41.png","","","","trustworthy","2","41","G","L","S","",""
"","","","","","html-slider-response","61","87996","0.0-53.0","ptamah5jpp","10","NaN","<div style=""width:500px;"">
                            <p style=""font-size:50px; font-weight:bold;""
                            >trustworthy</p>
                            <div style=""width:240px; margin: auto;"">
                                <img src=""images/R_L_S_28.png"" style= ""width:200px""alt=""img"">
                            </div>
                        </div>","1","","0","images/R_L_S_28.png","","","","trustworthy","1","28","R","L","S","",""
"","","","","","html-slider-response","62","88740","0.0-54.0","ptamah5jpp","10","NaN","<div style=""width:500px;"">
                            <p style=""font-size:50px; font-weight:bold;""
                            >trustworthy</p>
                            <div style=""width:240px; margin: auto;"">
                                <img src=""images/B_L_S_07.png"" style= ""width:200px""alt=""img"">
                            </div>
                        </div>","1","","0","images/B_L_S_07.png","","","","trustworthy","2","07","B","L","S","",""
"","","","","","html-slider-response","63","89445","0.0-55.0","ptamah5jpp","10","NaN","<div style=""width:500px;"">
                            <p style=""font-size:50px; font-weight:bold;""
                            >trustworthy</p>
                            <div style=""width:240px; margin: auto;"">
                                <img src=""images/R_D_U_37.png"" style= ""width:200px""alt=""img"">
                            </div>
                        </div>","1","","0","images/R_D_U_37.png","","","","trustworthy","1","37","R","D","U","",""
"","","","","","html-slider-response","64","90269","0.0-56.0","ptamah5jpp","10","NaN","<div style=""width:500px;"">
                            <p style=""font-size:50px; font-weight:bold;""
                            >trustworthy</p>
                            <div style=""width:240px; margin: auto;"">
                                <img src=""images/Y_D_U_27.png"" style= ""width:200px""alt=""img"">
                            </div>
                        </div>","1","","0","images/Y_D_U_27.png","","","","trustworthy","2","27","Y","D","U","",""
"","","","","","html-slider-response","65","90912","0.0-57.0","ptamah5jpp","10","NaN","<div style=""width:500px;"">
                            <p style=""font-size:50px; font-weight:bold;""
                            >trustworthy</p>
                            <div style=""width:240px; margin: auto;"">
                                <img src=""images/R_D_S_33.png"" style= ""width:200px""alt=""img"">
                            </div>
                        </div>","1","","0","images/R_D_S_33.png","","","","trustworthy","2","33","R","D","S","",""
"","","","","","html-slider-response","66","91501","0.0-58.0","ptamah5jpp","10","NaN","<div style=""width:500px;"">
                            <p style=""font-size:50px; font-weight:bold;""
                            >trustworthy</p>
                            <div style=""width:240px; margin: auto;"">
                                <img src=""images/G_D_U_05.png"" style= ""width:200px""alt=""img"">
                            </div>
                        </div>","1","","0","images/G_D_U_05.png","","","","trustworthy","1","05","G","D","U","",""
"","","","","","html-slider-response","67","92173","0.0-59.0","ptamah5jpp","10","NaN","<div style=""width:500px;"">
                            <p style=""font-size:50px; font-weight:bold;""
                            >trustworthy</p>
                            <div style=""width:240px; margin: auto;"">
                                <img src=""images/G_D_U_05.png"" style= ""width:200px""alt=""img"">
                            </div>
                        </div>","1","","0","images/G_D_U_05.png","","","","trustworthy","2","05","G","D","U","",""
"","","","","","html-slider-response","68","92846","0.0-60.0","ptamah5jpp","10","NaN","<div style=""width:500px;"">
                            <p style=""font-size:50px; font-weight:bold;""
                            >trustworthy</p>
                            <div style=""width:240px; margin: auto;"">
                                <img src=""images/Y_D_U_27.png"" style= ""width:200px""alt=""img"">
                            </div>
                        </div>","1","","0","images/Y_D_U_27.png","","","","trustworthy","1","27","Y","D","U","",""
"","","","","","html-slider-response","69","93558","0.0-61.0","ptamah5jpp","10","NaN","<div style=""width:500px;"">
                            <p style=""font-size:50px; font-weight:bold;""
                            >trustworthy</p>
                            <div style=""width:240px; margin: auto;"">
                                <img src=""images/G_D_S_02.png"" style= ""width:200px""alt=""img"">
                            </div>
                        </div>","1","","0","images/G_D_S_02.png","","","","trustworthy","1","02","G","D","S","",""
"","","","","","html-slider-response","70","94198","0.0-62.0","ptamah5jpp","10","NaN","<div style=""width:500px;"">
                            <p style=""font-size:50px; font-weight:bold;""
                            >trustworthy</p>
                            <div style=""width:240px; margin: auto;"">
                                <img src=""images/B_D_S_12.png"" style= ""width:200px""alt=""img"">
                            </div>
                        </div>","1","","0","images/B_D_S_12.png","","","","trustworthy","2","12","B","D","S","",""
"","","","","","html-slider-response","71","94908","0.0-63.0","ptamah5jpp","10","NaN","<div style=""width:500px;"">
                            <p style=""font-size:50px; font-weight:bold;""
                            >trustworthy</p>
                            <div style=""width:240px; margin: auto;"">
                                <img src=""images/Y_D_S_26.png"" style= ""width:200px""alt=""img"">
                            </div>
                        </div>","1","","0","images/Y_D_S_26.png","","","","trustworthy","2","26","Y","D","S","",""
"","","","","","html-slider-response","72","95616","0.0-64.0","ptamah5jpp","10","NaN","<div style=""width:500px;"">
                            <p style=""font-size:50px; font-weight:bold;""
                            >trustworthy</p>
                            <div style=""width:240px; margin: auto;"">
                                <img src=""images/Y_L_U_23.png"" style= ""width:200px""alt=""img"">
                            </div>
                        </div>","1","","0","images/Y_L_U_23.png","","","","trustworthy","2","23","Y","L","U","",""
"","","","","","html-slider-response","73","96241","0.0-65.0","ptamah5jpp","10","NaN","<div style=""width:500px;"">
                            <p style=""font-size:50px; font-weight:bold;""
                            >trustworthy</p>
                            <div style=""width:240px; margin: auto;"">
                                <img src=""images/B_L_S_07.png"" style= ""width:200px""alt=""img"">
                            </div>
                        </div>","1","","0","images/B_L_S_07.png","","","","trustworthy","1","07","B","L","S","",""
"","","","","","html-slider-response","74","96846","0.0-66.0","ptamah5jpp","10","NaN","<div style=""width:500px;"">
                            <p style=""font-size:50px; font-weight:bold;""
                            >trustworthy</p>
                            <div style=""width:240px; margin: auto;"">
                                <img src=""images/G_L_S_41.png"" style= ""width:200px""alt=""img"">
                            </div>
                        </div>","1","","0","images/G_L_S_41.png","","","","trustworthy","1","41","G","L","S","",""
"","","","","","html-slider-response","75","97674","0.0-67.0","ptamah5jpp","10","NaN","<div style=""width:500px;"">
                            <p style=""font-size:50px; font-weight:bold;""
                            >trustworthy</p>
                            <div style=""width:240px; margin: auto;"">
                                <img src=""images/Y_L_U_23.png"" style= ""width:200px""alt=""img"">
                            </div>
                        </div>","1","","0","images/Y_L_U_23.png","","","","trustworthy","1","23","Y","L","U","",""
"","","","","","html-slider-response","76","98516","0.0-68.0","ptamah5jpp","10","NaN","<div style=""width:500px;"">
                            <p style=""font-size:50px; font-weight:bold;""
                            >trustworthy</p>
                            <div style=""width:240px; margin: auto;"">
                                <img src=""images/R_L_U_30.png"" style= ""width:200px""alt=""img"">
                            </div>
                        </div>","1","","0","images/R_L_U_30.png","","","","trustworthy","2","30","R","L","U","",""
"","","","","","html-slider-response","77","99140","0.0-69.0","ptamah5jpp","10","NaN","<div style=""width:500px;"">
                            <p style=""font-size:50px; font-weight:bold;""
                            >trustworthy</p>
                            <div style=""width:240px; margin: auto;"">
                                <img src=""images/R_D_S_33.png"" style= ""width:200px""alt=""img"">
                            </div>
                        </div>","1","","0","images/R_D_S_33.png","","","","trustworthy","1","33","R","D","S","",""
"","","","","","html-slider-response","78","99850","0.0-70.0","ptamah5jpp","10","NaN","<div style=""width:500px;"">
                            <p style=""font-size:50px; font-weight:bold;""
                            >trustworthy</p>
                            <div style=""width:240px; margin: auto;"">
                                <img src=""images/B_L_U_10.png"" style= ""width:200px""alt=""img"">
                            </div>
                        </div>","1","","0","images/B_L_U_10.png","","","","trustworthy","2","10","B","L","U","",""
"","","","","","html-slider-response","79","100577","0.0-71.0","ptamah5jpp","10","NaN","<div style=""width:500px;"">
                            <p style=""font-size:50px; font-weight:bold;""
                            >trustworthy</p>
                            <div style=""width:240px; margin: auto;"">
                                <img src=""images/B_D_U_13.png"" style= ""width:200px""alt=""img"">
                            </div>
                        </div>","1","","0","images/B_D_U_13.png","","","","trustworthy","1","13","B","D","U","",""
"","","","","","html-slider-response","80","101406","0.0-72.0","ptamah5jpp","10","NaN","<div style=""width:500px;"">
                            <p style=""font-size:50px; font-weight:bold;""
                            >trustworthy</p>
                            <div style=""width:240px; margin: auto;"">
                                <img src=""images/R_L_U_30.png"" style= ""width:200px""alt=""img"">
                            </div>
                        </div>","1","","0","images/R_L_U_30.png","","","","trustworthy","1","30","R","L","U","",""
"","","","","","html-slider-response","81","102116","0.0-73.0","ptamah5jpp","10","NaN","<div style=""width:500px;"">
                            <p style=""font-size:50px; font-weight:bold;""
                            >trustworthy</p>
                            <div style=""width:240px; margin: auto;"">
                                <img src=""images/B_L_U_10.png"" style= ""width:200px""alt=""img"">
                            </div>
                        </div>","1","","0","images/B_L_U_10.png","","","","trustworthy","1","10","B","L","U","",""
"","","","","","html-slider-response","82","102807","0.0-74.0","ptamah5jpp","10","NaN","<div style=""width:500px;"">
                            <p style=""font-size:50px; font-weight:bold;""
                            >trustworthy</p>
                            <div style=""width:240px; margin: auto;"">
                                <img src=""images/Y_D_S_26.png"" style= ""width:200px""alt=""img"">
                            </div>
                        </div>","1","","0","images/Y_D_S_26.png","","","","trustworthy","1","26","Y","D","S","",""
"","","","","","html-slider-response","83","103532","0.0-75.0","ptamah5jpp","10","NaN","<div style=""width:500px;"">
                            <p style=""font-size:50px; font-weight:bold;""
                            >trustworthy</p>
                            <div style=""width:240px; margin: auto;"">
                                <img src=""images/R_D_U_37.png"" style= ""width:200px""alt=""img"">
                            </div>
                        </div>","1","","0","images/R_D_U_37.png","","","","trustworthy","2","37","R","D","U","",""
"","","","","","html-slider-response","84","104236","0.0-76.0","ptamah5jpp","10","NaN","<div style=""width:500px;"">
                            <p style=""font-size:50px; font-weight:bold;""
                            >trustworthy</p>
                            <div style=""width:240px; margin: auto;"">
                                <img src=""images/Y_L_S_15.png"" style= ""width:200px""alt=""img"">
                            </div>
                        </div>","1","","0","images/Y_L_S_15.png","","","","trustworthy","2","15","Y","L","S","",""
"","","","","","html-slider-response","85","104890","0.0-77.0","ptamah5jpp","10","NaN","<div style=""width:500px;"">
                            <p style=""font-size:50px; font-weight:bold;""
                            >trustworthy</p>
                            <div style=""width:240px; margin: auto;"">
                                <img src=""images/G_D_S_02.png"" style= ""width:200px""alt=""img"">
                            </div>
                        </div>","1","","0","images/G_D_S_02.png","","","","trustworthy","2","02","G","D","S","",""
"","","","","","html-slider-response","86","105581","0.0-78.0","ptamah5jpp","10","NaN","<div style=""width:500px;"">
                            <p style=""font-size:50px; font-weight:bold;""
                            >trustworthy</p>
                            <div style=""width:240px; margin: auto;"">
                                <img src=""images/G_L_U_44.png"" style= ""width:200px""alt=""img"">
                            </div>
                        </div>","1","","0","images/G_L_U_44.png","","","","trustworthy","1","44","G","L","U","",""
"","","","","","html-slider-response","87","106303","0.0-79.0","ptamah5jpp","10","NaN","<div style=""width:500px;"">
                            <p style=""font-size:50px; font-weight:bold;""
                            >trustworthy</p>
                            <div style=""width:240px; margin: auto;"">
                                <img src=""images/Y_L_S_15.png"" style= ""width:200px""alt=""img"">
                            </div>
                        </div>","1","","0","images/Y_L_S_15.png","","","","trustworthy","1","15","Y","L","S","",""
"","","","","","html-button-response","88","107859","0.0-80.0","ptamah5jpp","10","1054","<p>Great Job! You've finished block 2.<br></br> You have 6 block(s) left to go.<br></br></p>","0","","","","","","","","","","","","","",""
"","","","","","html-button-response","89","108532","0.0-81.0","ptamah5jpp","10","673","<p>In this block of trials, you will be asked to rate how much you associate each map with:</p > <p style = 'font-size:150%; font-weight: bold'>serious</p><br></br>","0","","","","","","","","","","","","","",""
"","","","","","html-slider-response","90","111373","0.0-82.0","ptamah5jpp","10","NaN","<div style=""width:500px;"">
                            <p style=""font-size:50px; font-weight:bold;""
                            >serious</p>
                            <div style=""width:240px; margin: auto;"">
                                <img src=""images/B_D_U_13.png"" style= ""width:200px""alt=""img"">
                            </div>
                        </div>","-1","","0","images/B_D_U_13.png","","","","serious","1","13","B","D","U","",""
"","","","","","html-slider-response","91","112064","0.0-83.0","ptamah5jpp","10","NaN","<div style=""width:500px;"">
                            <p style=""font-size:50px; font-weight:bold;""
                            >serious</p>
                            <div style=""width:240px; margin: auto;"">
                                <img src=""images/G_D_S_02.png"" style= ""width:200px""alt=""img"">
                            </div>
                        </div>","-1","","0","images/G_D_S_02.png","","","","serious","2","02","G","D","S","",""
"","","","","","html-slider-response","92","112858","0.0-84.0","ptamah5jpp","10","NaN","<div style=""width:500px;"">
                            <p style=""font-size:50px; font-weight:bold;""
                            >serious</p>
                            <div style=""width:240px; margin: auto;"">
                                <img src=""images/R_L_U_30.png"" style= ""width:200px""alt=""img"">
                            </div>
                        </div>","-1","","0","images/R_L_U_30.png","","","","serious","1","30","R","L","U","",""
"","","","","","html-slider-response","93","113497","0.0-85.0","ptamah5jpp","10","NaN","<div style=""width:500px;"">
                            <p style=""font-size:50px; font-weight:bold;""
                            >serious</p>
                            <div style=""width:240px; margin: auto;"">
                                <img src=""images/R_D_S_33.png"" style= ""width:200px""alt=""img"">
                            </div>
                        </div>","-1","","0","images/R_D_S_33.png","","","","serious","1","33","R","D","S","",""
"","","","","","html-slider-response","94","114195","0.0-86.0","ptamah5jpp","10","NaN","<div style=""width:500px;"">
                            <p style=""font-size:50px; font-weight:bold;""
                            >serious</p>
                            <div style=""width:240px; margin: auto;"">
                                <img src=""images/R_D_U_37.png"" style= ""width:200px""alt=""img"">
                            </div>
                        </div>","-1","","0","images/R_D_U_37.png","","","","serious","2","37","R","D","U","",""
"","","","","","html-slider-response","95","114817","0.0-87.0","ptamah5jpp","10","NaN","<div style=""width:500px;"">
                            <p style=""font-size:50px; font-weight:bold;""
                            >serious</p>
                            <div style=""width:240px; margin: auto;"">
                                <img src=""images/B_L_U_10.png"" style= ""width:200px""alt=""img"">
                            </div>
                        </div>","-1","","0","images/B_L_U_10.png","","","","serious","2","10","B","L","U","",""
"","","","","","html-slider-response","96","115579","0.0-88.0","ptamah5jpp","10","NaN","<div style=""width:500px;"">
                            <p style=""font-size:50px; font-weight:bold;""
                            >serious</p>
                            <div style=""width:240px; margin: auto;"">
                                <img src=""images/G_D_S_02.png"" style= ""width:200px""alt=""img"">
                            </div>
                        </div>","18","","0","images/G_D_S_02.png","","","","serious","1","02","G","D","S","",""
"","","","","","html-slider-response","97","116444","0.0-89.0","ptamah5jpp","10","NaN","<div style=""width:500px;"">
                            <p style=""font-size:50px; font-weight:bold;""
                            >serious</p>
                            <div style=""width:240px; margin: auto;"">
                                <img src=""images/Y_D_S_26.png"" style= ""width:200px""alt=""img"">
                            </div>
                        </div>","18","","0","images/Y_D_S_26.png","","","","serious","1","26","Y","D","S","",""
"","","","","","html-slider-response","98","118441","0.0-90.0","ptamah5jpp","10","NaN","<div style=""width:500px;"">
                            <p style=""font-size:50px; font-weight:bold;""
                            >serious</p>
                            <div style=""width:240px; margin: auto;"">
                                <img src=""images/B_D_S_12.png"" style= ""width:200px""alt=""img"">
                            </div>
                        </div>","6","","0","images/B_D_S_12.png","","","","serious","1","12","B","D","S","",""
"","","","","","html-slider-response","99","119249","0.0-91.0","ptamah5jpp","10","NaN","<div style=""width:500px;"">
                            <p style=""font-size:50px; font-weight:bold;""
                            >serious</p>
                            <div style=""width:240px; margin: auto;"">
                                <img src=""images/B_D_U_13.png"" style= ""width:200px""alt=""img"">
                            </div>
                        </div>","6","","0","images/B_D_U_13.png","","","","serious","2","13","B","D","U","",""
"","","","","","html-slider-response","100","120030","0.0-92.0","ptamah5jpp","10","NaN","<div style=""width:500px;"">
                            <p style=""font-size:50px; font-weight:bold;""
                            >serious</p>
                            <div style=""width:240px; margin: auto;"">
                                <img src=""images/B_L_S_07.png"" style= ""width:200px""alt=""img"">
                            </div>
                        </div>","6","","0","images/B_L_S_07.png","","","","serious","1","07","B","L","S","",""
"","","","","","html-slider-response","101","120773","0.0-93.0","ptamah5jpp","10","NaN","<div style=""width:500px;"">
                            <p style=""font-size:50px; font-weight:bold;""
                            >serious</p>
                            <div style=""width:240px; margin: auto;"">
                                <img src=""images/R_D_S_33.png"" style= ""width:200px""alt=""img"">
                            </div>
                        </div>","6","","0","images/R_D_S_33.png","","","","serious","2","33","R","D","S","",""
"","","","","","html-slider-response","102","121414","0.0-94.0","ptamah5jpp","10","NaN","<div style=""width:500px;"">
                            <p style=""font-size:50px; font-weight:bold;""
                            >serious</p>
                            <div style=""width:240px; margin: auto;"">
                                <img src=""images/G_L_U_44.png"" style= ""width:200px""alt=""img"">
                            </div>
                        </div>","6","","0","images/G_L_U_44.png","","","","serious","2","44","G","L","U","",""
"","","","","","html-slider-response","103","122271","0.0-95.0","ptamah5jpp","10","NaN","<div style=""width:500px;"">
                            <p style=""font-size:50px; font-weight:bold;""
                            >serious</p>
                            <div style=""width:240px; margin: auto;"">
                                <img src=""images/G_L_U_44.png"" style= ""width:200px""alt=""img"">
                            </div>
                        </div>","6","","0","images/G_L_U_44.png","","","","serious","1","44","G","L","U","",""
"","","","","","html-slider-response","104","123316","0.0-96.0","ptamah5jpp","10","NaN","<div style=""width:500px;"">
                            <p style=""font-size:50px; font-weight:bold;""
                            >serious</p>
                            <div style=""width:240px; margin: auto;"">
                                <img src=""images/R_D_U_37.png"" style= ""width:200px""alt=""img"">
                            </div>
                        </div>","6","","0","images/R_D_U_37.png","","","","serious","1","37","R","D","U","",""
"","","","","","html-slider-response","105","124275","0.0-97.0","ptamah5jpp","10","NaN","<div style=""width:500px;"">
                            <p style=""font-size:50px; font-weight:bold;""
                            >serious</p>
                            <div style=""width:240px; margin: auto;"">
                                <img src=""images/R_L_U_30.png"" style= ""width:200px""alt=""img"">
                            </div>
                        </div>","6","","0","images/R_L_U_30.png","","","","serious","2","30","R","L","U","",""
"","","","","","html-slider-response","106","125183","0.0-98.0","ptamah5jpp","10","NaN","<div style=""width:500px;"">
                            <p style=""font-size:50px; font-weight:bold;""
                            >serious</p>
                            <div style=""width:240px; margin: auto;"">
                                <img src=""images/Y_L_U_23.png"" style= ""width:200px""alt=""img"">
                            </div>
                        </div>","6","","0","images/Y_L_U_23.png","","","","serious","1","23","Y","L","U","",""
"","","","","","html-slider-response","107","126145","0.0-99.0","ptamah5jpp","10","NaN","<div style=""width:500px;"">
                            <p style=""font-size:50px; font-weight:bold;""
                            >serious</p>
                            <div style=""width:240px; margin: auto;"">
                                <img src=""images/G_L_S_41.png"" style= ""width:200px""alt=""img"">
                            </div>
                        </div>","6","","0","images/G_L_S_41.png","","","","serious","1","41","G","L","S","",""
"","","","","","html-slider-response","108","127083","0.0-100.0","ptamah5jpp","10","NaN","<div style=""width:500px;"">
                            <p style=""font-size:50px; font-weight:bold;""
                            >serious</p>
                            <div style=""width:240px; margin: auto;"">
                                <img src=""images/Y_D_U_27.png"" style= ""width:200px""alt=""img"">
                            </div>
                        </div>","6","","0","images/Y_D_U_27.png","","","","serious","1","27","Y","D","U","",""
"","","","","","html-slider-response","109","128326","0.0-101.0","ptamah5jpp","10","NaN","<div style=""width:500px;"">
                            <p style=""font-size:50px; font-weight:bold;""
                            >serious</p>
                            <div style=""width:240px; margin: auto;"">
                                <img src=""images/G_L_S_41.png"" style= ""width:200px""alt=""img"">
                            </div>
                        </div>","-26","","0","images/G_L_S_41.png","","","","serious","2","41","G","L","S","",""
"","","","","","html-slider-response","110","129323","0.0-102.0","ptamah5jpp","10","NaN","<div style=""width:500px;"">
                            <p style=""font-size:50px; font-weight:bold;""
                            >serious</p>
                            <div style=""width:240px; margin: auto;"">
                                <img src=""images/Y_L_S_15.png"" style= ""width:200px""alt=""img"">
                            </div>
                        </div>","6","","0","images/Y_L_S_15.png","","","","serious","1","15","Y","L","S","",""
"","","","","","html-slider-response","111","130066","0.0-103.0","ptamah5jpp","10","NaN","<div style=""width:500px;"">
                            <p style=""font-size:50px; font-weight:bold;""
                            >serious</p>
                            <div style=""width:240px; margin: auto;"">
                                <img src=""images/R_L_S_28.png"" style= ""width:200px""alt=""img"">
                            </div>
                        </div>","6","","0","images/R_L_S_28.png","","","","serious","1","28","R","L","S","",""
"","","","","","html-slider-response","112","130861","0.0-104.0","ptamah5jpp","10","NaN","<div style=""width:500px;"">
                            <p style=""font-size:50px; font-weight:bold;""
                            >serious</p>
                            <div style=""width:240px; margin: auto;"">
                                <img src=""images/Y_L_S_15.png"" style= ""width:200px""alt=""img"">
                            </div>
                        </div>","6","","0","images/Y_L_S_15.png","","","","serious","2","15","Y","L","S","",""
"","","","","","html-slider-response","113","131603","0.0-105.0","ptamah5jpp","10","NaN","<div style=""width:500px;"">
                            <p style=""font-size:50px; font-weight:bold;""
                            >serious</p>
                            <div style=""width:240px; margin: auto;"">
                                <img src=""images/Y_L_U_23.png"" style= ""width:200px""alt=""img"">
                            </div>
                        </div>","6","","0","images/Y_L_U_23.png","","","","serious","2","23","Y","L","U","",""
"","","","","","html-slider-response","114","132260","0.0-106.0","ptamah5jpp","10","NaN","<div style=""width:500px;"">
                            <p style=""font-size:50px; font-weight:bold;""
                            >serious</p>
                            <div style=""width:240px; margin: auto;"">
                                <img src=""images/R_L_S_28.png"" style= ""width:200px""alt=""img"">
                            </div>
                        </div>","6","","0","images/R_L_S_28.png","","","","serious","2","28","R","L","S","",""
"","","","","","html-slider-response","115","133051","0.0-107.0","ptamah5jpp","10","NaN","<div style=""width:500px;"">
                            <p style=""font-size:50px; font-weight:bold;""
                            >serious</p>
                            <div style=""width:240px; margin: auto;"">
                                <img src=""images/B_D_S_12.png"" style= ""width:200px""alt=""img"">
                            </div>
                        </div>","6","","0","images/B_D_S_12.png","","","","serious","2","12","B","D","S","",""
"","","","","","html-slider-response","116","133797","0.0-108.0","ptamah5jpp","10","NaN","<div style=""width:500px;"">
                            <p style=""font-size:50px; font-weight:bold;""
                            >serious</p>
                            <div style=""width:240px; margin: auto;"">
                                <img src=""images/G_D_U_05.png"" style= ""width:200px""alt=""img"">
                            </div>
                        </div>","6","","0","images/G_D_U_05.png","","","","serious","2","05","G","D","U","",""
"","","","","","html-slider-response","117","134512","0.0-109.0","ptamah5jpp","10","NaN","<div style=""width:500px;"">
                            <p style=""font-size:50px; font-weight:bold;""
                            >serious</p>
                            <div style=""width:240px; margin: auto;"">
                                <img src=""images/Y_D_S_26.png"" style= ""width:200px""alt=""img"">
                            </div>
                        </div>","5","","0","images/Y_D_S_26.png","","","","serious","2","26","Y","D","S","",""
"","","","","","html-slider-response","118","135361","0.0-110.0","ptamah5jpp","10","NaN","<div style=""width:500px;"">
                            <p style=""font-size:50px; font-weight:bold;""
                            >serious</p>
                            <div style=""width:240px; margin: auto;"">
                                <img src=""images/Y_D_U_27.png"" style= ""width:200px""alt=""img"">
                            </div>
                        </div>","5","","0","images/Y_D_U_27.png","","","","serious","2","27","Y","D","U","",""
"","","","","","html-slider-response","119","136051","0.0-111.0","ptamah5jpp","10","NaN","<div style=""width:500px;"">
                            <p style=""font-size:50px; font-weight:bold;""
                            >serious</p>
                            <div style=""width:240px; margin: auto;"">
                                <img src=""images/B_L_S_07.png"" style= ""width:200px""alt=""img"">
                            </div>
                        </div>","5","","0","images/B_L_S_07.png","","","","serious","2","07","B","L","S","",""
"","","","","","html-slider-response","120","136728","0.0-112.0","ptamah5jpp","10","NaN","<div style=""width:500px;"">
                            <p style=""font-size:50px; font-weight:bold;""
                            >serious</p>
                            <div style=""width:240px; margin: auto;"">
                                <img src=""images/G_D_U_05.png"" style= ""width:200px""alt=""img"">
                            </div>
                        </div>","5","","0","images/G_D_U_05.png","","","","serious","1","05","G","D","U","",""
"","","","","","html-slider-response","121","137391","0.0-113.0","ptamah5jpp","10","NaN","<div style=""width:500px;"">
                            <p style=""font-size:50px; font-weight:bold;""
                            >serious</p>
                            <div style=""width:240px; margin: auto;"">
                                <img src=""images/B_L_U_10.png"" style= ""width:200px""alt=""img"">
                            </div>
                        </div>","5","","0","images/B_L_U_10.png","","","","serious","1","10","B","L","U","",""
"","","","","","html-button-response","122","138990","0.0-114.0","ptamah5jpp","10","1099","<p>Great Job! You've finished block 3.<br></br> You have 5 block(s) left to go.<br></br></p>","0","","","","","","","","","","","","","",""
"","","","","","html-button-response","123","139942","0.0-115.0","ptamah5jpp","10","951","<p>In this block of trials, you will be asked to rate how much you associate each map with:</p > <p style = 'font-size:150%; font-weight: bold'>playful</p><br></br>","0","","","","","","","","","","","","","",""
"","","","","","html-slider-response","124","140672","0.0-116.0","ptamah5jpp","10","NaN","<div style=""width:500px;"">
                            <p style=""font-size:50px; font-weight:bold;""
                            >playful</p>
                            <div style=""width:240px; margin: auto;"">
                                <img src=""images/Y_D_U_27.png"" style= ""width:200px""alt=""img"">
                            </div>
                        </div>","0","","0","images/Y_D_U_27.png","","","","playful","2","27","Y","D","U","",""
"","","","","","html-slider-response","125","141300","0.0-117.0","ptamah5jpp","10","NaN","<div style=""width:500px;"">
                            <p style=""font-size:50px; font-weight:bold;""
                            >playful</p>
                            <div style=""width:240px; margin: auto;"">
                                <img src=""images/R_D_U_37.png"" style= ""width:200px""alt=""img"">
                            </div>
                        </div>","0","","0","images/R_D_U_37.png","","","","playful","2","37","R","D","U","",""
"","","","","","html-slider-response","126","142060","0.0-118.0","ptamah5jpp","10","NaN","<div style=""width:500px;"">
                            <p style=""font-size:50px; font-weight:bold;""
                            >playful</p>
                            <div style=""width:240px; margin: auto;"">
                                <img src=""images/G_D_U_05.png"" style= ""width:200px""alt=""img"">
                            </div>
                        </div>","0","","0","images/G_D_U_05.png","","","","playful","1","05","G","D","U","",""
"","","","","","html-slider-response","127","142732","0.0-119.0","ptamah5jpp","10","NaN","<div style=""width:500px;"">
                            <p style=""font-size:50px; font-weight:bold;""
                            >playful</p>
                            <div style=""width:240px; margin: auto;"">
                                <img src=""images/R_D_S_33.png"" style= ""width:200px""alt=""img"">
                            </div>
                        </div>","0","","0","images/R_D_S_33.png","","","","playful","1","33","R","D","S","",""
"","","","","","html-slider-response","128","143543","0.0-120.0","ptamah5jpp","10","NaN","<div style=""width:500px;"">
                            <p style=""font-size:50px; font-weight:bold;""
                            >playful</p>
                            <div style=""width:240px; margin: auto;"">
                                <img src=""images/G_L_S_41.png"" style= ""width:200px""alt=""img"">
                            </div>
                        </div>","0","","0","images/G_L_S_41.png","","","","playful","2","41","G","L","S","",""
"","","","","","html-slider-response","129","144199","0.0-121.0","ptamah5jpp","10","NaN","<div style=""width:500px;"">
                            <p style=""font-size:50px; font-weight:bold;""
                            >playful</p>
                            <div style=""width:240px; margin: auto;"">
                                <img src=""images/Y_D_U_27.png"" style= ""width:200px""alt=""img"">
                            </div>
                        </div>","0","","0","images/Y_D_U_27.png","","","","playful","1","27","Y","D","U","",""
"","","","","","html-slider-response","130","144887","0.0-122.0","ptamah5jpp","10","NaN","<div style=""width:500px;"">
                            <p style=""font-size:50px; font-weight:bold;""
                            >playful</p>
                            <div style=""width:240px; margin: auto;"">
                                <img src=""images/B_D_S_12.png"" style= ""width:200px""alt=""img"">
                            </div>
                        </div>","0","","0","images/B_D_S_12.png","","","","playful","1","12","B","D","S","",""
"","","","","","html-slider-response","131","145528","0.0-123.0","ptamah5jpp","10","NaN","<div style=""width:500px;"">
                            <p style=""font-size:50px; font-weight:bold;""
                            >playful</p>
                            <div style=""width:240px; margin: auto;"">
                                <img src=""images/B_L_U_10.png"" style= ""width:200px""alt=""img"">
                            </div>
                        </div>","0","","0","images/B_L_U_10.png","","","","playful","1","10","B","L","U","",""
"","","","","","html-slider-response","132","146259","0.0-124.0","ptamah5jpp","10","NaN","<div style=""width:500px;"">
                            <p style=""font-size:50px; font-weight:bold;""
                            >playful</p>
                            <div style=""width:240px; margin: auto;"">
                                <img src=""images/Y_L_U_23.png"" style= ""width:200px""alt=""img"">
                            </div>
                        </div>","0","","0","images/Y_L_U_23.png","","","","playful","1","23","Y","L","U","",""
"","","","","","html-slider-response","133","147103","0.0-125.0","ptamah5jpp","10","NaN","<div style=""width:500px;"">
                            <p style=""font-size:50px; font-weight:bold;""
                            >playful</p>
                            <div style=""width:240px; margin: auto;"">
                                <img src=""images/G_D_S_02.png"" style= ""width:200px""alt=""img"">
                            </div>
                        </div>","0","","0","images/G_D_S_02.png","","","","playful","1","02","G","D","S","",""
"","","","","","html-slider-response","134","147832","0.0-126.0","ptamah5jpp","10","NaN","<div style=""width:500px;"">
                            <p style=""font-size:50px; font-weight:bold;""
                            >playful</p>
                            <div style=""width:240px; margin: auto;"">
                                <img src=""images/Y_L_S_15.png"" style= ""width:200px""alt=""img"">
                            </div>
                        </div>","0","","0","images/Y_L_S_15.png","","","","playful","1","15","Y","L","S","",""
"","","","","","html-slider-response","135","148571","0.0-127.0","ptamah5jpp","10","NaN","<div style=""width:500px;"">
                            <p style=""font-size:50px; font-weight:bold;""
                            >playful</p>
                            <div style=""width:240px; margin: auto;"">
                                <img src=""images/B_D_U_13.png"" style= ""width:200px""alt=""img"">
                            </div>
                        </div>","0","","0","images/B_D_U_13.png","","","","playful","2","13","B","D","U","",""
"","","","","","html-slider-response","136","149365","0.0-128.0","ptamah5jpp","10","NaN","<div style=""width:500px;"">
                            <p style=""font-size:50px; font-weight:bold;""
                            >playful</p>
                            <div style=""width:240px; margin: auto;"">
                                <img src=""images/B_L_S_07.png"" style= ""width:200px""alt=""img"">
                            </div>
                        </div>","0","","0","images/B_L_S_07.png","","","","playful","1","07","B","L","S","",""
"","","","","","html-slider-response","137","150142","0.0-129.0","ptamah5jpp","10","NaN","<div style=""width:500px;"">
                            <p style=""font-size:50px; font-weight:bold;""
                            >playful</p>
                            <div style=""width:240px; margin: auto;"">
                                <img src=""images/B_D_U_13.png"" style= ""width:200px""alt=""img"">
                            </div>
                        </div>","0","","0","images/B_D_U_13.png","","","","playful","1","13","B","D","U","",""
"","","","","","html-slider-response","138","150933","0.0-130.0","ptamah5jpp","10","NaN","<div style=""width:500px;"">
                            <p style=""font-size:50px; font-weight:bold;""
                            >playful</p>
                            <div style=""width:240px; margin: auto;"">
                                <img src=""images/Y_L_S_15.png"" style= ""width:200px""alt=""img"">
                            </div>
                        </div>","0","","0","images/Y_L_S_15.png","","","","playful","2","15","Y","L","S","",""
"","","","","","html-slider-response","139","151712","0.0-131.0","ptamah5jpp","10","NaN","<div style=""width:500px;"">
                            <p style=""font-size:50px; font-weight:bold;""
                            >playful</p>
                            <div style=""width:240px; margin: auto;"">
                                <img src=""images/G_L_S_41.png"" style= ""width:200px""alt=""img"">
                            </div>
                        </div>","0","","0","images/G_L_S_41.png","","","","playful","1","41","G","L","S","",""
"","","","","","html-slider-response","140","152572","0.0-132.0","ptamah5jpp","10","NaN","<div style=""width:500px;"">
                            <p style=""font-size:50px; font-weight:bold;""
                            >playful</p>
                            <div style=""width:240px; margin: auto;"">
                                <img src=""images/R_D_S_33.png"" style= ""width:200px""alt=""img"">
                            </div>
                        </div>","0","","0","images/R_D_S_33.png","","","","playful","2","33","R","D","S","",""
"","","","","","html-slider-response","141","153451","0.0-133.0","ptamah5jpp","10","NaN","<div style=""width:500px;"">
                            <p style=""font-size:50px; font-weight:bold;""
                            >playful</p>
                            <div style=""width:240px; margin: auto;"">
                                <img src=""images/R_L_S_28.png"" style= ""width:200px""alt=""img"">
                            </div>
                        </div>","0","","0","images/R_L_S_28.png","","","","playful","1","28","R","L","S","",""
"","","","","","html-slider-response","142","154310","0.0-134.0","ptamah5jpp","10","NaN","<div style=""width:500px;"">
                            <p style=""font-size:50px; font-weight:bold;""
                            >playful</p>
                            <div style=""width:240px; margin: auto;"">
                                <img src=""images/Y_D_S_26.png"" style= ""width:200px""alt=""img"">
                            </div>
                        </div>","1","","0","images/Y_D_S_26.png","","","","playful","2","26","Y","D","S","",""
"","","","","","html-slider-response","143","155151","0.0-135.0","ptamah5jpp","10","NaN","<div style=""width:500px;"">
                            <p style=""font-size:50px; font-weight:bold;""
                            >playful</p>
                            <div style=""width:240px; margin: auto;"">
                                <img src=""images/B_L_U_10.png"" style= ""width:200px""alt=""img"">
                            </div>
                        </div>","1","","0","images/B_L_U_10.png","","","","playful","2","10","B","L","U","",""
"","","","","","html-slider-response","144","156012","0.0-136.0","ptamah5jpp","10","NaN","<div style=""width:500px;"">
                            <p style=""font-size:50px; font-weight:bold;""
                            >playful</p>
                            <div style=""width:240px; margin: auto;"">
                                <img src=""images/R_L_S_28.png"" style= ""width:200px""alt=""img"">
                            </div>
                        </div>","1","","0","images/R_L_S_28.png","","","","playful","2","28","R","L","S","",""
"","","","","","html-slider-response","145","156708","0.0-137.0","ptamah5jpp","10","NaN","<div style=""width:500px;"">
                            <p style=""font-size:50px; font-weight:bold;""
                            >playful</p>
                            <div style=""width:240px; margin: auto;"">
                                <img src=""images/G_L_U_44.png"" style= ""width:200px""alt=""img"">
                            </div>
                        </div>","1","","0","images/G_L_U_44.png","","","","playful","1","44","G","L","U","",""
"","","","","","html-slider-response","146","157566","0.0-138.0","ptamah5jpp","10","NaN","<div style=""width:500px;"">
                            <p style=""font-size:50px; font-weight:bold;""
                            >playful</p>
                            <div style=""width:240px; margin: auto;"">
                                <img src=""images/Y_L_U_23.png"" style= ""width:200px""alt=""img"">
                            </div>
                        </div>","1","","0","images/Y_L_U_23.png","","","","playful","2","23","Y","L","U","",""
"","","","","","html-slider-response","147","158462","0.0-139.0","ptamah5jpp","10","NaN","<div style=""width:500px;"">
                            <p style=""font-size:50px; font-weight:bold;""
                            >playful</p>
                            <div style=""width:240px; margin: auto;"">
                                <img src=""images/B_L_S_07.png"" style= ""width:200px""alt=""img"">
                            </div>
                        </div>","1","","0","images/B_L_S_07.png","","","","playful","2","07","B","L","S","",""
"","","","","","html-slider-response","148","159294","0.0-140.0","ptamah5jpp","10","NaN","<div style=""width:500px;"">
                            <p style=""font-size:50px; font-weight:bold;""
                            >playful</p>
                            <div style=""width:240px; margin: auto;"">
                                <img src=""images/B_D_S_12.png"" style= ""width:200px""alt=""img"">
                            </div>
                        </div>","1","","0","images/B_D_S_12.png","","","","playful","2","12","B","D","S","",""
"","","","","","html-slider-response","149","160072","0.0-141.0","ptamah5jpp","10","NaN","<div style=""width:500px;"">
                            <p style=""font-size:50px; font-weight:bold;""
                            >playful</p>
                            <div style=""width:240px; margin: auto;"">
                                <img src=""images/R_D_U_37.png"" style= ""width:200px""alt=""img"">
                            </div>
                        </div>","1","","0","images/R_D_U_37.png","","","","playful","1","37","R","D","U","",""
"","","","","","html-slider-response","150","160710","0.0-142.0","ptamah5jpp","10","NaN","<div style=""width:500px;"">
                            <p style=""font-size:50px; font-weight:bold;""
                            >playful</p>
                            <div style=""width:240px; margin: auto;"">
                                <img src=""images/R_L_U_30.png"" style= ""width:200px""alt=""img"">
                            </div>
                        </div>","1","","0","images/R_L_U_30.png","","","","playful","2","30","R","L","U","",""
"","","","","","html-slider-response","151","161556","0.0-143.0","ptamah5jpp","10","NaN","<div style=""width:500px;"">
                            <p style=""font-size:50px; font-weight:bold;""
                            >playful</p>
                            <div style=""width:240px; margin: auto;"">
                                <img src=""images/G_L_U_44.png"" style= ""width:200px""alt=""img"">
                            </div>
                        </div>","1","","0","images/G_L_U_44.png","","","","playful","2","44","G","L","U","",""
"","","","","","html-slider-response","152","162279","0.0-144.0","ptamah5jpp","10","NaN","<div style=""width:500px;"">
                            <p style=""font-size:50px; font-weight:bold;""
                            >playful</p>
                            <div style=""width:240px; margin: auto;"">
                                <img src=""images/G_D_S_02.png"" style= ""width:200px""alt=""img"">
                            </div>
                        </div>","1","","0","images/G_D_S_02.png","","","","playful","2","02","G","D","S","",""
"","","","","","html-slider-response","153","163180","0.0-145.0","ptamah5jpp","10","NaN","<div style=""width:500px;"">
                            <p style=""font-size:50px; font-weight:bold;""
                            >playful</p>
                            <div style=""width:240px; margin: auto;"">
                                <img src=""images/G_D_U_05.png"" style= ""width:200px""alt=""img"">
                            </div>
                        </div>","2","","0","images/G_D_U_05.png","","","","playful","2","05","G","D","U","",""
"","","","","","html-slider-response","154","164057","0.0-146.0","ptamah5jpp","10","NaN","<div style=""width:500px;"">
                            <p style=""font-size:50px; font-weight:bold;""
                            >playful</p>
                            <div style=""width:240px; margin: auto;"">
                                <img src=""images/Y_D_S_26.png"" style= ""width:200px""alt=""img"">
                            </div>
                        </div>","2","","0","images/Y_D_S_26.png","","","","playful","1","26","Y","D","S","",""
"","","","","","html-slider-response","155","164732","0.0-147.0","ptamah5jpp","10","NaN","<div style=""width:500px;"">
                            <p style=""font-size:50px; font-weight:bold;""
                            >playful</p>
                            <div style=""width:240px; margin: auto;"">
                                <img src=""images/R_L_U_30.png"" style= ""width:200px""alt=""img"">
                            </div>
                        </div>","2","","0","images/R_L_U_30.png","","","","playful","1","30","R","L","U","",""
"","","","","","html-button-response","156","168371","0.0-148.0","ptamah5jpp","10","3137","<p>Great Job! You've finished block 4.<br></br> You have 4 block(s) left to go.<br></br></p>","0","","","","","","","","","","","","","",""
"","","","","","html-button-response","157","168980","0.0-149.0","ptamah5jpp","10","608","<p>In this block of trials, you will be asked to rate how much you associate each map with:</p > <p style = 'font-size:150%; font-weight: bold'>negative</p><br></br>","0","","","","","","","","","","","","","",""
"","","","","","html-slider-response","158","170149","0.0-150.0","ptamah5jpp","10","NaN","<div style=""width:500px;"">
                            <p style=""font-size:50px; font-weight:bold;""
                            >negative</p>
                            <div style=""width:240px; margin: auto;"">
                                <img src=""images/Y_L_U_23.png"" style= ""width:200px""alt=""img"">
                            </div>
                        </div>","-1","","0","images/Y_L_U_23.png","","","","negative","1","23","Y","L","U","",""
"","","","","","html-slider-response","159","170978","0.0-151.0","ptamah5jpp","10","NaN","<div style=""width:500px;"">
                            <p style=""font-size:50px; font-weight:bold;""
                            >negative</p>
                            <div style=""width:240px; margin: auto;"">
                                <img src=""images/G_D_S_02.png"" style= ""width:200px""alt=""img"">
                            </div>
                        </div>","-1","","0","images/G_D_S_02.png","","","","negative","1","02","G","D","S","",""
"","","","","","html-slider-response","160","171701","0.0-152.0","ptamah5jpp","10","NaN","<div style=""width:500px;"">
                            <p style=""font-size:50px; font-weight:bold;""
                            >negative</p>
                            <div style=""width:240px; margin: auto;"">
                                <img src=""images/Y_D_U_27.png"" style= ""width:200px""alt=""img"">
                            </div>
                        </div>","0","","0","images/Y_D_U_27.png","","","","negative","1","27","Y","D","U","",""
"","","","","","html-slider-response","161","172339","0.0-153.0","ptamah5jpp","10","NaN","<div style=""width:500px;"">
                            <p style=""font-size:50px; font-weight:bold;""
                            >negative</p>
                            <div style=""width:240px; margin: auto;"">
                                <img src=""images/Y_D_S_26.png"" style= ""width:200px""alt=""img"">
                            </div>
                        </div>","0","","0","images/Y_D_S_26.png","","","","negative","2","26","Y","D","S","",""
"","","","","","html-slider-response","162","173034","0.0-154.0","ptamah5jpp","10","NaN","<div style=""width:500px;"">
                            <p style=""font-size:50px; font-weight:bold;""
                            >negative</p>
                            <div style=""width:240px; margin: auto;"">
                                <img src=""images/Y_D_U_27.png"" style= ""width:200px""alt=""img"">
                            </div>
                        </div>","0","","0","images/Y_D_U_27.png","","","","negative","2","27","Y","D","U","",""
"","","","","","html-slider-response","163","173775","0.0-155.0","ptamah5jpp","10","NaN","<div style=""width:500px;"">
                            <p style=""font-size:50px; font-weight:bold;""
                            >negative</p>
                            <div style=""width:240px; margin: auto;"">
                                <img src=""images/Y_D_S_26.png"" style= ""width:200px""alt=""img"">
                            </div>
                        </div>","0","","0","images/Y_D_S_26.png","","","","negative","1","26","Y","D","S","",""
"","","","","","html-slider-response","164","174502","0.0-156.0","ptamah5jpp","10","NaN","<div style=""width:500px;"">
                            <p style=""font-size:50px; font-weight:bold;""
                            >negative</p>
                            <div style=""width:240px; margin: auto;"">
                                <img src=""images/G_D_U_05.png"" style= ""width:200px""alt=""img"">
                            </div>
                        </div>","0","","0","images/G_D_U_05.png","","","","negative","2","05","G","D","U","",""
"","","","","","html-slider-response","165","175263","0.0-157.0","ptamah5jpp","10","NaN","<div style=""width:500px;"">
                            <p style=""font-size:50px; font-weight:bold;""
                            >negative</p>
                            <div style=""width:240px; margin: auto;"">
                                <img src=""images/B_L_U_10.png"" style= ""width:200px""alt=""img"">
                            </div>
                        </div>","0","","0","images/B_L_U_10.png","","","","negative","2","10","B","L","U","",""
"","","","","","html-slider-response","166","176023","0.0-158.0","ptamah5jpp","10","NaN","<div style=""width:500px;"">
                            <p style=""font-size:50px; font-weight:bold;""
                            >negative</p>
                            <div style=""width:240px; margin: auto;"">
                                <img src=""images/R_L_U_30.png"" style= ""width:200px""alt=""img"">
                            </div>
                        </div>","0","","0","images/R_L_U_30.png","","","","negative","1","30","R","L","U","",""
"","","","","","html-slider-response","167","176797","0.0-159.0","ptamah5jpp","10","NaN","<div style=""width:500px;"">
                            <p style=""font-size:50px; font-weight:bold;""
                            >negative</p>
                            <div style=""width:240px; margin: auto;"">
                                <img src=""images/G_L_S_41.png"" style= ""width:200px""alt=""img"">
                            </div>
                        </div>","0","","0","images/G_L_S_41.png","","","","negative","2","41","G","L","S","",""
"","","","","","html-slider-response","168","177589","0.0-160.0","ptamah5jpp","10","NaN","<div style=""width:500px;"">
                            <p style=""font-size:50px; font-weight:bold;""
                            >negative</p>
                            <div style=""width:240px; margin: auto;"">
                                <img src=""images/Y_L_S_15.png"" style= ""width:200px""alt=""img"">
                            </div>
                        </div>","0","","0","images/Y_L_S_15.png","","","","negative","2","15","Y","L","S","",""
"","","","","","html-slider-response","169","178501","0.0-161.0","ptamah5jpp","10","NaN","<div style=""width:500px;"">
                            <p style=""font-size:50px; font-weight:bold;""
                            >negative</p>
                            <div style=""width:240px; margin: auto;"">
                                <img src=""images/R_L_U_30.png"" style= ""width:200px""alt=""img"">
                            </div>
                        </div>","0","","0","images/R_L_U_30.png","","","","negative","2","30","R","L","U","",""
"","","","","","html-slider-response","170","179277","0.0-162.0","ptamah5jpp","10","NaN","<div style=""width:500px;"">
                            <p style=""font-size:50px; font-weight:bold;""
                            >negative</p>
                            <div style=""width:240px; margin: auto;"">
                                <img src=""images/R_D_S_33.png"" style= ""width:200px""alt=""img"">
                            </div>
                        </div>","0","","0","images/R_D_S_33.png","","","","negative","2","33","R","D","S","",""
"","","","","","html-slider-response","171","180019","0.0-163.0","ptamah5jpp","10","NaN","<div style=""width:500px;"">
                            <p style=""font-size:50px; font-weight:bold;""
                            >negative</p>
                            <div style=""width:240px; margin: auto;"">
                                <img src=""images/G_D_S_02.png"" style= ""width:200px""alt=""img"">
                            </div>
                        </div>","0","","0","images/G_D_S_02.png","","","","negative","2","02","G","D","S","",""
"","","","","","html-slider-response","172","180865","0.0-164.0","ptamah5jpp","10","NaN","<div style=""width:500px;"">
                            <p style=""font-size:50px; font-weight:bold;""
                            >negative</p>
                            <div style=""width:240px; margin: auto;"">
                                <img src=""images/G_D_U_05.png"" style= ""width:200px""alt=""img"">
                            </div>
                        </div>","0","","0","images/G_D_U_05.png","","","","negative","1","05","G","D","U","",""
"","","","","","html-slider-response","173","182398","0.0-165.0","ptamah5jpp","10","NaN","<div style=""width:500px;"">
                            <p style=""font-size:50px; font-weight:bold;""
                            >negative</p>
                            <div style=""width:240px; margin: auto;"">
                                <img src=""images/B_L_U_10.png"" style= ""width:200px""alt=""img"">
                            </div>
                        </div>","2","","0","images/B_L_U_10.png","","","","negative","1","10","B","L","U","",""
"","","","","","html-slider-response","174","183150","0.0-166.0","ptamah5jpp","10","NaN","<div style=""width:500px;"">
                            <p style=""font-size:50px; font-weight:bold;""
                            >negative</p>
                            <div style=""width:240px; margin: auto;"">
                                <img src=""images/R_D_S_33.png"" style= ""width:200px""alt=""img"">
                            </div>
                        </div>","1","","0","images/R_D_S_33.png","","","","negative","1","33","R","D","S","",""
"","","","","","html-slider-response","175","183846","0.0-167.0","ptamah5jpp","10","NaN","<div style=""width:500px;"">
                            <p style=""font-size:50px; font-weight:bold;""
                            >negative</p>
                            <div style=""width:240px; margin: auto;"">
                                <img src=""images/R_D_U_37.png"" style= ""width:200px""alt=""img"">
                            </div>
                        </div>","1","","0","images/R_D_U_37.png","","","","negative","1","37","R","D","U","",""
"","","","","","html-slider-response","176","184549","0.0-168.0","ptamah5jpp","10","NaN","<div style=""width:500px;"">
                            <p style=""font-size:50px; font-weight:bold;""
                            >negative</p>
                            <div style=""width:240px; margin: auto;"">
                                <img src=""images/B_L_S_07.png"" style= ""width:200px""alt=""img"">
                            </div>
                        </div>","1","","0","images/B_L_S_07.png","","","","negative","2","07","B","L","S","",""
"","","","","","html-slider-response","177","185308","0.0-169.0","ptamah5jpp","10","NaN","<div style=""width:500px;"">
                            <p style=""font-size:50px; font-weight:bold;""
                            >negative</p>
                            <div style=""width:240px; margin: auto;"">
                                <img src=""images/R_D_U_37.png"" style= ""width:200px""alt=""img"">
                            </div>
                        </div>","1","","0","images/R_D_U_37.png","","","","negative","2","37","R","D","U","",""
"","","","","","html-slider-response","178","186031","0.0-170.0","ptamah5jpp","10","NaN","<div style=""width:500px;"">
                            <p style=""font-size:50px; font-weight:bold;""
                            >negative</p>
                            <div style=""width:240px; margin: auto;"">
                                <img src=""images/R_L_S_28.png"" style= ""width:200px""alt=""img"">
                            </div>
                        </div>","1","","0","images/R_L_S_28.png","","","","negative","1","28","R","L","S","",""
"","","","","","html-slider-response","179","186944","0.0-171.0","ptamah5jpp","10","NaN","<div style=""width:500px;"">
                            <p style=""font-size:50px; font-weight:bold;""
                            >negative</p>
                            <div style=""width:240px; margin: auto;"">
                                <img src=""images/B_D_U_13.png"" style= ""width:200px""alt=""img"">
                            </div>
                        </div>","1","","0","images/B_D_U_13.png","","","","negative","1","13","B","D","U","",""
"","","","","","html-slider-response","180","187599","0.0-172.0","ptamah5jpp","10","NaN","<div style=""width:500px;"">
                            <p style=""font-size:50px; font-weight:bold;""
                            >negative</p>
                            <div style=""width:240px; margin: auto;"">
                                <img src=""images/R_L_S_28.png"" style= ""width:200px""alt=""img"">
                            </div>
                        </div>","1","","0","images/R_L_S_28.png","","","","negative","2","28","R","L","S","",""
"","","","","","html-slider-response","181","188592","0.0-173.0","ptamah5jpp","10","NaN","<div style=""width:500px;"">
                            <p style=""font-size:50px; font-weight:bold;""
                            >negative</p>
                            <div style=""width:240px; margin: auto;"">
                                <img src=""images/B_D_S_12.png"" style= ""width:200px""alt=""img"">
                            </div>
                        </div>","1","","0","images/B_D_S_12.png","","","","negative","1","12","B","D","S","",""
"","","","","","html-slider-response","182","189302","0.0-174.0","ptamah5jpp","10","NaN","<div style=""width:500px;"">
                            <p style=""font-size:50px; font-weight:bold;""
                            >negative</p>
                            <div style=""width:240px; margin: auto;"">
                                <img src=""images/G_L_S_41.png"" style= ""width:200px""alt=""img"">
                            </div>
                        </div>","1","","0","images/G_L_S_41.png","","","","negative","1","41","G","L","S","",""
"","","","","","html-slider-response","183","190029","0.0-175.0","ptamah5jpp","10","NaN","<div style=""width:500px;"">
                            <p style=""font-size:50px; font-weight:bold;""
                            >negative</p>
                            <div style=""width:240px; margin: auto;"">
                                <img src=""images/B_D_U_13.png"" style= ""width:200px""alt=""img"">
                            </div>
                        </div>","1","","0","images/B_D_U_13.png","","","","negative","2","13","B","D","U","",""
"","","","","","html-slider-response","184","190805","0.0-176.0","ptamah5jpp","10","NaN","<div style=""width:500px;"">
                            <p style=""font-size:50px; font-weight:bold;""
                            >negative</p>
                            <div style=""width:240px; margin: auto;"">
                                <img src=""images/G_L_U_44.png"" style= ""width:200px""alt=""img"">
                            </div>
                        </div>","1","","0","images/G_L_U_44.png","","","","negative","1","44","G","L","U","",""
"","","","","","html-slider-response","185","191718","0.0-177.0","ptamah5jpp","10","NaN","<div style=""width:500px;"">
                            <p style=""font-size:50px; font-weight:bold;""
                            >negative</p>
                            <div style=""width:240px; margin: auto;"">
                                <img src=""images/G_L_U_44.png"" style= ""width:200px""alt=""img"">
                            </div>
                        </div>","1","","0","images/G_L_U_44.png","","","","negative","2","44","G","L","U","",""
"","","","","","html-slider-response","186","192592","0.0-178.0","ptamah5jpp","10","NaN","<div style=""width:500px;"">
                            <p style=""font-size:50px; font-weight:bold;""
                            >negative</p>
                            <div style=""width:240px; margin: auto;"">
                                <img src=""images/B_D_S_12.png"" style= ""width:200px""alt=""img"">
                            </div>
