"success","timeout","failed_images","failed_audio","failed_video","trial_type","trial_index","time_elapsed","internal_node_id","subject_id","condition_num","rt","stimulus","response","question_order","slider_start","image_path","practiceTrial","practiceTrialNum","correct","concept","repetition","map_id","hue","lightness","saturation","ishihara_plate","correct_response"
"true","false","[]","[]","[]","preload","0","549","0.0-0.0","pttv2mynsh","12","","","","","","","","","","","","","","","","",""
"","","","","","html-button-response","1","24824","0.0-1.0","pttv2mynsh","12","24273","Welcome to our experiment!<p>At the bottom of this screen, you will see a button that says ""Begin Experiment"".<br>Please only click that button when you are ready to complete the 25 minute experiment in one sitting.</p><p> Once you click that button, it will not be possible to restart the experiment.","0","","","","","","","","","","","","","",""
"true","","","","","fullscreen","2","32786","0.0-2.0","pttv2mynsh","12","6957","","","","","","","","","","","","","","","",""
"","","","","","survey-multi-select","3","43073","0.0-3.0","pttv2mynsh","12","10281","","{""Consent"":[""<strong>I consent</strong>""]}","[0]","","","","","","","","","","","","",""
"","","","","","html-button-response","4","47505","0.0-4.0","pttv2mynsh","12","4430","Welcome! <p> This experiment involves two parts: demographic information, followed by the experimental task.<p> It will take about 25 minutes to complete both parts.","0","","","","","","","","","","","","","",""
"","","","","","survey-text","5","95120","0.0-5.0","pttv2mynsh","12","47597","","{""Age"":""18"",""Gender"":""female"",""Race/ethnicity"":""white"",""Languages"":""English""}","","","","","","","","","","","","","",""
"","","","","","html-slider-response","6","106994","0.0-6.0","pttv2mynsh","12","11869","
                            <div style='text-align:left; font-size:20px; line-height:25px; width: 1400px;'>
                                During this experiment you will be asked to rate how much you associate maps with                    different concepts.<br> Below, you can see some examples of the maps you will be asked to rate. Next to the maps
                    is the list of concepts.<br>You will be asked                    to rate how much you associate each map with each concept on a scale from 'not at all' to 'very much' like the
                    one below. <br><br>
                    Now, please look at the list of concepts and maps. For each concept, think about the map you associate 'very
                    much' with the concept.<br>                     When you see that map during the experiment, please rate it near the 'very much' endpoint of the
                    scale.<br>Now, please think about which map you associate 'not at all'                     with each concept. When you see that map during the experiment, please rate it near the 'not at all' endpoint
                    of the scale.<br>
                    Please use the full range of the scale. That is, if a map is somewhat associated with the concept, you would
                    click partway between the middle point and right side of the scale.                    You will be asked to rate each map for a given concept before moving on to the next concept.<br><br>Press the
                    'Continue' button for instructions on how to use the slider.                    <br><br>
                </div>

                <div style=""width: 500px; margin: 0 auto;"">
                    <!-- Centered text paragraphs -->
                    <div style=""text-align: center; width: 500px;"">
                        <p style=""font-size:25px; line-height:18px;"">calm</p>
                        <p style=""font-size:25px; line-height:18px;"">exciting</p>
                        <p style=""font-size:25px;line-height:18px;"">positive</p>
                        <p style=""font-size:25px;line-height:18px;"">negative</p>
                        <p style=""font-size:25px;line-height:18px;"">serious</p>
                        <p style=""font-size:25px;line-height:18px;"">playful</p>
                        <p style=""font-size:25px;line-height:18px;"">trustworthy</p>
                        <p style=""font-size:25px;line-height:18px;"">disturbing</p>
                    </div>

                    <!-- Grid section -->
                   <div style=""display: flex; justify-content: center; padding-top: 15px;"">
                    <div style=""display: grid; grid-template-columns: repeat(8, 80px); grid-gap: 5px; width: auto;"">
                        <img src=""images/B_L_U_13.png"" alt=""map"" style=""width: 100%;""><img src=""images/Y_D_S_28.png"" alt=""map"" style=""width: 100%;""><img src=""images/Y_L_S_26.png"" alt=""map"" style=""width: 100%;""><img src=""images/B_L_S_12.png"" alt=""map"" style=""width: 100%;""><img src=""images/R_D_S_41.png"" alt=""map"" style=""width: 100%;""><img src=""images/G_L_S_02.png"" alt=""map"" style=""width: 100%;""><img src=""images/B_D_S_15.png"" alt=""map"" style=""width: 100%;""><img src=""images/G_D_U_10.png"" alt=""map"" style=""width: 100%;""><img src=""images/G_L_U_05.png"" alt=""map"" style=""width: 100%;""><img src=""images/Y_D_U_30.png"" alt=""map"" style=""width: 100%;""><img src=""images/B_D_U_23.png"" alt=""map"" style=""width: 100%;""><img src=""images/G_D_S_07.png"" alt=""map"" style=""width: 100%;""><img src=""images/R_L_U_37.png"" alt=""map"" style=""width: 100%;""><img src=""images/R_L_S_33.png"" alt=""map"" style=""width: 100%;""><img src=""images/R_D_U_44.png"" alt=""map"" style=""width: 100%;""><img src=""images/Y_L_U_27.png"" alt=""map"" style=""width: 100%;"">
                    </div>
                </div>

                    <!-- Clear floats -->
                    <div style=""clear: both;""></div>
                </div>
                            ","null","","0","maps_anchoring.png","true","","","","","","","","","",""
"","","","","","html-button-response","7","583282","0.0-7.0","pttv2mynsh","12","476285","<div style=""width:800px;""><p style=""text-align:left"">To move the slider, click and drag your cursor to the location of the scale where you would like to make your rating and then let go. When you let go of the slider, your response will be recorded and the next trial will begin. <br>
                    We are interested in your initial impressions of each map for the given concept, so please go with your first intuition. <br>
                    Before you begin the experiment, there will be four training trials for you to practice using the scale. <br>
                     When you are ready to start the training trials, please click ""Continue"".</p><br></div>","0","","","","","","","","","","","","","",""
"","","","","","html-slider-response","8","586199","0.0-8.0-0.0","pttv2mynsh","12","NaN","<div style=""width:500px;"">
                                    <p style=""font-size:25px;"">Please move the slider all the way to the <br> right endpoint of the scale</p>

                                    </div>
                                </div>","200","","0","","true","0","true","","","","","","","",""
"","","","","","html-button-response","9","587677","0.0-8.0-1.0","pttv2mynsh","12","976","<p align='center'><b>Good job!</b> Click on 'Continue' to proceed.</p>","0","","","","","","","","","","","","","",""
"","","","","","html-slider-response","10","589424","0.0-9.0-0.0","pttv2mynsh","12","NaN","<div style=""width:500px;"">
                                    <p style=""font-size:25px;"">Please move the slider all the way to the <br> left endpoint of the scale</p>

                                    </div>
                                </div>","-200","","0","","true","1","true","","","","","","","",""
"","","","","","html-button-response","11","591017","0.0-9.0-1.0","pttv2mynsh","12","1091","<p align='center'><b>Good job!</b> Click on 'Continue' to proceed.</p>","0","","","","","","","","","","","","","",""
"","","","","","html-slider-response","12","593920","0.0-10.0-0.0","pttv2mynsh","12","NaN","<div style=""width:500px;"">
                                    <p style=""font-size:25px;"">Please move the slider halfway between the center and right endpoint of the scale</p>

                                    </div>
                                </div>","109","","0","","true","2","true","","","","","","","",""
"","","","","","html-button-response","13","595238","0.0-10.0-1.0","pttv2mynsh","12","817","<p align='center'><b>Good job!</b> Click on 'Continue' to proceed.</p>","0","","","","","","","","","","","","","",""
"","","","","","html-slider-response","14","596430","0.0-11.0-0.0","pttv2mynsh","12","NaN","<div style=""width:500px;"">
                                    <p style=""font-size:25px;"">Please move the slider halfway between the center and left endpoint of the scale</p>

                                    </div>
                                </div>","-93","","0","","true","3","true","","","","","","","",""
"","","","","","html-button-response","15","597429","0.0-11.0-1.0","pttv2mynsh","12","497","<p align='center'><b>Good job!</b> Click on 'Continue' to proceed.</p>","0","","","","","","","","","","","","","",""
"","","","","","html-button-response","16","598262","0.0-12.0","pttv2mynsh","12","831","<p>Great job! You've completed the practice trials. Now you will begin the main task.</p>","0","","","","","","","","","","","","","",""
"","","","","","html-button-response","17","600205","0.0-13.0","pttv2mynsh","12","1943","<p>In this block of trials, you will be asked to rate how much you associate each map with:</p > <p style = 'font-size:150%; font-weight: bold'>disturbing</p><br></br>","0","","","","","","","","","","","","","",""
"","","","","","html-slider-response","18","602810","0.0-14.0","pttv2mynsh","12","NaN","<div style=""width:500px;"">
                            <p style=""font-size:50px; font-weight:bold;""
                            >disturbing</p>
                            <div style=""width:240px; margin: auto;"">
                                <img src=""images/B_D_S_15.png"" style= ""width:200px""alt=""img"">
                            </div>
                        </div>","129","","0","images/B_D_S_15.png","","","","disturbing","2","15","B","D","S","",""
"","","","","","html-slider-response","19","604450","0.0-15.0","pttv2mynsh","12","NaN","<div style=""width:500px;"">
                            <p style=""font-size:50px; font-weight:bold;""
                            >disturbing</p>
                            <div style=""width:240px; margin: auto;"">
                                <img src=""images/Y_D_S_28.png"" style= ""width:200px""alt=""img"">
                            </div>
                        </div>","200","","0","images/Y_D_S_28.png","","","","disturbing","2","28","Y","D","S","",""
"","","","","","html-slider-response","20","606471","0.0-16.0","pttv2mynsh","12","NaN","<div style=""width:500px;"">
                            <p style=""font-size:50px; font-weight:bold;""
                            >disturbing</p>
                            <div style=""width:240px; margin: auto;"">
                                <img src=""images/G_L_U_05.png"" style= ""width:200px""alt=""img"">
                            </div>
                        </div>","-63","","0","images/G_L_U_05.png","","","","disturbing","2","05","G","L","U","",""
"","","","","","html-slider-response","21","608744","0.0-17.0","pttv2mynsh","12","NaN","<div style=""width:500px;"">
                            <p style=""font-size:50px; font-weight:bold;""
                            >disturbing</p>
                            <div style=""width:240px; margin: auto;"">
                                <img src=""images/B_L_U_13.png"" style= ""width:200px""alt=""img"">
                            </div>
                        </div>","-102","","0","images/B_L_U_13.png","","","","disturbing","1","13","B","L","U","",""
"","","","","","html-slider-response","22","610402","0.0-18.0","pttv2mynsh","12","NaN","<div style=""width:500px;"">
                            <p style=""font-size:50px; font-weight:bold;""
                            >disturbing</p>
                            <div style=""width:240px; margin: auto;"">
                                <img src=""images/G_L_S_02.png"" style= ""width:200px""alt=""img"">
                            </div>
                        </div>","-98","","0","images/G_L_S_02.png","","","","disturbing","1","02","G","L","S","",""
"","","","","","html-slider-response","23","612334","0.0-19.0","pttv2mynsh","12","NaN","<div style=""width:500px;"">
                            <p style=""font-size:50px; font-weight:bold;""
                            >disturbing</p>
                            <div style=""width:240px; margin: auto;"">
                                <img src=""images/R_L_U_37.png"" style= ""width:200px""alt=""img"">
                            </div>
                        </div>","49","","0","images/R_L_U_37.png","","","","disturbing","2","37","R","L","U","",""
"","","","","","html-slider-response","24","614703","0.0-20.0","pttv2mynsh","12","NaN","<div style=""width:500px;"">
                            <p style=""font-size:50px; font-weight:bold;""
                            >disturbing</p>
                            <div style=""width:240px; margin: auto;"">
                                <img src=""images/B_D_U_23.png"" style= ""width:200px""alt=""img"">
                            </div>
                        </div>","-200","","0","images/B_D_U_23.png","","","","disturbing","2","23","B","D","U","",""
"","","","","","html-slider-response","25","617583","0.0-21.0","pttv2mynsh","12","NaN","<div style=""width:500px;"">
                            <p style=""font-size:50px; font-weight:bold;""
                            >disturbing</p>
                            <div style=""width:240px; margin: auto;"">
                                <img src=""images/R_D_S_41.png"" style= ""width:200px""alt=""img"">
                            </div>
                        </div>","-37","","0","images/R_D_S_41.png","","","","disturbing","1","41","R","D","S","",""
"","","","","","html-slider-response","26","620847","0.0-22.0","pttv2mynsh","12","NaN","<div style=""width:500px;"">
                            <p style=""font-size:50px; font-weight:bold;""
                            >disturbing</p>
                            <div style=""width:240px; margin: auto;"">
                                <img src=""images/G_L_S_02.png"" style= ""width:200px""alt=""img"">
                            </div>
                        </div>","-47","","0","images/G_L_S_02.png","","","","disturbing","2","02","G","L","S","",""
"","","","","","html-slider-response","27","622637","0.0-23.0","pttv2mynsh","12","NaN","<div style=""width:500px;"">
                            <p style=""font-size:50px; font-weight:bold;""
                            >disturbing</p>
                            <div style=""width:240px; margin: auto;"">
                                <img src=""images/G_D_U_10.png"" style= ""width:200px""alt=""img"">
                            </div>
                        </div>","35","","0","images/G_D_U_10.png","","","","disturbing","1","10","G","D","U","",""
"","","","","","html-slider-response","28","624583","0.0-24.0","pttv2mynsh","12","NaN","<div style=""width:500px;"">
                            <p style=""font-size:50px; font-weight:bold;""
                            >disturbing</p>
                            <div style=""width:240px; margin: auto;"">
                                <img src=""images/G_D_U_10.png"" style= ""width:200px""alt=""img"">
                            </div>
                        </div>","27","","0","images/G_D_U_10.png","","","","disturbing","2","10","G","D","U","",""
"","","","","","html-slider-response","29","626348","0.0-25.0","pttv2mynsh","12","NaN","<div style=""width:500px;"">
                            <p style=""font-size:50px; font-weight:bold;""
                            >disturbing</p>
                            <div style=""width:240px; margin: auto;"">
                                <img src=""images/R_D_S_41.png"" style= ""width:200px""alt=""img"">
                            </div>
                        </div>","58","","0","images/R_D_S_41.png","","","","disturbing","2","41","R","D","S","",""
"","","","","","html-slider-response","30","628094","0.0-26.0","pttv2mynsh","12","NaN","<div style=""width:500px;"">
                            <p style=""font-size:50px; font-weight:bold;""
                            >disturbing</p>
                            <div style=""width:240px; margin: auto;"">
                                <img src=""images/Y_L_S_26.png"" style= ""width:200px""alt=""img"">
                            </div>
                        </div>","158","","0","images/Y_L_S_26.png","","","","disturbing","1","26","Y","L","S","",""
"","","","","","html-slider-response","31","629960","0.0-27.0","pttv2mynsh","12","NaN","<div style=""width:500px;"">
                            <p style=""font-size:50px; font-weight:bold;""
                            >disturbing</p>
                            <div style=""width:240px; margin: auto;"">
                                <img src=""images/G_L_U_05.png"" style= ""width:200px""alt=""img"">
                            </div>
                        </div>","-50","","0","images/G_L_U_05.png","","","","disturbing","1","05","G","L","U","",""
"","","","","","html-slider-response","32","631521","0.0-28.0","pttv2mynsh","12","NaN","<div style=""width:500px;"">
                            <p style=""font-size:50px; font-weight:bold;""
                            >disturbing</p>
                            <div style=""width:240px; margin: auto;"">
                                <img src=""images/R_D_U_44.png"" style= ""width:200px""alt=""img"">
                            </div>
                        </div>","40","","0","images/R_D_U_44.png","","","","disturbing","2","44","R","D","U","",""
"","","","","","html-slider-response","33","633235","0.0-29.0","pttv2mynsh","12","NaN","<div style=""width:500px;"">
                            <p style=""font-size:50px; font-weight:bold;""
                            >disturbing</p>
                            <div style=""width:240px; margin: auto;"">
                                <img src=""images/B_L_S_12.png"" style= ""width:200px""alt=""img"">
                            </div>
                        </div>","-26","","0","images/B_L_S_12.png","","","","disturbing","2","12","B","L","S","",""
"","","","","","html-slider-response","34","634932","0.0-30.0","pttv2mynsh","12","NaN","<div style=""width:500px;"">
                            <p style=""font-size:50px; font-weight:bold;""
                            >disturbing</p>
                            <div style=""width:240px; margin: auto;"">
                                <img src=""images/B_L_U_13.png"" style= ""width:200px""alt=""img"">
                            </div>
                        </div>","-156","","0","images/B_L_U_13.png","","","","disturbing","2","13","B","L","U","",""
"","","","","","html-slider-response","35","636954","0.0-31.0","pttv2mynsh","12","NaN","<div style=""width:500px;"">
                            <p style=""font-size:50px; font-weight:bold;""
                            >disturbing</p>
                            <div style=""width:240px; margin: auto;"">
                                <img src=""images/Y_D_U_30.png"" style= ""width:200px""alt=""img"">
                            </div>
                        </div>","194","","0","images/Y_D_U_30.png","","","","disturbing","1","30","Y","D","U","",""
"","","","","","html-slider-response","36","638749","0.0-32.0","pttv2mynsh","12","NaN","<div style=""width:500px;"">
                            <p style=""font-size:50px; font-weight:bold;""
                            >disturbing</p>
                            <div style=""width:240px; margin: auto;"">
                                <img src=""images/R_D_U_44.png"" style= ""width:200px""alt=""img"">
                            </div>
                        </div>","50","","0","images/R_D_U_44.png","","","","disturbing","1","44","R","D","U","",""
"","","","","","html-slider-response","37","640666","0.0-33.0","pttv2mynsh","12","NaN","<div style=""width:500px;"">
                            <p style=""font-size:50px; font-weight:bold;""
                            >disturbing</p>
                            <div style=""width:240px; margin: auto;"">
                                <img src=""images/Y_L_U_27.png"" style= ""width:200px""alt=""img"">
                            </div>
                        </div>","65","","0","images/Y_L_U_27.png","","","","disturbing","2","27","Y","L","U","",""
"","","","","","html-slider-response","38","643294","0.0-34.0","pttv2mynsh","12","NaN","<div style=""width:500px;"">
                            <p style=""font-size:50px; font-weight:bold;""
                            >disturbing</p>
                            <div style=""width:240px; margin: auto;"">
                                <img src=""images/R_L_S_33.png"" style= ""width:200px""alt=""img"">
                            </div>
                        </div>","62","","0","images/R_L_S_33.png","","","","disturbing","2","33","R","L","S","",""
"","","","","","html-slider-response","39","645337","0.0-35.0","pttv2mynsh","12","NaN","<div style=""width:500px;"">
                            <p style=""font-size:50px; font-weight:bold;""
                            >disturbing</p>
                            <div style=""width:240px; margin: auto;"">
                                <img src=""images/Y_L_S_26.png"" style= ""width:200px""alt=""img"">
                            </div>
                        </div>","122","","0","images/Y_L_S_26.png","","","","disturbing","2","26","Y","L","S","",""
"","","","","","html-slider-response","40","647038","0.0-36.0","pttv2mynsh","12","NaN","<div style=""width:500px;"">
                            <p style=""font-size:50px; font-weight:bold;""
                            >disturbing</p>
                            <div style=""width:240px; margin: auto;"">
                                <img src=""images/G_D_S_07.png"" style= ""width:200px""alt=""img"">
                            </div>
                        </div>","74","","0","images/G_D_S_07.png","","","","disturbing","1","07","G","D","S","",""
"","","","","","html-slider-response","41","649024","0.0-37.0","pttv2mynsh","12","NaN","<div style=""width:500px;"">
                            <p style=""font-size:50px; font-weight:bold;""
                            >disturbing</p>
                            <div style=""width:240px; margin: auto;"">
                                <img src=""images/B_L_S_12.png"" style= ""width:200px""alt=""img"">
                            </div>
                        </div>","-114","","0","images/B_L_S_12.png","","","","disturbing","1","12","B","L","S","",""
"","","","","","html-slider-response","42","651016","0.0-38.0","pttv2mynsh","12","NaN","<div style=""width:500px;"">
                            <p style=""font-size:50px; font-weight:bold;""
                            >disturbing</p>
                            <div style=""width:240px; margin: auto;"">
                                <img src=""images/B_D_S_15.png"" style= ""width:200px""alt=""img"">
                            </div>
                        </div>","-94","","0","images/B_D_S_15.png","","","","disturbing","1","15","B","D","S","",""
"","","","","","html-slider-response","43","652703","0.0-39.0","pttv2mynsh","12","NaN","<div style=""width:500px;"">
                            <p style=""font-size:50px; font-weight:bold;""
                            >disturbing</p>
                            <div style=""width:240px; margin: auto;"">
                                <img src=""images/B_D_U_23.png"" style= ""width:200px""alt=""img"">
                            </div>
                        </div>","-70","","0","images/B_D_U_23.png","","","","disturbing","1","23","B","D","U","",""
"","","","","","html-slider-response","44","654409","0.0-40.0","pttv2mynsh","12","NaN","<div style=""width:500px;"">
                            <p style=""font-size:50px; font-weight:bold;""
                            >disturbing</p>
                            <div style=""width:240px; margin: auto;"">
                                <img src=""images/R_L_U_37.png"" style= ""width:200px""alt=""img"">
                            </div>
                        </div>","92","","0","images/R_L_U_37.png","","","","disturbing","1","37","R","L","U","",""
"","","","","","html-slider-response","45","656220","0.0-41.0","pttv2mynsh","12","NaN","<div style=""width:500px;"">
                            <p style=""font-size:50px; font-weight:bold;""
                            >disturbing</p>
                            <div style=""width:240px; margin: auto;"">
                                <img src=""images/Y_D_U_30.png"" style= ""width:200px""alt=""img"">
                            </div>
                        </div>","200","","0","images/Y_D_U_30.png","","","","disturbing","2","30","Y","D","U","",""
"","","","","","html-slider-response","46","694539","0.0-42.0","pttv2mynsh","12","NaN","<div style=""width:500px;"">
                            <p style=""font-size:50px; font-weight:bold;""
                            >disturbing</p>
                            <div style=""width:240px; margin: auto;"">
                                <img src=""images/G_D_S_07.png"" style= ""width:200px""alt=""img"">
                            </div>
                        </div>","-26","","0","images/G_D_S_07.png","","","","disturbing","2","07","G","D","S","",""
"","","","","","html-slider-response","47","695980","0.0-43.0","pttv2mynsh","12","NaN","<div style=""width:500px;"">
                            <p style=""font-size:50px; font-weight:bold;""
                            >disturbing</p>
                            <div style=""width:240px; margin: auto;"">
                                <img src=""images/Y_D_S_28.png"" style= ""width:200px""alt=""img"">
                            </div>
                        </div>","200","","0","images/Y_D_S_28.png","","","","disturbing","1","28","Y","D","S","",""
"","","","","","html-slider-response","48","697562","0.0-44.0","pttv2mynsh","12","NaN","<div style=""width:500px;"">
                            <p style=""font-size:50px; font-weight:bold;""
                            >disturbing</p>
                            <div style=""width:240px; margin: auto;"">
                                <img src=""images/R_L_S_33.png"" style= ""width:200px""alt=""img"">
                            </div>
                        </div>","66","","0","images/R_L_S_33.png","","","","disturbing","1","33","R","L","S","",""
"","","","","","html-slider-response","49","699149","0.0-45.0","pttv2mynsh","12","NaN","<div style=""width:500px;"">
                            <p style=""font-size:50px; font-weight:bold;""
                            >disturbing</p>
                            <div style=""width:240px; margin: auto;"">
                                <img src=""images/Y_L_U_27.png"" style= ""width:200px""alt=""img"">
                            </div>
                        </div>","115","","0","images/Y_L_U_27.png","","","","disturbing","1","27","Y","L","U","",""
"","","","","","html-button-response","50","701094","0.0-46.0","pttv2mynsh","12","1443","<p>Great Job! You've finished block 1.<br></br> You have 7 block(s) left to go.<br></br></p>","0","","","","","","","","","","","","","",""
"","","","","","html-button-response","51","702114","0.0-47.0","pttv2mynsh","12","1020","<p>In this block of trials, you will be asked to rate how much you associate each map with:</p > <p style = 'font-size:150%; font-weight: bold'>trustworthy</p><br></br>","0","","","","","","","","","","","","","",""
"","","","","","html-slider-response","52","705578","0.0-48.0","pttv2mynsh","12","NaN","<div style=""width:500px;"">
                            <p style=""font-size:50px; font-weight:bold;""
                            >trustworthy</p>
                            <div style=""width:240px; margin: auto;"">
                                <img src=""images/R_D_U_44.png"" style= ""width:200px""alt=""img"">
                            </div>
                        </div>","46","","0","images/R_D_U_44.png","","","","trustworthy","1","44","R","D","U","",""
"","","","","","html-slider-response","53","707791","0.0-49.0","pttv2mynsh","12","NaN","<div style=""width:500px;"">
                            <p style=""font-size:50px; font-weight:bold;""
                            >trustworthy</p>
                            <div style=""width:240px; margin: auto;"">
                                <img src=""images/Y_D_S_28.png"" style= ""width:200px""alt=""img"">
                            </div>
                        </div>","200","","0","images/Y_D_S_28.png","","","","trustworthy","1","28","Y","D","S","",""
"","","","","","html-slider-response","54","712789","0.0-50.0","pttv2mynsh","12","NaN","<div style=""width:500px;"">
                            <p style=""font-size:50px; font-weight:bold;""
                            >trustworthy</p>
                            <div style=""width:240px; margin: auto;"">
                                <img src=""images/G_L_S_02.png"" style= ""width:200px""alt=""img"">
                            </div>
                        </div>","-65","","0","images/G_L_S_02.png","","","","trustworthy","1","02","G","L","S","",""
"","","","","","html-slider-response","55","714350","0.0-51.0","pttv2mynsh","12","NaN","<div style=""width:500px;"">
                            <p style=""font-size:50px; font-weight:bold;""
                            >trustworthy</p>
                            <div style=""width:240px; margin: auto;"">
                                <img src=""images/B_D_U_23.png"" style= ""width:200px""alt=""img"">
                            </div>
                        </div>","200","","0","images/B_D_U_23.png","","","","trustworthy","1","23","B","D","U","",""
"","","","","","html-slider-response","56","716226","0.0-52.0","pttv2mynsh","12","NaN","<div style=""width:500px;"">
                            <p style=""font-size:50px; font-weight:bold;""
                            >trustworthy</p>
                            <div style=""width:240px; margin: auto;"">
                                <img src=""images/Y_D_U_30.png"" style= ""width:200px""alt=""img"">
                            </div>
                        </div>","-200","","0","images/Y_D_U_30.png","","","","trustworthy","1","30","Y","D","U","",""
"","","","","","html-slider-response","57","720243","0.0-53.0","pttv2mynsh","12","NaN","<div style=""width:500px;"">
                            <p style=""font-size:50px; font-weight:bold;""
                            >trustworthy</p>
                            <div style=""width:240px; margin: auto;"">
                                <img src=""images/R_L_U_37.png"" style= ""width:200px""alt=""img"">
                            </div>
                        </div>","93","","0","images/R_L_U_37.png","","","","trustworthy","1","37","R","L","U","",""
"","","","","","html-slider-response","58","722850","0.0-54.0","pttv2mynsh","12","NaN","<div style=""width:500px;"">
                            <p style=""font-size:50px; font-weight:bold;""
                            >trustworthy</p>
                            <div style=""width:240px; margin: auto;"">
                                <img src=""images/G_L_S_02.png"" style= ""width:200px""alt=""img"">
                            </div>
                        </div>","-37","","0","images/G_L_S_02.png","","","","trustworthy","2","02","G","L","S","",""
"","","","","","html-slider-response","59","724514","0.0-55.0","pttv2mynsh","12","NaN","<div style=""width:500px;"">
                            <p style=""font-size:50px; font-weight:bold;""
                            >trustworthy</p>
                            <div style=""width:240px; margin: auto;"">
                                <img src=""images/Y_L_U_27.png"" style= ""width:200px""alt=""img"">
                            </div>
                        </div>","-65","","0","images/Y_L_U_27.png","","","","trustworthy","2","27","Y","L","U","",""
"","","","","","html-slider-response","60","726941","0.0-56.0","pttv2mynsh","12","NaN","<div style=""width:500px;"">
                            <p style=""font-size:50px; font-weight:bold;""
                            >trustworthy</p>
                            <div style=""width:240px; margin: auto;"">
                                <img src=""images/G_L_U_05.png"" style= ""width:200px""alt=""img"">
                            </div>
                        </div>","-21","","0","images/G_L_U_05.png","","","","trustworthy","2","05","G","L","U","",""
"","","","","","html-slider-response","61","729115","0.0-57.0","pttv2mynsh","12","NaN","<div style=""width:500px;"">
                            <p style=""font-size:50px; font-weight:bold;""
                            >trustworthy</p>
                            <div style=""width:240px; margin: auto;"">
                                <img src=""images/Y_L_S_26.png"" style= ""width:200px""alt=""img"">
                            </div>
                        </div>","-193","","0","images/Y_L_S_26.png","","","","trustworthy","1","26","Y","L","S","",""
"","","","","","html-slider-response","62","730828","0.0-58.0","pttv2mynsh","12","NaN","<div style=""width:500px;"">
                            <p style=""font-size:50px; font-weight:bold;""
                            >trustworthy</p>
                            <div style=""width:240px; margin: auto;"">
                                <img src=""images/B_L_U_13.png"" style= ""width:200px""alt=""img"">
                            </div>
                        </div>","98","","0","images/B_L_U_13.png","","","","trustworthy","1","13","B","L","U","",""
"","","","","","html-slider-response","63","733649","0.0-59.0","pttv2mynsh","12","NaN","<div style=""width:500px;"">
                            <p style=""font-size:50px; font-weight:bold;""
                            >trustworthy</p>
                            <div style=""width:240px; margin: auto;"">
                                <img src=""images/R_D_S_41.png"" style= ""width:200px""alt=""img"">
                            </div>
                        </div>","48","","0","images/R_D_S_41.png","","","","trustworthy","1","41","R","D","S","",""
"","","","","","html-slider-response","64","735413","0.0-60.0","pttv2mynsh","12","NaN","<div style=""width:500px;"">
                            <p style=""font-size:50px; font-weight:bold;""
                            >trustworthy</p>
                            <div style=""width:240px; margin: auto;"">
                                <img src=""images/R_D_U_44.png"" style= ""width:200px""alt=""img"">
                            </div>
                        </div>","54","","0","images/R_D_U_44.png","","","","trustworthy","2","44","R","D","U","",""
"","","","","","html-slider-response","65","737425","0.0-61.0","pttv2mynsh","12","NaN","<div style=""width:500px;"">
                            <p style=""font-size:50px; font-weight:bold;""
                            >trustworthy</p>
                            <div style=""width:240px; margin: auto;"">
                                <img src=""images/G_L_U_05.png"" style= ""width:200px""alt=""img"">
                            </div>
                        </div>","39","","0","images/G_L_U_05.png","","","","trustworthy","1","05","G","L","U","",""
"","","","","","html-slider-response","66","739253","0.0-62.0","pttv2mynsh","12","NaN","<div style=""width:500px;"">
                            <p style=""font-size:50px; font-weight:bold;""
                            >trustworthy</p>
                            <div style=""width:240px; margin: auto;"">
                                <img src=""images/Y_D_S_28.png"" style= ""width:200px""alt=""img"">
                            </div>
                        </div>","-200","","0","images/Y_D_S_28.png","","","","trustworthy","2","28","Y","D","S","",""
"","","","","","html-slider-response","67","741737","0.0-63.0","pttv2mynsh","12","NaN","<div style=""width:500px;"">
                            <p style=""font-size:50px; font-weight:bold;""
                            >trustworthy</p>
                            <div style=""width:240px; margin: auto;"">
                                <img src=""images/G_D_S_07.png"" style= ""width:200px""alt=""img"">
                            </div>
                        </div>","-25","","0","images/G_D_S_07.png","","","","trustworthy","1","07","G","D","S","",""
"","","","","","html-slider-response","68","743109","0.0-64.0","pttv2mynsh","12","NaN","<div style=""width:500px;"">
                            <p style=""font-size:50px; font-weight:bold;""
                            >trustworthy</p>
                            <div style=""width:240px; margin: auto;"">
                                <img src=""images/G_D_S_07.png"" style= ""width:200px""alt=""img"">
                            </div>
                        </div>","-120","","0","images/G_D_S_07.png","","","","trustworthy","2","07","G","D","S","",""
"","","","","","html-slider-response","69","744858","0.0-65.0","pttv2mynsh","12","NaN","<div style=""width:500px;"">
                            <p style=""font-size:50px; font-weight:bold;""
                            >trustworthy</p>
                            <div style=""width:240px; margin: auto;"">
                                <img src=""images/Y_D_U_30.png"" style= ""width:200px""alt=""img"">
                            </div>
                        </div>","-200","","0","images/Y_D_U_30.png","","","","trustworthy","2","30","Y","D","U","",""
"","","","","","html-slider-response","70","749540","0.0-66.0","pttv2mynsh","12","NaN","<div style=""width:500px;"">
                            <p style=""font-size:50px; font-weight:bold;""
                            >trustworthy</p>
                            <div style=""width:240px; margin: auto;"">
                                <img src=""images/G_D_U_10.png"" style= ""width:200px""alt=""img"">
                            </div>
                        </div>","63","","0","images/G_D_U_10.png","","","","trustworthy","2","10","G","D","U","",""
"","","","","","html-slider-response","71","751366","0.0-67.0","pttv2mynsh","12","NaN","<div style=""width:500px;"">
                            <p style=""font-size:50px; font-weight:bold;""
                            >trustworthy</p>
                            <div style=""width:240px; margin: auto;"">
                                <img src=""images/B_L_S_12.png"" style= ""width:200px""alt=""img"">
                            </div>
                        </div>","100","","0","images/B_L_S_12.png","","","","trustworthy","2","12","B","L","S","",""
"","","","","","html-slider-response","72","753728","0.0-68.0","pttv2mynsh","12","NaN","<div style=""width:500px;"">
                            <p style=""font-size:50px; font-weight:bold;""
                            >trustworthy</p>
                            <div style=""width:240px; margin: auto;"">
                                <img src=""images/B_D_S_15.png"" style= ""width:200px""alt=""img"">
                            </div>
                        </div>","46","","0","images/B_D_S_15.png","","","","trustworthy","1","15","B","D","S","",""
"","","","","","html-slider-response","73","756944","0.0-69.0","pttv2mynsh","12","NaN","<div style=""width:500px;"">
                            <p style=""font-size:50px; font-weight:bold;""
                            >trustworthy</p>
                            <div style=""width:240px; margin: auto;"">
                                <img src=""images/R_L_U_37.png"" style= ""width:200px""alt=""img"">
                            </div>
                        </div>","74","","0","images/R_L_U_37.png","","","","trustworthy","2","37","R","L","U","",""
"","","","","","html-slider-response","74","759993","0.0-70.0","pttv2mynsh","12","NaN","<div style=""width:500px;"">
                            <p style=""font-size:50px; font-weight:bold;""
                            >trustworthy</p>
                            <div style=""width:240px; margin: auto;"">
                                <img src=""images/B_L_S_12.png"" style= ""width:200px""alt=""img"">
                            </div>
                        </div>","102","","0","images/B_L_S_12.png","","","","trustworthy","1","12","B","L","S","",""
"","","","","","html-slider-response","75","763225","0.0-71.0","pttv2mynsh","12","NaN","<div style=""width:500px;"">
                            <p style=""font-size:50px; font-weight:bold;""
                            >trustworthy</p>
                            <div style=""width:240px; margin: auto;"">
                                <img src=""images/B_L_U_13.png"" style= ""width:200px""alt=""img"">
                            </div>
                        </div>","74","","0","images/B_L_U_13.png","","","","trustworthy","2","13","B","L","U","",""
"","","","","","html-slider-response","76","765410","0.0-72.0","pttv2mynsh","12","NaN","<div style=""width:500px;"">
                            <p style=""font-size:50px; font-weight:bold;""
                            >trustworthy</p>
                            <div style=""width:240px; margin: auto;"">
                                <img src=""images/R_L_S_33.png"" style= ""width:200px""alt=""img"">
                            </div>
                        </div>","74","","0","images/R_L_S_33.png","","","","trustworthy","1","33","R","L","S","",""
"","","","","","html-slider-response","77","769943","0.0-73.0","pttv2mynsh","12","NaN","<div style=""width:500px;"">
                            <p style=""font-size:50px; font-weight:bold;""
                            >trustworthy</p>
                            <div style=""width:240px; margin: auto;"">
                                <img src=""images/Y_L_U_27.png"" style= ""width:200px""alt=""img"">
                            </div>
                        </div>","-79","","0","images/Y_L_U_27.png","","","","trustworthy","1","27","Y","L","U","",""
"","","","","","html-slider-response","78","771319","0.0-74.0","pttv2mynsh","12","NaN","<div style=""width:500px;"">
                            <p style=""font-size:50px; font-weight:bold;""
                            >trustworthy</p>
                            <div style=""width:240px; margin: auto;"">
                                <img src=""images/R_L_S_33.png"" style= ""width:200px""alt=""img"">
                            </div>
                        </div>","38","","0","images/R_L_S_33.png","","","","trustworthy","2","33","R","L","S","",""
"","","","","","html-slider-response","79","773784","0.0-75.0","pttv2mynsh","12","NaN","<div style=""width:500px;"">
                            <p style=""font-size:50px; font-weight:bold;""
                            >trustworthy</p>
                            <div style=""width:240px; margin: auto;"">
                                <img src=""images/B_D_S_15.png"" style= ""width:200px""alt=""img"">
                            </div>
                        </div>","-56","","0","images/B_D_S_15.png","","","","trustworthy","2","15","B","D","S","",""
"","","","","","html-slider-response","80","775215","0.0-76.0","pttv2mynsh","12","NaN","<div style=""width:500px;"">
                            <p style=""font-size:50px; font-weight:bold;""
                            >trustworthy</p>
                            <div style=""width:240px; margin: auto;"">
                                <img src=""images/R_D_S_41.png"" style= ""width:200px""alt=""img"">
                            </div>
                        </div>","40","","0","images/R_D_S_41.png","","","","trustworthy","2","41","R","D","S","",""
"","","","","","html-slider-response","81","776840","0.0-77.0","pttv2mynsh","12","NaN","<div style=""width:500px;"">
                            <p style=""font-size:50px; font-weight:bold;""
                            >trustworthy</p>
                            <div style=""width:240px; margin: auto;"">
                                <img src=""images/B_D_U_23.png"" style= ""width:200px""alt=""img"">
                            </div>
                        </div>","168","","0","images/B_D_U_23.png","","","","trustworthy","2","23","B","D","U","",""
"","","","","","html-slider-response","82","778708","0.0-78.0","pttv2mynsh","12","NaN","<div style=""width:500px;"">
                            <p style=""font-size:50px; font-weight:bold;""
                            >trustworthy</p>
                            <div style=""width:240px; margin: auto;"">
                                <img src=""images/G_D_U_10.png"" style= ""width:200px""alt=""img"">
                            </div>
                        </div>","200","","0","images/G_D_U_10.png","","","","trustworthy","1","10","G","D","U","",""
"","","","","","html-slider-response","83","781514","0.0-79.0","pttv2mynsh","12","NaN","<div style=""width:500px;"">
                            <p style=""font-size:50px; font-weight:bold;""
                            >trustworthy</p>
                            <div style=""width:240px; margin: auto;"">
                                <img src=""images/Y_L_S_26.png"" style= ""width:200px""alt=""img"">
                            </div>
                        </div>","-147","","0","images/Y_L_S_26.png","","","","trustworthy","2","26","Y","L","S","",""
"","","","","","html-button-response","84","783219","0.0-80.0","pttv2mynsh","12","1204","<p>Great Job! You've finished block 2.<br></br> You have 6 block(s) left to go.<br></br></p>","0","","","","","","","","","","","","","",""
"","","","","","html-button-response","85","784293","0.0-81.0","pttv2mynsh","12","1072","<p>In this block of trials, you will be asked to rate how much you associate each map with:</p > <p style = 'font-size:150%; font-weight: bold'>playful</p><br></br>","0","","","","","","","","","","","","","",""
"","","","","","html-slider-response","86","785558","0.0-82.0","pttv2mynsh","12","NaN","<div style=""width:500px;"">
                            <p style=""font-size:50px; font-weight:bold;""
                            >playful</p>
                            <div style=""width:240px; margin: auto;"">
                                <img src=""images/G_D_S_07.png"" style= ""width:200px""alt=""img"">
                            </div>
                        </div>","-200","","0","images/G_D_S_07.png","","","","playful","1","07","G","D","S","",""
"","","","","","html-slider-response","87","787450","0.0-83.0","pttv2mynsh","12","NaN","<div style=""width:500px;"">
                            <p style=""font-size:50px; font-weight:bold;""
                            >playful</p>
                            <div style=""width:240px; margin: auto;"">
                                <img src=""images/Y_L_S_26.png"" style= ""width:200px""alt=""img"">
                            </div>
                        </div>","74","","0","images/Y_L_S_26.png","","","","playful","1","26","Y","L","S","",""
"","","","","","html-slider-response","88","789138","0.0-84.0","pttv2mynsh","12","NaN","<div style=""width:500px;"">
                            <p style=""font-size:50px; font-weight:bold;""
                            >playful</p>
                            <div style=""width:240px; margin: auto;"">
                                <img src=""images/G_L_U_05.png"" style= ""width:200px""alt=""img"">
                            </div>
                        </div>","144","","0","images/G_L_U_05.png","","","","playful","1","05","G","L","U","",""
"","","","","","html-slider-response","89","790973","0.0-85.0","pttv2mynsh","12","NaN","<div style=""width:500px;"">
                            <p style=""font-size:50px; font-weight:bold;""
                            >playful</p>
                            <div style=""width:240px; margin: auto;"">
                                <img src=""images/Y_L_U_27.png"" style= ""width:200px""alt=""img"">
                            </div>
                        </div>","-200","","0","images/Y_L_U_27.png","","","","playful","2","27","Y","L","U","",""
"","","","","","html-slider-response","90","792678","0.0-86.0","pttv2mynsh","12","NaN","<div style=""width:500px;"">
                            <p style=""font-size:50px; font-weight:bold;""
                            >playful</p>
                            <div style=""width:240px; margin: auto;"">
                                <img src=""images/B_L_S_12.png"" style= ""width:200px""alt=""img"">
                            </div>
                        </div>","200","","0","images/B_L_S_12.png","","","","playful","2","12","B","L","S","",""
"","","","","","html-slider-response","91","794224","0.0-87.0","pttv2mynsh","12","NaN","<div style=""width:500px;"">
                            <p style=""font-size:50px; font-weight:bold;""
                            >playful</p>
                            <div style=""width:240px; margin: auto;"">
                                <img src=""images/G_L_S_02.png"" style= ""width:200px""alt=""img"">
                            </div>
                        </div>","29","","0","images/G_L_S_02.png","","","","playful","2","02","G","L","S","",""
"","","","","","html-slider-response","92","796260","0.0-88.0","pttv2mynsh","12","NaN","<div style=""width:500px;"">
                            <p style=""font-size:50px; font-weight:bold;""
                            >playful</p>
                            <div style=""width:240px; margin: auto;"">
                                <img src=""images/R_D_U_44.png"" style= ""width:200px""alt=""img"">
                            </div>
                        </div>","-74","","0","images/R_D_U_44.png","","","","playful","2","44","R","D","U","",""
"","","","","","html-slider-response","93","797928","0.0-89.0","pttv2mynsh","12","NaN","<div style=""width:500px;"">
                            <p style=""font-size:50px; font-weight:bold;""
                            >playful</p>
                            <div style=""width:240px; margin: auto;"">
                                <img src=""images/B_D_S_15.png"" style= ""width:200px""alt=""img"">
                            </div>
                        </div>","200","","0","images/B_D_S_15.png","","","","playful","2","15","B","D","S","",""
"","","","","","html-slider-response","94","800588","0.0-90.0","pttv2mynsh","12","NaN","<div style=""width:500px;"">
                            <p style=""font-size:50px; font-weight:bold;""
                            >playful</p>
                            <div style=""width:240px; margin: auto;"">
                                <img src=""images/R_L_U_37.png"" style= ""width:200px""alt=""img"">
                            </div>
                        </div>","60","","0","images/R_L_U_37.png","","","","playful","2","37","R","L","U","",""
"","","","","","html-slider-response","95","802033","0.0-91.0","pttv2mynsh","12","NaN","<div style=""width:500px;"">
                            <p style=""font-size:50px; font-weight:bold;""
                            >playful</p>
                            <div style=""width:240px; margin: auto;"">
                                <img src=""images/R_L_S_33.png"" style= ""width:200px""alt=""img"">
                            </div>
                        </div>","163","","0","images/R_L_S_33.png","","","","playful","1","33","R","L","S","",""
"","","","","","html-slider-response","96","803717","0.0-92.0","pttv2mynsh","12","NaN","<div style=""width:500px;"">
                            <p style=""font-size:50px; font-weight:bold;""
                            >playful</p>
                            <div style=""width:240px; margin: auto;"">
                                <img src=""images/Y_D_S_28.png"" style= ""width:200px""alt=""img"">
                            </div>
                        </div>","-200","","0","images/Y_D_S_28.png","","","","playful","2","28","Y","D","S","",""
"","","","","","html-slider-response","97","805380","0.0-93.0","pttv2mynsh","12","NaN","<div style=""width:500px;"">
                            <p style=""font-size:50px; font-weight:bold;""
                            >playful</p>
                            <div style=""width:240px; margin: auto;"">
                                <img src=""images/Y_L_S_26.png"" style= ""width:200px""alt=""img"">
                            </div>
                        </div>","-200","","0","images/Y_L_S_26.png","","","","playful","2","26","Y","L","S","",""
"","","","","","html-slider-response","98","807266","0.0-94.0","pttv2mynsh","12","NaN","<div style=""width:500px;"">
                            <p style=""font-size:50px; font-weight:bold;""
                            >playful</p>
                            <div style=""width:240px; margin: auto;"">
                                <img src=""images/B_D_U_23.png"" style= ""width:200px""alt=""img"">
                            </div>
                        </div>","73","","0","images/B_D_U_23.png","","","","playful","2","23","B","D","U","",""
"","","","","","html-slider-response","99","809253","0.0-95.0","pttv2mynsh","12","NaN","<div style=""width:500px;"">
                            <p style=""font-size:50px; font-weight:bold;""
                            >playful</p>
                            <div style=""width:240px; margin: auto;"">
                                <img src=""images/G_D_S_07.png"" style= ""width:200px""alt=""img"">
                            </div>
                        </div>","154","","0","images/G_D_S_07.png","","","","playful","2","07","G","D","S","",""
"","","","","","html-slider-response","100","810564","0.0-96.0","pttv2mynsh","12","NaN","<div style=""width:500px;"">
                            <p style=""font-size:50px; font-weight:bold;""
                            >playful</p>
                            <div style=""width:240px; margin: auto;"">
                                <img src=""images/B_L_U_13.png"" style= ""width:200px""alt=""img"">
                            </div>
                        </div>","84","","0","images/B_L_U_13.png","","","","playful","2","13","B","L","U","",""
"","","","","","html-slider-response","101","812246","0.0-97.0","pttv2mynsh","12","NaN","<div style=""width:500px;"">
                            <p style=""font-size:50px; font-weight:bold;""
                            >playful</p>
                            <div style=""width:240px; margin: auto;"">
                                <img src=""images/R_D_S_41.png"" style= ""width:200px""alt=""img"">
                            </div>
                        </div>","91","","0","images/R_D_S_41.png","","","","playful","1","41","R","D","S","",""
"","","","","","html-slider-response","102","813871","0.0-98.0","pttv2mynsh","12","NaN","<div style=""width:500px;"">
                            <p style=""font-size:50px; font-weight:bold;""
                            >playful</p>
                            <div style=""width:240px; margin: auto;"">
                                <img src=""images/R_D_U_44.png"" style= ""width:200px""alt=""img"">
                            </div>
                        </div>","-26","","0","images/R_D_U_44.png","","","","playful","1","44","R","D","U","",""
"","","","","","html-slider-response","103","815601","0.0-99.0","pttv2mynsh","12","NaN","<div style=""width:500px;"">
                            <p style=""font-size:50px; font-weight:bold;""
                            >playful</p>
                            <div style=""width:240px; margin: auto;"">
                                <img src=""images/Y_D_U_30.png"" style= ""width:200px""alt=""img"">
                            </div>
                        </div>","-200","","0","images/Y_D_U_30.png","","","","playful","2","30","Y","D","U","",""
"","","","","","html-slider-response","104","817405","0.0-100.0","pttv2mynsh","12","NaN","<div style=""width:500px;"">
                            <p style=""font-size:50px; font-weight:bold;""
                            >playful</p>
                            <div style=""width:240px; margin: auto;"">
                                <img src=""images/B_D_S_15.png"" style= ""width:200px""alt=""img"">
                            </div>
                        </div>","47","","0","images/B_D_S_15.png","","","","playful","1","15","B","D","S","",""
"","","","","","html-slider-response","105","819699","0.0-101.0","pttv2mynsh","12","NaN","<div style=""width:500px;"">
                            <p style=""font-size:50px; font-weight:bold;""
                            >playful</p>
                            <div style=""width:240px; margin: auto;"">
                                <img src=""images/G_L_U_05.png"" style= ""width:200px""alt=""img"">
                            </div>
                        </div>","52","","0","images/G_L_U_05.png","","","","playful","2","05","G","L","U","",""
"","","","","","html-slider-response","106","821713","0.0-102.0","pttv2mynsh","12","NaN","<div style=""width:500px;"">
                            <p style=""font-size:50px; font-weight:bold;""
                            >playful</p>
                            <div style=""width:240px; margin: auto;"">
                                <img src=""images/B_D_U_23.png"" style= ""width:200px""alt=""img"">
                            </div>
                        </div>","112","","0","images/B_D_U_23.png","","","","playful","1","23","B","D","U","",""
"","","","","","html-slider-response","107","823296","0.0-103.0","pttv2mynsh","12","NaN","<div style=""width:500px;"">
                            <p style=""font-size:50px; font-weight:bold;""
                            >playful</p>
                            <div style=""width:240px; margin: auto;"">
                                <img src=""images/R_L_S_33.png"" style= ""width:200px""alt=""img"">
                            </div>
                        </div>","107","","0","images/R_L_S_33.png","","","","playful","2","33","R","L","S","",""
"","","","","","html-slider-response","108","825220","0.0-104.0","pttv2mynsh","12","NaN","<div style=""width:500px;"">
                            <p style=""font-size:50px; font-weight:bold;""
                            >playful</p>
                            <div style=""width:240px; margin: auto;"">
                                <img src=""images/G_D_U_10.png"" style= ""width:200px""alt=""img"">
                            </div>
                        </div>","-66","","0","images/G_D_U_10.png","","","","playful","1","10","G","D","U","",""
"","","","","","html-slider-response","109","835230","0.0-105.0","pttv2mynsh","12","NaN","<div style=""width:500px;"">
                            <p style=""font-size:50px; font-weight:bold;""
                            >playful</p>
                            <div style=""width:240px; margin: auto;"">
                                <img src=""images/G_L_S_02.png"" style= ""width:200px""alt=""img"">
                            </div>
                        </div>","39","","0","images/G_L_S_02.png","","","","playful","1","02","G","L","S","",""
"","","","","","html-slider-response","110","836404","0.0-106.0","pttv2mynsh","12","NaN","<div style=""width:500px;"">
                            <p style=""font-size:50px; font-weight:bold;""
                            >playful</p>
                            <div style=""width:240px; margin: auto;"">
                                <img src=""images/R_D_S_41.png"" style= ""width:200px""alt=""img"">
                            </div>
                        </div>","20","","0","images/R_D_S_41.png","","","","playful","2","41","R","D","S","",""
"","","","","","html-slider-response","111","838754","0.0-107.0","pttv2mynsh","12","NaN","<div style=""width:500px;"">
                            <p style=""font-size:50px; font-weight:bold;""
                            >playful</p>
                            <div style=""width:240px; margin: auto;"">
                                <img src=""images/G_D_U_10.png"" style= ""width:200px""alt=""img"">
                            </div>
                        </div>","-57","","0","images/G_D_U_10.png","","","","playful","2","10","G","D","U","",""
"","","","","","html-slider-response","112","840226","0.0-108.0","pttv2mynsh","12","NaN","<div style=""width:500px;"">
                            <p style=""font-size:50px; font-weight:bold;""
                            >playful</p>
                            <div style=""width:240px; margin: auto;"">
                                <img src=""images/Y_D_S_28.png"" style= ""width:200px""alt=""img"">
                            </div>
                        </div>","-200","","0","images/Y_D_S_28.png","","","","playful","1","28","Y","D","S","",""
"","","","","","html-slider-response","113","841700","0.0-109.0","pttv2mynsh","12","NaN","<div style=""width:500px;"">
                            <p style=""font-size:50px; font-weight:bold;""
                            >playful</p>
                            <div style=""width:240px; margin: auto;"">
                                <img src=""images/Y_L_U_27.png"" style= ""width:200px""alt=""img"">
                            </div>
                        </div>","-70","","0","images/Y_L_U_27.png","","","","playful","1","27","Y","L","U","",""
"","","","","","html-slider-response","114","843543","0.0-110.0","pttv2mynsh","12","NaN","<div style=""width:500px;"">
                            <p style=""font-size:50px; font-weight:bold;""
                            >playful</p>
                            <div style=""width:240px; margin: auto;"">
                                <img src=""images/B_L_S_12.png"" style= ""width:200px""alt=""img"">
                            </div>
                        </div>","126","","0","images/B_L_S_12.png","","","","playful","1","12","B","L","S","",""
"","","","","","html-slider-response","115","844972","0.0-111.0","pttv2mynsh","12","NaN","<div style=""width:500px;"">
                            <p style=""font-size:50px; font-weight:bold;""
                            >playful</p>
                            <div style=""width:240px; margin: auto;"">
                                <img src=""images/B_L_U_13.png"" style= ""width:200px""alt=""img"">
                            </div>
                        </div>","117","","0","images/B_L_U_13.png","","","","playful","1","13","B","L","U","",""
"","","","","","html-slider-response","116","846679","0.0-112.0","pttv2mynsh","12","NaN","<div style=""width:500px;"">
                            <p style=""font-size:50px; font-weight:bold;""
                            >playful</p>
                            <div style=""width:240px; margin: auto;"">
                                <img src=""images/Y_D_U_30.png"" style= ""width:200px""alt=""img"">
                            </div>
                        </div>","-200","","0","images/Y_D_U_30.png","","","","playful","1","30","Y","D","U","",""
"","","","","","html-slider-response","117","848184","0.0-113.0","pttv2mynsh","12","NaN","<div style=""width:500px;"">
                            <p style=""font-size:50px; font-weight:bold;""
                            >playful</p>
                            <div style=""width:240px; margin: auto;"">
                                <img src=""images/R_L_U_37.png"" style= ""width:200px""alt=""img"">
                            </div>
                        </div>","58","","0","images/R_L_U_37.png","","","","playful","1","37","R","L","U","",""
"","","","","","html-button-response","118","849634","0.0-114.0","pttv2mynsh","12","949","<p>Great Job! You've finished block 3.<br></br> You have 5 block(s) left to go.<br></br></p>","0","","","","","","","","","","","","","",""
"","","","","","html-button-response","119","855025","0.0-115.0","pttv2mynsh","12","5390","<p>In this block of trials, you will be asked to rate how much you associate each map with:</p > <p style = 'font-size:150%; font-weight: bold'>calm</p><br></br>","0","","","","","","","","","","","","","",""
"","","","","","html-slider-response","120","856581","0.0-116.0","pttv2mynsh","12","NaN","<div style=""width:500px;"">
                            <p style=""font-size:50px; font-weight:bold;""
                            >calm</p>
                            <div style=""width:240px; margin: auto;"">
                                <img src=""images/R_L_S_33.png"" style= ""width:200px""alt=""img"">
                            </div>
                        </div>","101","","0","images/R_L_S_33.png","","","","calm","1","33","R","L","S","",""
"","","","","","html-slider-response","121","858206","0.0-117.0","pttv2mynsh","12","NaN","<div style=""width:500px;"">
                            <p style=""font-size:50px; font-weight:bold;""
                            >calm</p>
                            <div style=""width:240px; margin: auto;"">
                                <img src=""images/R_D_S_41.png"" style= ""width:200px""alt=""img"">
                            </div>
                        </div>","-200","","0","images/R_D_S_41.png","","","","calm","1","41","R","D","S","",""
"","","","","","html-slider-response","122","859669","0.0-118.0","pttv2mynsh","12","NaN","<div style=""width:500px;"">
                            <p style=""font-size:50px; font-weight:bold;""
                            >calm</p>
                            <div style=""width:240px; margin: auto;"">
                                <img src=""images/Y_D_S_28.png"" style= ""width:200px""alt=""img"">
                            </div>
                        </div>","-200","","0","images/Y_D_S_28.png","","","","calm","1","28","Y","D","S","",""
"","","","","","html-slider-response","123","861255","0.0-119.0","pttv2mynsh","12","NaN","<div style=""width:500px;"">
                            <p style=""font-size:50px; font-weight:bold;""
                            >calm</p>
                            <div style=""width:240px; margin: auto;"">
                                <img src=""images/G_L_U_05.png"" style= ""width:200px""alt=""img"">
                            </div>
                        </div>","200","","0","images/G_L_U_05.png","","","","calm","1","05","G","L","U","",""
"","","","","","html-slider-response","124","862831","0.0-120.0","pttv2mynsh","12","NaN","<div style=""width:500px;"">
                            <p style=""font-size:50px; font-weight:bold;""
                            >calm</p>
                            <div style=""width:240px; margin: auto;"">
                                <img src=""images/G_L_S_02.png"" style= ""width:200px""alt=""img"">
                            </div>
                        </div>","-100","","0","images/G_L_S_02.png","","","","calm","1","02","G","L","S","",""
"","","","","","html-slider-response","125","864239","0.0-121.0","pttv2mynsh","12","NaN","<div style=""width:500px;"">
                            <p style=""font-size:50px; font-weight:bold;""
                            >calm</p>
                            <div style=""width:240px; margin: auto;"">
                                <img src=""images/Y_D_U_30.png"" style= ""width:200px""alt=""img"">
                            </div>
                        </div>","-200","","0","images/Y_D_U_30.png","","","","calm","2","30","Y","D","U","",""
"","","","","","html-slider-response","126","866334","0.0-122.0","pttv2mynsh","12","NaN","<div style=""width:500px;"">
                            <p style=""font-size:50px; font-weight:bold;""
                            >calm</p>
                            <div style=""width:240px; margin: auto;"">
                                <img src=""images/G_L_U_05.png"" style= ""width:200px""alt=""img"">
                            </div>
                        </div>","54","","0","images/G_L_U_05.png","","","","calm","2","05","G","L","U","",""
"","","","","","html-slider-response","127","867787","0.0-123.0","pttv2mynsh","12","NaN","<div style=""width:500px;"">
                            <p style=""font-size:50px; font-weight:bold;""
                            >calm</p>
                            <div style=""width:240px; margin: auto;"">
                                <img src=""images/Y_D_S_28.png"" style= ""width:200px""alt=""img"">
                            </div>
                        </div>","-60","","0","images/Y_D_S_28.png","","","","calm","2","28","Y","D","S","",""
"","","","","","html-slider-response","128","869680","0.0-124.0","pttv2mynsh","12","NaN","<div style=""width:500px;"">
                            <p style=""font-size:50px; font-weight:bold;""
                            >calm</p>
                            <div style=""width:240px; margin: auto;"">
                                <img src=""images/R_L_U_37.png"" style= ""width:200px""alt=""img"">
                            </div>
                        </div>","58","","0","images/R_L_U_37.png","","","","calm","2","37","R","L","U","",""
"","","","","","html-slider-response","129","871239","0.0-125.0","pttv2mynsh","12","NaN","<div style=""width:500px;"">
                            <p style=""font-size:50px; font-weight:bold;""
                            >calm</p>
                            <div style=""width:240px; margin: auto;"">
                                <img src=""images/B_L_U_13.png"" style= ""width:200px""alt=""img"">
                            </div>
                        </div>","200","","0","images/B_L_U_13.png","","","","calm","1","13","B","L","U","",""
"","","","","","html-slider-response","130","873212","0.0-126.0","pttv2mynsh","12","NaN","<div style=""width:500px;"">
                            <p style=""font-size:50px; font-weight:bold;""
                            >calm</p>
                            <div style=""width:240px; margin: auto;"">
                                <img src=""images/R_D_S_41.png"" style= ""width:200px""alt=""img"">
                            </div>
                        </div>","-121","","0","images/R_D_S_41.png","","","","calm","2","41","R","D","S","",""
"","","","","","html-slider-response","131","874636","0.0-127.0","pttv2mynsh","12","NaN","<div style=""width:500px;"">
                            <p style=""font-size:50px; font-weight:bold;""
                            >calm</p>
                            <div style=""width:240px; margin: auto;"">
                                <img src=""images/R_D_U_44.png"" style= ""width:200px""alt=""img"">
                            </div>
                        </div>","56","","0","images/R_D_U_44.png","","","","calm","1","44","R","D","U","",""
"","","","","","html-slider-response","132","877429","0.0-128.0","pttv2mynsh","12","NaN","<div style=""width:500px;"">
                            <p style=""font-size:50px; font-weight:bold;""
                            >calm</p>
                            <div style=""width:240px; margin: auto;"">
                                <img src=""images/B_D_S_15.png"" style= ""width:200px""alt=""img"">
                            </div>
                        </div>","74","","0","images/B_D_S_15.png","","","","calm","2","15","B","D","S","",""
"","","","","","html-slider-response","133","879531","0.0-129.0","pttv2mynsh","12","NaN","<div style=""width:500px;"">
                            <p style=""font-size:50px; font-weight:bold;""
                            >calm</p>
                            <div style=""width:240px; margin: auto;"">
                                <img src=""images/Y_L_S_26.png"" style= ""width:200px""alt=""img"">
                            </div>
                        </div>","-66","","0","images/Y_L_S_26.png","","","","calm","1","26","Y","L","S","",""
"","","","","","html-slider-response","134","881788","0.0-130.0","pttv2mynsh","12","NaN","<div style=""width:500px;"">
                            <p style=""font-size:50px; font-weight:bold;""
                            >calm</p>
                            <div style=""width:240px; margin: auto;"">
                                <img src=""images/B_L_U_13.png"" style= ""width:200px""alt=""img"">
                            </div>
                        </div>","82","","0","images/B_L_U_13.png","","","","calm","2","13","B","L","U","",""
"","","","","","html-slider-response","135","886626","0.0-131.0","pttv2mynsh","12","NaN","<div style=""width:500px;"">
                            <p style=""font-size:50px; font-weight:bold;""
                            >calm</p>
                            <div style=""width:240px; margin: auto;"">
                                <img src=""images/G_D_S_07.png"" style= ""width:200px""alt=""img"">
                            </div>
                        </div>","-33","","0","images/G_D_S_07.png","","","","calm","2","07","G","D","S","",""
"","","","","","html-slider-response","136","888528","0.0-132.0","pttv2mynsh","12","NaN","<div style=""width:500px;"">
                            <p style=""font-size:50px; font-weight:bold;""
                            >calm</p>
                            <div style=""width:240px; margin: auto;"">
                                <img src=""images/G_D_U_10.png"" style= ""width:200px""alt=""img"">
                            </div>
                        </div>","68","","0","images/G_D_U_10.png","","","","calm","1","10","G","D","U","",""
"","","","","","html-slider-response","137","890279","0.0-133.0","pttv2mynsh","12","NaN","<div style=""width:500px;"">
                            <p style=""font-size:50px; font-weight:bold;""
                            >calm</p>
                            <div style=""width:240px; margin: auto;"">
                                <img src=""images/B_D_U_23.png"" style= ""width:200px""alt=""img"">
                            </div>
                        </div>","65","","0","images/B_D_U_23.png","","","","calm","1","23","B","D","U","",""
"","","","","","html-slider-response","138","892664","0.0-134.0","pttv2mynsh","12","NaN","<div style=""width:500px;"">
                            <p style=""font-size:50px; font-weight:bold;""
                            >calm</p>
                            <div style=""width:240px; margin: auto;"">
                                <img src=""images/R_L_U_37.png"" style= ""width:200px""alt=""img"">
                            </div>
                        </div>","200","","0","images/R_L_U_37.png","","","","calm","1","37","R","L","U","",""
"","","","","","html-slider-response","139","894703","0.0-135.0","pttv2mynsh","12","NaN","<div style=""width:500px;"">
                            <p style=""font-size:50px; font-weight:bold;""
                            >calm</p>
                            <div style=""width:240px; margin: auto;"">
                                <img src=""images/R_D_U_44.png"" style= ""width:200px""alt=""img"">
                            </div>
                        </div>","48","","0","images/R_D_U_44.png","","","","calm","2","44","R","D","U","",""
"","","","","","html-slider-response","140","896716","0.0-136.0","pttv2mynsh","12","NaN","<div style=""width:500px;"">
                            <p style=""font-size:50px; font-weight:bold;""
                            >calm</p>
                            <div style=""width:240px; margin: auto;"">
                                <img src=""images/Y_L_U_27.png"" style= ""width:200px""alt=""img"">
                            </div>
                        </div>","42","","0","images/Y_L_U_27.png","","","","calm","1","27","Y","L","U","",""
"","","","","","html-slider-response","141","898437","0.0-137.0","pttv2mynsh","12","NaN","<div style=""width:500px;"">
                            <p style=""font-size:50px; font-weight:bold;""
                            >calm</p>
                            <div style=""width:240px; margin: auto;"">
                                <img src=""images/R_L_S_33.png"" style= ""width:200px""alt=""img"">
                            </div>
                        </div>","-190","","0","images/R_L_S_33.png","","","","calm","2","33","R","L","S","",""
"","","","","","html-slider-response","142","900257","0.0-138.0","pttv2mynsh","12","NaN","<div style=""width:500px;"">
                            <p style=""font-size:50px; font-weight:bold;""
                            >calm</p>
                            <div style=""width:240px; margin: auto;"">
                                <img src=""images/Y_L_S_26.png"" style= ""width:200px""alt=""img"">
                            </div>
                        </div>","-82","","0","images/Y_L_S_26.png","","","","calm","2","26","Y","L","S","",""
"","","","","","html-slider-response","143","902070","0.0-139.0","pttv2mynsh","12","NaN","<div style=""width:500px;"">
                            <p style=""font-size:50px; font-weight:bold;""
                            >calm</p>
                            <div style=""width:240px; margin: auto;"">
                                <img src=""images/B_L_S_12.png"" style= ""width:200px""alt=""img"">
                            </div>
                        </div>","30","","0","images/B_L_S_12.png","","","","calm","2","12","B","L","S","",""
"","","","","","html-slider-response","144","904004","0.0-140.0","pttv2mynsh","12","NaN","<div style=""width:500px;"">
                            <p style=""font-size:50px; font-weight:bold;""
                            >calm</p>
                            <div style=""width:240px; margin: auto;"">
                                <img src=""images/Y_D_U_30.png"" style= ""width:200px""alt=""img"">
                            </div>
                        </div>","-59","","0","images/Y_D_U_30.png","","","","calm","1","30","Y","D","U","",""
"","","","","","html-slider-response","145","905750","0.0-141.0","pttv2mynsh","12","NaN","<div style=""width:500px;"">
                            <p style=""font-size:50px; font-weight:bold;""
                            >calm</p>
                            <div style=""width:240px; margin: auto;"">
                                <img src=""images/Y_L_U_27.png"" style= ""width:200px""alt=""img"">
                            </div>
                        </div>","-38","","0","images/Y_L_U_27.png","","","","calm","2","27","Y","L","U","",""
"","","","","","html-slider-response","146","908101","0.0-142.0","pttv2mynsh","12","NaN","<div style=""width:500px;"">
                            <p style=""font-size:50px; font-weight:bold;""
                            >calm</p>
                            <div style=""width:240px; margin: auto;"">
                                <img src=""images/G_D_U_10.png"" style= ""width:200px""alt=""img"">
                            </div>
                        </div>","119","","0","images/G_D_U_10.png","","","","calm","2","10","G","D","U","",""
"","","","","","html-slider-response","147","909841","0.0-143.0","pttv2mynsh","12","NaN","<div style=""width:500px;"">
                            <p style=""font-size:50px; font-weight:bold;""
                            >calm</p>
                            <div style=""width:240px; margin: auto;"">
                                <img src=""images/G_D_S_07.png"" style= ""width:200px""alt=""img"">
                            </div>
                        </div>","38","","0","images/G_D_S_07.png","","","","calm","1","07","G","D","S","",""
"","","","","","html-slider-response","148","910979","0.0-144.0","pttv2mynsh","12","NaN","<div style=""width:500px;"">
                            <p style=""font-size:50px; font-weight:bold;""
                            >calm</p>
                            <div style=""width:240px; margin: auto;"">
                                <img src=""images/G_L_S_02.png"" style= ""width:200px""alt=""img"">
                            </div>
                        </div>","8","","0","images/G_L_S_02.png","","","","calm","2","02","G","L","S","",""
"","","","","","html-slider-response","149","912256","0.0-145.0","pttv2mynsh","12","NaN","<div style=""width:500px;"">
                            <p style=""font-size:50px; font-weight:bold;""
                            >calm</p>
                            <div style=""width:240px; margin: auto;"">
                                <img src=""images/B_L_S_12.png"" style= ""width:200px""alt=""img"">
                            </div>
                        </div>","-92","","0","images/B_L_S_12.png","","","","calm","1","12","B","L","S","",""
"","","","","","html-slider-response","150","914642","0.0-146.0","pttv2mynsh","12","NaN","<div style=""width:500px;"">
                            <p style=""font-size:50px; font-weight:bold;""
                            >calm</p>
                            <div style=""width:240px; margin: auto;"">
                                <img src=""images/B_D_U_23.png"" style= ""width:200px""alt=""img"">
                            </div>
                        </div>","186","","0","images/B_D_U_23.png","","","","calm","2","23","B","D","U","",""
"","","","","","html-slider-response","151","916245","0.0-147.0","pttv2mynsh","12","NaN","<div style=""width:500px;"">
                            <p style=""font-size:50px; font-weight:bold;""
                            >calm</p>
                            <div style=""width:240px; margin: auto;"">
                                <img src=""images/B_D_S_15.png"" style= ""width:200px""alt=""img"">
                            </div>
                        </div>","36","","0","images/B_D_S_15.png","","","","calm","1","15","B","D","S","",""
"","","","","","html-button-response","152","917649","0.0-148.0","pttv2mynsh","12","902","<p>Great Job! You've finished block 4.<br></br> You have 4 block(s) left to go.<br></br></p>","0","","","","","","","","","","","","","",""
"","","","","","html-button-response","153","918240","0.0-149.0","pttv2mynsh","12","590","<p>In this block of trials, you will be asked to rate how much you associate each map with:</p > <p style = 'font-size:150%; font-weight: bold'>negative</p><br></br>","0","","","","","","","","","","","","","",""
"","","","","","html-slider-response","154","919227","0.0-150.0","pttv2mynsh","12","NaN","<div style=""width:500px;"">
                            <p style=""font-size:50px; font-weight:bold;""
                            >negative</p>
                            <div style=""width:240px; margin: auto;"">
                                <img src=""images/Y_D_U_30.png"" style= ""width:200px""alt=""img"">
                            </div>
                        </div>","-200","","0","images/Y_D_U_30.png","","","","negative","2","30","Y","D","U","",""
"","","","","","html-slider-response","155","922727","0.0-151.0","pttv2mynsh","12","NaN","<div style=""width:500px;"">
                            <p style=""font-size:50px; font-weight:bold;""
                            >negative</p>
                            <div style=""width:240px; margin: auto;"">
                                <img src=""images/Y_L_S_26.png"" style= ""width:200px""alt=""img"">
                            </div>
                        </div>","200","","0","images/Y_L_S_26.png","","","","negative","1","26","Y","L","S","",""
"","","","","","html-slider-response","156","924764","0.0-152.0","pttv2mynsh","12","NaN","<div style=""width:500px;"">
                            <p style=""font-size:50px; font-weight:bold;""
                            >negative</p>
                            <div style=""width:240px; margin: auto;"">
                                <img src=""images/G_L_U_05.png"" style= ""width:200px""alt=""img"">
                            </div>
                        </div>","-71","","0","images/G_L_U_05.png","","","","negative","1","05","G","L","U","",""
"","","","","","html-slider-response","157","927101","0.0-153.0","pttv2mynsh","12","NaN","<div style=""width:500px;"">
                            <p style=""font-size:50px; font-weight:bold;""
                            >negative</p>
                            <div style=""width:240px; margin: auto;"">
                                <img src=""images/R_D_S_41.png"" style= ""width:200px""alt=""img"">
                            </div>
                        </div>","-192","","0","images/R_D_S_41.png","","","","negative","1","41","R","D","S","",""
"","","","","","html-slider-response","158","928509","0.0-154.0","pttv2mynsh","12","NaN","<div style=""width:500px;"">
                            <p style=""font-size:50px; font-weight:bold;""
                            >negative</p>
                            <div style=""width:240px; margin: auto;"">
                                <img src=""images/G_L_S_02.png"" style= ""width:200px""alt=""img"">
                            </div>
                        </div>","-145","","0","images/G_L_S_02.png","","","","negative","2","02","G","L","S","",""
"","","","","","html-slider-response","159","930019","0.0-155.0","pttv2mynsh","12","NaN","<div style=""width:500px;"">
                            <p style=""font-size:50px; font-weight:bold;""
                            >negative</p>
                            <div style=""width:240px; margin: auto;"">
                                <img src=""images/G_D_U_10.png"" style= ""width:200px""alt=""img"">
                            </div>
                        </div>","57","","0","images/G_D_U_10.png","","","","negative","2","10","G","D","U","",""
"","","","","","html-slider-response","160","931583","0.0-156.0","pttv2mynsh","12","NaN","<div style=""width:500px;"">
                            <p style=""font-size:50px; font-weight:bold;""
                            >negative</p>
                            <div style=""width:240px; margin: auto;"">
                                <img src=""images/B_L_S_12.png"" style= ""width:200px""alt=""img"">
                            </div>
                        </div>","67","","0","images/B_L_S_12.png","","","","negative","2","12","B","L","S","",""
"","","","","","html-slider-response","161","932997","0.0-157.0","pttv2mynsh","12","NaN","<div style=""width:500px;"">
                            <p style=""font-size:50px; font-weight:bold;""
                            >negative</p>
                            <div style=""width:240px; margin: auto;"">
                                <img src=""images/R_L_S_33.png"" style= ""width:200px""alt=""img"">
                            </div>
                        </div>","-33","","0","images/R_L_S_33.png","","","","negative","2","33","R","L","S","",""
"","","","","","html-slider-response","162","935105","0.0-158.0","pttv2mynsh","12","NaN","<div style=""width:500px;"">
                            <p style=""font-size:50px; font-weight:bold;""
                            >negative</p>
                            <div style=""width:240px; margin: auto;"">
                                <img src=""images/Y_D_S_28.png"" style= ""width:200px""alt=""img"">
                            </div>
                        </div>","200","","0","images/Y_D_S_28.png","","","","negative","1","28","Y","D","S","",""
"","","","","","html-slider-response","163","938461","0.0-159.0","pttv2mynsh","12","NaN","<div style=""width:500px;"">
                            <p style=""font-size:50px; font-weight:bold;""
                            >negative</p>
                            <div style=""width:240px; margin: auto;"">
                                <img src=""images/B_L_S_12.png"" style= ""width:200px""alt=""img"">
                            </div>
                        </div>","-172","","0","images/B_L_S_12.png","","","","negative","1","12","B","L","S","",""
"","","","","","html-slider-response","164","943951","0.0-160.0","pttv2mynsh","12","NaN","<div style=""width:500px;"">
                            <p style=""font-size:50px; font-weight:bold;""
                            >negative</p>
                            <div style=""width:240px; margin: auto;"">
                                <img src=""images/G_D_U_10.png"" style= ""width:200px""alt=""img"">
                            </div>
                        </div>","80","","0","images/G_D_U_10.png","","","","negative","1","10","G","D","U","",""
"","","","","","html-slider-response","165","945924","0.0-161.0","pttv2mynsh","12","NaN","<div style=""width:500px;"">
                            <p style=""font-size:50px; font-weight:bold;""
                            >negative</p>
                            <div style=""width:240px; margin: auto;"">
                                <img src=""images/R_D_U_44.png"" style= ""width:200px""alt=""img"">
                            </div>
                        </div>","57","","0","images/R_D_U_44.png","","","","negative","1","44","R","D","U","",""
"","","","","","html-slider-response","166","947636","0.0-162.0","pttv2mynsh","12","NaN","<div style=""width:500px;"">
                            <p style=""font-size:50px; font-weight:bold;""
                            >negative</p>
                            <div style=""width:240px; margin: auto;"">
                                <img src=""images/B_L_U_13.png"" style= ""width:200px""alt=""img"">
                            </div>
                        </div>","-110","","0","images/B_L_U_13.png","","","","negative","2","13","B","L","U","",""
"","","","","","html-slider-response","167","994455","0.0-163.0","pttv2mynsh","12","NaN","<div style=""width:500px;"">
                            <p style=""font-size:50px; font-weight:bold;""
                            >negative</p>
                            <div style=""width:240px; margin: auto;"">
                                <img src=""images/Y_L_U_27.png"" style= ""width:200px""alt=""img"">
                            </div>
                        </div>","76","","0","images/Y_L_U_27.png","","","","negative","2","27","Y","L","U","",""
"","","","","","html-slider-response","168","999389","0.0-164.0","pttv2mynsh","12","NaN","<div style=""width:500px;"">
                            <p style=""font-size:50px; font-weight:bold;""
                            >negative</p>
                            <div style=""width:240px; margin: auto;"">
                                <img src=""images/G_L_U_05.png"" style= ""width:200px""alt=""img"">
                            </div>
                        </div>","-102","","0","images/G_L_U_05.png","","","","negative","2","05","G","L","U","",""
"","","","","","html-slider-response","169","1001157","0.0-165.0","pttv2mynsh","12","NaN","<div style=""width:500px;"">
                            <p style=""font-size:50px; font-weight:bold;""
                            >negative</p>
                            <div style=""width:240px; margin: auto;"">
                                <img src=""images/R_L_U_37.png"" style= ""width:200px""alt=""img"">
                            </div>
                        </div>","-62","","0","images/R_L_U_37.png","","","","negative","2","37","R","L","U","",""
"","","","","","html-slider-response","170","1003018","0.0-166.0","pttv2mynsh","12","NaN","<div style=""width:500px;"">
                            <p style=""font-size:50px; font-weight:bold;""
                            >negative</p>
                            <div style=""width:240px; margin: auto;"">
                                <img src=""images/R_L_S_33.png"" style= ""width:200px""alt=""img"">
                            </div>
                        </div>","-200","","0","images/R_L_S_33.png","","","","negative","1","33","R","L","S","",""
"","","","","","html-slider-response","171","1010253","0.0-167.0","pttv2mynsh","12","NaN","<div style=""width:500px;"">
                            <p style=""font-size:50px; font-weight:bold;""
                            >negative</p>
                            <div style=""width:240px; margin: auto;"">
                                <img src=""images/G_L_S_02.png"" style= ""width:200px""alt=""img"">
                            </div>
                        </div>","-28","","0","images/G_L_S_02.png","","","","negative","1","02","G","L","S","",""
"","","","","","html-slider-response","172","1012657","0.0-168.0","pttv2mynsh","12","NaN","<div style=""width:500px;"">
                            <p style=""font-size:50px; font-weight:bold;""
                            >negative</p>
                            <div style=""width:240px; margin: auto;"">
                                <img src=""images/Y_D_U_30.png"" style= ""width:200px""alt=""img"">
                            </div>
                        </div>","200","","0","images/Y_D_U_30.png","","","","negative","1","30","Y","D","U","",""
"","","","","","html-slider-response","173","1014506","0.0-169.0","pttv2mynsh","12","NaN","<div style=""width:500px;"">
                            <p style=""font-size:50px; font-weight:bold;""
                            >negative</p>
                            <div style=""width:240px; margin: auto;"">
                                <img src=""images/B_D_U_23.png"" style= ""width:200px""alt=""img"">
                            </div>
                        </div>","24","","0","images/B_D_U_23.png","","","","negative","2","23","B","D","U","",""
"","","","","","html-slider-response","174","1015922","0.0-170.0","pttv2mynsh","12","NaN","<div style=""width:500px;"">
                            <p style=""font-size:50px; font-weight:bold;""
                            >negative</p>
                            <div style=""width:240px; margin: auto;"">
                                <img src=""images/Y_D_S_28.png"" style= ""width:200px""alt=""img"">
                            </div>
                        </div>","200","","0","images/Y_D_S_28.png","","","","negative","2","28","Y","D","S","",""
"","","","","","html-slider-response","175","1017958","0.0-171.0","pttv2mynsh","12","NaN","<div style=""width:500px;"">
                            <p style=""font-size:50px; font-weight:bold;""
                            >negative</p>
                            <div style=""width:240px; margin: auto;"">
                                <img src=""images/R_L_U_37.png"" style= ""width:200px""alt=""img"">
                            </div>
                        </div>","-50","","0","images/R_L_U_37.png","","","","negative","1","37","R","L","U","",""
"","","","","","html-slider-response","176","1019932","0.0-172.0","pttv2mynsh","12","NaN","<div style=""width:500px;"">
                            <p style=""font-size:50px; font-weight:bold;""
                            >negative</p>
                            <div style=""width:240px; margin: auto;"">
                                <img src=""images/G_D_S_07.png"" style= ""width:200px""alt=""img"">
                            </div>
                        </div>","-89","","0","images/G_D_S_07.png","","","","negative","1","07","G","D","S","",""
"","","","","","html-slider-response","177","1021868","0.0-173.0","pttv2mynsh","12","NaN","<div style=""width:500px;"">
                            <p style=""font-size:50px; font-weight:bold;""
                            >negative</p>
                            <div style=""width:240px; margin: auto;"">
                                <img src=""images/R_D_S_41.png"" style= ""width:200px""alt=""img"">
                            </div>
                        </div>","-138","","0","images/R_D_S_41.png","","","","negative","2","41","R","D","S","",""
"","","","","","html-slider-response","178","1024508","0.0-174.0","pttv2mynsh","12","NaN","<div style=""width:500px;"">
                            <p style=""font-size:50px; font-weight:bold;""
                            >negative</p>
                            <div style=""width:240px; margin: auto;"">
                                <img src=""images/Y_L_S_26.png"" style= ""width:200px""alt=""img"">
                            </div>
                        </div>","42","","0","images/Y_L_S_26.png","","","","negative","2","26","Y","L","S","",""
"","","","","","html-slider-response","179","1026246","0.0-175.0","pttv2mynsh","12","NaN","<div style=""width:500px;"">
                            <p style=""font-size:50px; font-weight:bold;""
                            >negative</p>
                            <div style=""width:240px; margin: auto;"">
                                <img src=""images/B_D_U_23.png"" style= ""width:200px""alt=""img"">
                            </div>
                        </div>","24","","0","images/B_D_U_23.png","","","","negative","1","23","B","D","U","",""
"","","","","","html-slider-response","180","1028065","0.0-176.0","pttv2mynsh","12","NaN","<div style=""width:500px;"">
                            <p style=""font-size:50px; font-weight:bold;""
                            >negative</p>
                            <div style=""width:240px; margin: auto;"">
                                <img src=""images/B_D_S_15.png"" style= ""width:200px""alt=""img"">
                            </div>
                        </div>","-180","","0","images/B_D_S_15.png","","","","negative","1","15","B","D","S","",""
"","","","","","html-slider-response","181","1032261","0.0-177.0","pttv2mynsh","12","NaN","<div style=""width:500px;"">
                            <p style=""font-size:50px; font-weight:bold;""
                            >negative</p>
                            <div style=""width:240px; margin: auto;"">
                                <img src=""images/Y_L_U_27.png"" style= ""width:200px""alt=""img"">
                            </div>
                        </div>","20","","0","images/Y_L_U_27.png","","","","negative","1","27","Y","L","U","",""
"","","","","","html-slider-response","182","1035083","0.0-178.0","pttv2mynsh","12","NaN","<div style=""width:500px;"">
                            <p style=""font-size:50px; font-weight:bold;""
                            >negative</p>
                            <div style=""width:240px; margin: auto;"">
                                <img src=""images/B_L_U_13.png"" style= ""width:200px""alt=""img"">
                            </div>
                        </div>","-114","","0","images/B_L_U_13.png","","","","negative","1","13","B","L","U","",""
"","","","","","html-slider-response","183","1037340","0.0-179.0","pttv2mynsh","12","NaN","<div style=""width:500px;"">
                            <p style=""font-size:50px; font-weight:bold;""
                            >negative</p>
                            <div style=""width:240px; margin: auto;"">
                                <img src=""images/B_D_S_15.png"" style= ""width:200px""alt=""img"">
                            </div>
                        </div>","-195","","0","images/B_D_S_15.png","","","","negative","2","15","B","D","S","",""
"","","","","","html-slider-response","184","1039928","0.0-180.0","pttv2mynsh","12","NaN","<div style=""width:500px;"">
                            <p style=""font-size:50px; font-weight:bold;""
