"success","timeout","failed_images","failed_audio","failed_video","trial_type","trial_index","time_elapsed","internal_node_id","subject_id","condition_num","rt","stimulus","response","question_order","slider_start","image_path","practiceTrial","practiceTrialNum","correct","concept","repetition","map_id","hue","lightness","saturation","ishihara_plate","correct_response"
"true","false","[]","[]","[]","preload","0","650","0.0-0.0","r57soqz0pg","3","","","","","","","","","","","","","","","","",""
"","","","","","html-button-response","1","6910","0.0-1.0","r57soqz0pg","3","6259","Welcome to our experiment!<p>At the bottom of this screen, you will see a button that says ""Begin Experiment"".<br>Please only click that button when you are ready to complete the 25 minute experiment in one sitting.</p><p> Once you click that button, it will not be possible to restart the experiment.","0","","","","","","","","","","","","","",""
"true","","","","","fullscreen","2","8794","0.0-2.0","r57soqz0pg","3","881","","","","","","","","","","","","","","","",""
"","","","","","survey-multi-select","3","13501","0.0-3.0","r57soqz0pg","3","4703","","{""Consent"":[""<strong>I consent</strong>""]}","[0]","","","","","","","","","","","","",""
"","","","","","html-button-response","4","14731","0.0-4.0","r57soqz0pg","3","1227","Welcome! <p> This experiment involves two parts: demographic information, followed by the experimental task.<p> It will take about 25 minutes to complete both parts.","0","","","","","","","","","","","","","",""
"","","","","","survey-text","5","22907","0.0-5.0","r57soqz0pg","3","8169","","{""Age"":""18"",""Gender"":""women"",""Race/ethnicity"":""white"",""Languages"":""english ""}","","","","","","","","","","","","","",""
"","","","","","html-slider-response","6","24845","0.0-6.0","r57soqz0pg","3","1935","
                            <div style='text-align:left; font-size:20px; line-height:25px; width: 1400px;'>
                                During this experiment you will be asked to rate how much you associate maps with                    different concepts.<br> Below, you can see some examples of the maps you will be asked to rate. Next to the maps
                    is the list of concepts.<br>You will be asked                    to rate how much you associate each map with each concept on a scale from 'not at all' to 'very much' like the
                    one below. <br><br>
                    Now, please look at the list of concepts and maps. For each concept, think about the map you associate 'very
                    much' with the concept.<br>                     When you see that map during the experiment, please rate it near the 'very much' endpoint of the
                    scale.<br>Now, please think about which map you associate 'not at all'                     with each concept. When you see that map during the experiment, please rate it near the 'not at all' endpoint
                    of the scale.<br>
                    Please use the full range of the scale. That is, if a map is somewhat associated with the concept, you would
                    click partway between the middle point and right side of the scale.                    You will be asked to rate each map for a given concept before moving on to the next concept.<br><br>Press the
                    'Continue' button for instructions on how to use the slider.                    <br><br>
                </div>

                <div style=""width: 500px; margin: 0 auto;"">
                    <!-- Centered text paragraphs -->
                    <div style=""text-align: center; width: 500px;"">
                        <p style=""font-size:25px; line-height:18px;"">calm</p>
                        <p style=""font-size:25px; line-height:18px;"">exciting</p>
                        <p style=""font-size:25px;line-height:18px;"">positive</p>
                        <p style=""font-size:25px;line-height:18px;"">negative</p>
                        <p style=""font-size:25px;line-height:18px;"">serious</p>
                        <p style=""font-size:25px;line-height:18px;"">playful</p>
                        <p style=""font-size:25px;line-height:18px;"">trustworthy</p>
                        <p style=""font-size:25px;line-height:18px;"">disturbing</p>
                    </div>

                    <!-- Grid section -->
                   <div style=""display: flex; justify-content: center; padding-top: 15px;"">
                    <div style=""display: grid; grid-template-columns: repeat(8, 80px); grid-gap: 5px; width: auto;"">
                        <img src=""images/B_D_U_41.png"" alt=""map"" style=""width: 100%;""><img src=""images/G_L_S_23.png"" alt=""map"" style=""width: 100%;""><img src=""images/Y_L_U_02.png"" alt=""map"" style=""width: 100%;""><img src=""images/R_L_S_10.png"" alt=""map"" style=""width: 100%;""><img src=""images/G_D_U_28.png"" alt=""map"" style=""width: 100%;""><img src=""images/Y_L_S_44.png"" alt=""map"" style=""width: 100%;""><img src=""images/G_L_U_26.png"" alt=""map"" style=""width: 100%;""><img src=""images/R_D_U_15.png"" alt=""map"" style=""width: 100%;""><img src=""images/R_D_S_13.png"" alt=""map"" style=""width: 100%;""><img src=""images/B_L_U_33.png"" alt=""map"" style=""width: 100%;""><img src=""images/B_L_S_30.png"" alt=""map"" style=""width: 100%;""><img src=""images/G_D_S_27.png"" alt=""map"" style=""width: 100%;""><img src=""images/Y_D_U_07.png"" alt=""map"" style=""width: 100%;""><img src=""images/Y_D_S_05.png"" alt=""map"" style=""width: 100%;""><img src=""images/B_D_S_37.png"" alt=""map"" style=""width: 100%;""><img src=""images/R_L_U_12.png"" alt=""map"" style=""width: 100%;"">
                    </div>
                </div>

                    <!-- Clear floats -->
                    <div style=""clear: both;""></div>
                </div>
                            ","null","","0","maps_anchoring.png","true","","","","","","","","","",""
"","","","","","html-button-response","7","26042","0.0-7.0","r57soqz0pg","3","1197","<div style=""width:800px;""><p style=""text-align:left"">To move the slider, click and drag your cursor to the location of the scale where you would like to make your rating and then let go. When you let go of the slider, your response will be recorded and the next trial will begin. <br>
                    We are interested in your initial impressions of each map for the given concept, so please go with your first intuition. <br>
                    Before you begin the experiment, there will be four training trials for you to practice using the scale. <br>
                     When you are ready to start the training trials, please click ""Continue"".</p><br></div>","0","","","","","","","","","","","","","",""
"","","","","","html-slider-response","8","27942","0.0-8.0-0.0","r57soqz0pg","3","NaN","<div style=""width:500px;"">
                                    <p style=""font-size:25px;"">Please move the slider all the way to the <br> right endpoint of the scale</p>

                                    </div>
                                </div>","69","","0","","true","0","false","","","","","","","",""
"","","","","","html-button-response","9","29132","0.0-8.0-1.0","r57soqz0pg","3","688","<p align='center'><b>Not quite!</b> The slider was not placed near the instructed located. Click on 'Continue' to try again. </p>","0","","","","","","","","","","","","","",""
"","","","","","html-slider-response","10","32145","0.0-8.1-0.1","r57soqz0pg","3","NaN","<div style=""width:500px;"">
                                    <p style=""font-size:25px;"">Please move the slider all the way to the <br> right endpoint of the scale</p>

                                    </div>
                                </div>","200","","0","","true","0","true","","","","","","","",""
"","","","","","html-button-response","11","33628","0.0-8.1-1.1","r57soqz0pg","3","981","<p align='center'><b>Good job!</b> Click on 'Continue' to proceed.</p>","0","","","","","","","","","","","","","",""
"","","","","","html-slider-response","12","34804","0.0-9.0-0.0","r57soqz0pg","3","NaN","<div style=""width:500px;"">
                                    <p style=""font-size:25px;"">Please move the slider all the way to the <br> left endpoint of the scale</p>

                                    </div>
                                </div>","-200","","0","","true","1","true","","","","","","","",""
"","","","","","html-button-response","13","35820","0.0-9.0-1.0","r57soqz0pg","3","513","<p align='center'><b>Good job!</b> Click on 'Continue' to proceed.</p>","0","","","","","","","","","","","","","",""
"","","","","","html-slider-response","14","37473","0.0-10.0-0.0","r57soqz0pg","3","NaN","<div style=""width:500px;"">
                                    <p style=""font-size:25px;"">Please move the slider halfway between the center and right endpoint of the scale</p>

                                    </div>
                                </div>","-4","","0","","true","2","false","","","","","","","",""
"","","","","","html-button-response","15","38941","0.0-10.0-1.0","r57soqz0pg","3","966","<p align='center'><b>Not quite!</b> The slider was not placed near the instructed located. Click on 'Continue' to try again. </p>","0","","","","","","","","","","","","","",""
"","","","","","html-slider-response","16","44184","0.0-10.1-0.1","r57soqz0pg","3","NaN","<div style=""width:500px;"">
                                    <p style=""font-size:25px;"">Please move the slider halfway between the center and right endpoint of the scale</p>

                                    </div>
                                </div>","95","","0","","true","2","true","","","","","","","",""
"","","","","","html-button-response","17","45427","0.0-10.1-1.1","r57soqz0pg","3","740","<p align='center'><b>Good job!</b> Click on 'Continue' to proceed.</p>","0","","","","","","","","","","","","","",""
"","","","","","html-slider-response","18","48171","0.0-11.0-0.0","r57soqz0pg","3","NaN","<div style=""width:500px;"">
                                    <p style=""font-size:25px;"">Please move the slider halfway between the center and left endpoint of the scale</p>

                                    </div>
                                </div>","-101","","0","","true","3","true","","","","","","","",""
"","","","","","html-button-response","19","49421","0.0-11.0-1.0","r57soqz0pg","3","747","<p align='center'><b>Good job!</b> Click on 'Continue' to proceed.</p>","0","","","","","","","","","","","","","",""
"","","","","","html-button-response","20","50456","0.0-12.0","r57soqz0pg","3","1034","<p>Great job! You've completed the practice trials. Now you will begin the main task.</p>","0","","","","","","","","","","","","","",""
"","","","","","html-button-response","21","51896","0.0-13.0","r57soqz0pg","3","1438","<p>In this block of trials, you will be asked to rate how much you associate each map with:</p > <p style = 'font-size:150%; font-weight: bold'>negative</p><br></br>","0","","","","","","","","","","","","","",""
"","","","","","html-slider-response","22","54834","0.0-14.0","r57soqz0pg","3","NaN","<div style=""width:500px;"">
                            <p style=""font-size:50px; font-weight:bold;""
                            >negative</p>
                            <div style=""width:240px; margin: auto;"">
                                <img src=""images/Y_L_S_44.png"" style= ""width:200px""alt=""img"">
                            </div>
                        </div>","7","","0","images/Y_L_S_44.png","","","","negative","2","44","Y","L","S","",""
"","","","","","html-slider-response","23","58146","0.0-15.0","r57soqz0pg","3","NaN","<div style=""width:500px;"">
                            <p style=""font-size:50px; font-weight:bold;""
                            >negative</p>
                            <div style=""width:240px; margin: auto;"">
                                <img src=""images/R_L_S_10.png"" style= ""width:200px""alt=""img"">
                            </div>
                        </div>","-82","","0","images/R_L_S_10.png","","","","negative","1","10","R","L","S","",""
"","","","","","html-slider-response","24","59826","0.0-16.0","r57soqz0pg","3","NaN","<div style=""width:500px;"">
                            <p style=""font-size:50px; font-weight:bold;""
                            >negative</p>
                            <div style=""width:240px; margin: auto;"">
                                <img src=""images/G_L_U_26.png"" style= ""width:200px""alt=""img"">
                            </div>
                        </div>","-95","","0","images/G_L_U_26.png","","","","negative","2","26","G","L","U","",""
"","","","","","html-slider-response","25","62937","0.0-17.0","r57soqz0pg","3","NaN","<div style=""width:500px;"">
                            <p style=""font-size:50px; font-weight:bold;""
                            >negative</p>
                            <div style=""width:240px; margin: auto;"">
                                <img src=""images/R_L_U_12.png"" style= ""width:200px""alt=""img"">
                            </div>
                        </div>","-200","","0","images/R_L_U_12.png","","","","negative","2","12","R","L","U","",""
"","","","","","html-slider-response","26","65168","0.0-18.0","r57soqz0pg","3","NaN","<div style=""width:500px;"">
                            <p style=""font-size:50px; font-weight:bold;""
                            >negative</p>
                            <div style=""width:240px; margin: auto;"">
                                <img src=""images/R_D_S_13.png"" style= ""width:200px""alt=""img"">
                            </div>
                        </div>","-200","","0","images/R_D_S_13.png","","","","negative","2","13","R","D","S","",""
"","","","","","html-slider-response","27","67237","0.0-19.0","r57soqz0pg","3","NaN","<div style=""width:500px;"">
                            <p style=""font-size:50px; font-weight:bold;""
                            >negative</p>
                            <div style=""width:240px; margin: auto;"">
                                <img src=""images/B_D_S_37.png"" style= ""width:200px""alt=""img"">
                            </div>
                        </div>","200","","0","images/B_D_S_37.png","","","","negative","1","37","B","D","S","",""
"","","","","","html-slider-response","28","69291","0.0-20.0","r57soqz0pg","3","NaN","<div style=""width:500px;"">
                            <p style=""font-size:50px; font-weight:bold;""
                            >negative</p>
                            <div style=""width:240px; margin: auto;"">
                                <img src=""images/G_D_S_27.png"" style= ""width:200px""alt=""img"">
                            </div>
                        </div>","69","","0","images/G_D_S_27.png","","","","negative","2","27","G","D","S","",""
"","","","","","html-slider-response","29","70929","0.0-21.0","r57soqz0pg","3","NaN","<div style=""width:500px;"">
                            <p style=""font-size:50px; font-weight:bold;""
                            >negative</p>
                            <div style=""width:240px; margin: auto;"">
                                <img src=""images/B_D_U_41.png"" style= ""width:200px""alt=""img"">
                            </div>
                        </div>","0","","0","images/B_D_U_41.png","","","","negative","2","41","B","D","U","",""
"","","","","","html-slider-response","30","72735","0.0-22.0","r57soqz0pg","3","NaN","<div style=""width:500px;"">
                            <p style=""font-size:50px; font-weight:bold;""
                            >negative</p>
                            <div style=""width:240px; margin: auto;"">
                                <img src=""images/Y_L_U_02.png"" style= ""width:200px""alt=""img"">
                            </div>
                        </div>","-175","","0","images/Y_L_U_02.png","","","","negative","1","02","Y","L","U","",""
"","","","","","html-slider-response","31","75421","0.0-23.0","r57soqz0pg","3","NaN","<div style=""width:500px;"">
                            <p style=""font-size:50px; font-weight:bold;""
                            >negative</p>
                            <div style=""width:240px; margin: auto;"">
                                <img src=""images/Y_D_S_05.png"" style= ""width:200px""alt=""img"">
                            </div>
                        </div>","129","","0","images/Y_D_S_05.png","","","","negative","1","05","Y","D","S","",""
"","","","","","html-slider-response","32","77604","0.0-24.0","r57soqz0pg","3","NaN","<div style=""width:500px;"">
                            <p style=""font-size:50px; font-weight:bold;""
                            >negative</p>
                            <div style=""width:240px; margin: auto;"">
                                <img src=""images/G_L_U_26.png"" style= ""width:200px""alt=""img"">
                            </div>
                        </div>","-170","","0","images/G_L_U_26.png","","","","negative","1","26","G","L","U","",""
"","","","","","html-slider-response","33","182966","0.0-25.0","r57soqz0pg","3","NaN","<div style=""width:500px;"">
                            <p style=""font-size:50px; font-weight:bold;""
                            >negative</p>
                            <div style=""width:240px; margin: auto;"">
                                <img src=""images/R_L_S_10.png"" style= ""width:200px""alt=""img"">
                            </div>
                        </div>","-158","","0","images/R_L_S_10.png","","","","negative","2","10","R","L","S","",""
"","","","","","html-slider-response","34","185286","0.0-26.0","r57soqz0pg","3","NaN","<div style=""width:500px;"">
                            <p style=""font-size:50px; font-weight:bold;""
                            >negative</p>
                            <div style=""width:240px; margin: auto;"">
                                <img src=""images/B_D_U_41.png"" style= ""width:200px""alt=""img"">
                            </div>
                        </div>","200","","0","images/B_D_U_41.png","","","","negative","1","41","B","D","U","",""
"","","","","","html-slider-response","35","188728","0.0-27.0","r57soqz0pg","3","NaN","<div style=""width:500px;"">
                            <p style=""font-size:50px; font-weight:bold;""
                            >negative</p>
                            <div style=""width:240px; margin: auto;"">
                                <img src=""images/G_L_S_23.png"" style= ""width:200px""alt=""img"">
                            </div>
                        </div>","88","","0","images/G_L_S_23.png","","","","negative","1","23","G","L","S","",""
"","","","","","html-slider-response","36","190528","0.0-28.0","r57soqz0pg","3","NaN","<div style=""width:500px;"">
                            <p style=""font-size:50px; font-weight:bold;""
                            >negative</p>
                            <div style=""width:240px; margin: auto;"">
                                <img src=""images/Y_L_S_44.png"" style= ""width:200px""alt=""img"">
                            </div>
                        </div>","-117","","0","images/Y_L_S_44.png","","","","negative","1","44","Y","L","S","",""
"","","","","","html-slider-response","37","192597","0.0-29.0","r57soqz0pg","3","NaN","<div style=""width:500px;"">
                            <p style=""font-size:50px; font-weight:bold;""
                            >negative</p>
                            <div style=""width:240px; margin: auto;"">
                                <img src=""images/B_D_S_37.png"" style= ""width:200px""alt=""img"">
                            </div>
                        </div>","200","","0","images/B_D_S_37.png","","","","negative","2","37","B","D","S","",""
"","","","","","html-slider-response","38","195792","0.0-30.0","r57soqz0pg","3","NaN","<div style=""width:500px;"">
                            <p style=""font-size:50px; font-weight:bold;""
                            >negative</p>
                            <div style=""width:240px; margin: auto;"">
                                <img src=""images/R_D_U_15.png"" style= ""width:200px""alt=""img"">
                            </div>
                        </div>","50","","0","images/R_D_U_15.png","","","","negative","1","15","R","D","U","",""
"","","","","","html-slider-response","39","198098","0.0-31.0","r57soqz0pg","3","NaN","<div style=""width:500px;"">
                            <p style=""font-size:50px; font-weight:bold;""
                            >negative</p>
                            <div style=""width:240px; margin: auto;"">
                                <img src=""images/G_D_U_28.png"" style= ""width:200px""alt=""img"">
                            </div>
                        </div>","154","","0","images/G_D_U_28.png","","","","negative","1","28","G","D","U","",""
"","","","","","html-slider-response","40","200275","0.0-32.0","r57soqz0pg","3","NaN","<div style=""width:500px;"">
                            <p style=""font-size:50px; font-weight:bold;""
                            >negative</p>
                            <div style=""width:240px; margin: auto;"">
                                <img src=""images/R_D_U_15.png"" style= ""width:200px""alt=""img"">
                            </div>
                        </div>","-115","","0","images/R_D_U_15.png","","","","negative","2","15","R","D","U","",""
"","","","","","html-slider-response","41","202262","0.0-33.0","r57soqz0pg","3","NaN","<div style=""width:500px;"">
                            <p style=""font-size:50px; font-weight:bold;""
                            >negative</p>
                            <div style=""width:240px; margin: auto;"">
                                <img src=""images/Y_L_U_02.png"" style= ""width:200px""alt=""img"">
                            </div>
                        </div>","-190","","0","images/Y_L_U_02.png","","","","negative","2","02","Y","L","U","",""
"","","","","","html-slider-response","42","204160","0.0-34.0","r57soqz0pg","3","NaN","<div style=""width:500px;"">
                            <p style=""font-size:50px; font-weight:bold;""
                            >negative</p>
                            <div style=""width:240px; margin: auto;"">
                                <img src=""images/G_D_U_28.png"" style= ""width:200px""alt=""img"">
                            </div>
                        </div>","91","","0","images/G_D_U_28.png","","","","negative","2","28","G","D","U","",""
"","","","","","html-slider-response","43","205942","0.0-35.0","r57soqz0pg","3","NaN","<div style=""width:500px;"">
                            <p style=""font-size:50px; font-weight:bold;""
                            >negative</p>
                            <div style=""width:240px; margin: auto;"">
                                <img src=""images/B_L_S_30.png"" style= ""width:200px""alt=""img"">
                            </div>
                        </div>","200","","0","images/B_L_S_30.png","","","","negative","2","30","B","L","S","",""
"","","","","","html-slider-response","44","207679","0.0-36.0","r57soqz0pg","3","NaN","<div style=""width:500px;"">
                            <p style=""font-size:50px; font-weight:bold;""
                            >negative</p>
                            <div style=""width:240px; margin: auto;"">
                                <img src=""images/Y_D_U_07.png"" style= ""width:200px""alt=""img"">
                            </div>
                        </div>","-36","","0","images/Y_D_U_07.png","","","","negative","2","07","Y","D","U","",""
"","","","","","html-slider-response","45","210945","0.0-37.0","r57soqz0pg","3","NaN","<div style=""width:500px;"">
                            <p style=""font-size:50px; font-weight:bold;""
                            >negative</p>
                            <div style=""width:240px; margin: auto;"">
                                <img src=""images/R_L_U_12.png"" style= ""width:200px""alt=""img"">
                            </div>
                        </div>","-150","","0","images/R_L_U_12.png","","","","negative","1","12","R","L","U","",""
"","","","","","html-slider-response","46","213783","0.0-38.0","r57soqz0pg","3","NaN","<div style=""width:500px;"">
                            <p style=""font-size:50px; font-weight:bold;""
                            >negative</p>
                            <div style=""width:240px; margin: auto;"">
                                <img src=""images/G_D_S_27.png"" style= ""width:200px""alt=""img"">
                            </div>
                        </div>","102","","0","images/G_D_S_27.png","","","","negative","1","27","G","D","S","",""
"","","","","","html-slider-response","47","215692","0.0-39.0","r57soqz0pg","3","NaN","<div style=""width:500px;"">
                            <p style=""font-size:50px; font-weight:bold;""
                            >negative</p>
                            <div style=""width:240px; margin: auto;"">
                                <img src=""images/Y_D_U_07.png"" style= ""width:200px""alt=""img"">
                            </div>
                        </div>","83","","0","images/Y_D_U_07.png","","","","negative","1","07","Y","D","U","",""
"","","","","","html-slider-response","48","218578","0.0-40.0","r57soqz0pg","3","NaN","<div style=""width:500px;"">
                            <p style=""font-size:50px; font-weight:bold;""
                            >negative</p>
                            <div style=""width:240px; margin: auto;"">
                                <img src=""images/R_D_S_13.png"" style= ""width:200px""alt=""img"">
                            </div>
                        </div>","-101","","0","images/R_D_S_13.png","","","","negative","1","13","R","D","S","",""
"","","","","","html-slider-response","49","220341","0.0-41.0","r57soqz0pg","3","NaN","<div style=""width:500px;"">
                            <p style=""font-size:50px; font-weight:bold;""
                            >negative</p>
                            <div style=""width:240px; margin: auto;"">
                                <img src=""images/B_L_S_30.png"" style= ""width:200px""alt=""img"">
                            </div>
                        </div>","144","","0","images/B_L_S_30.png","","","","negative","1","30","B","L","S","",""
"","","","","","html-slider-response","50","222265","0.0-42.0","r57soqz0pg","3","NaN","<div style=""width:500px;"">
                            <p style=""font-size:50px; font-weight:bold;""
                            >negative</p>
                            <div style=""width:240px; margin: auto;"">
                                <img src=""images/Y_D_S_05.png"" style= ""width:200px""alt=""img"">
                            </div>
                        </div>","122","","0","images/Y_D_S_05.png","","","","negative","2","05","Y","D","S","",""
"","","","","","html-slider-response","51","234198","0.0-43.0","r57soqz0pg","3","NaN","<div style=""width:500px;"">
                            <p style=""font-size:50px; font-weight:bold;""
                            >negative</p>
                            <div style=""width:240px; margin: auto;"">
                                <img src=""images/G_L_S_23.png"" style= ""width:200px""alt=""img"">
                            </div>
                        </div>","107","","0","images/G_L_S_23.png","","","","negative","2","23","G","L","S","",""
"","","","","","html-slider-response","52","236283","0.0-44.0","r57soqz0pg","3","NaN","<div style=""width:500px;"">
                            <p style=""font-size:50px; font-weight:bold;""
                            >negative</p>
                            <div style=""width:240px; margin: auto;"">
                                <img src=""images/B_L_U_33.png"" style= ""width:200px""alt=""img"">
                            </div>
                        </div>","137","","0","images/B_L_U_33.png","","","","negative","1","33","B","L","U","",""
"","","","","","html-slider-response","53","238265","0.0-45.0","r57soqz0pg","3","NaN","<div style=""width:500px;"">
                            <p style=""font-size:50px; font-weight:bold;""
                            >negative</p>
                            <div style=""width:240px; margin: auto;"">
                                <img src=""images/B_L_U_33.png"" style= ""width:200px""alt=""img"">
                            </div>
                        </div>","92","","0","images/B_L_U_33.png","","","","negative","2","33","B","L","U","",""
"","","","","","html-button-response","54","240469","0.0-46.0","r57soqz0pg","3","1701","<p>Great Job! You've finished block 1.<br></br> You have 7 block(s) left to go.<br></br></p>","0","","","","","","","","","","","","","",""
"","","","","","html-button-response","55","243631","0.0-47.0","r57soqz0pg","3","3160","<p>In this block of trials, you will be asked to rate how much you associate each map with:</p > <p style = 'font-size:150%; font-weight: bold'>playful</p><br></br>","0","","","","","","","","","","","","","",""
"","","","","","html-slider-response","56","245331","0.0-48.0","r57soqz0pg","3","NaN","<div style=""width:500px;"">
                            <p style=""font-size:50px; font-weight:bold;""
                            >playful</p>
                            <div style=""width:240px; margin: auto;"">
                                <img src=""images/G_L_S_23.png"" style= ""width:200px""alt=""img"">
                            </div>
                        </div>","-139","","0","images/G_L_S_23.png","","","","playful","2","23","G","L","S","",""
"","","","","","html-slider-response","57","247409","0.0-49.0","r57soqz0pg","3","NaN","<div style=""width:500px;"">
                            <p style=""font-size:50px; font-weight:bold;""
                            >playful</p>
                            <div style=""width:240px; margin: auto;"">
                                <img src=""images/R_D_S_13.png"" style= ""width:200px""alt=""img"">
                            </div>
                        </div>","-136","","0","images/R_D_S_13.png","","","","playful","2","13","R","D","S","",""
"","","","","","html-slider-response","58","249177","0.0-50.0","r57soqz0pg","3","NaN","<div style=""width:500px;"">
                            <p style=""font-size:50px; font-weight:bold;""
                            >playful</p>
                            <div style=""width:240px; margin: auto;"">
                                <img src=""images/B_D_S_37.png"" style= ""width:200px""alt=""img"">
                            </div>
                        </div>","-115","","0","images/B_D_S_37.png","","","","playful","2","37","B","D","S","",""
"","","","","","html-slider-response","59","251258","0.0-51.0","r57soqz0pg","3","NaN","<div style=""width:500px;"">
                            <p style=""font-size:50px; font-weight:bold;""
                            >playful</p>
                            <div style=""width:240px; margin: auto;"">
                                <img src=""images/G_D_U_28.png"" style= ""width:200px""alt=""img"">
                            </div>
                        </div>","-148","","0","images/G_D_U_28.png","","","","playful","1","28","G","D","U","",""
"","","","","","html-slider-response","60","252607","0.0-52.0","r57soqz0pg","3","NaN","<div style=""width:500px;"">
                            <p style=""font-size:50px; font-weight:bold;""
                            >playful</p>
                            <div style=""width:240px; margin: auto;"">
                                <img src=""images/Y_L_S_44.png"" style= ""width:200px""alt=""img"">
                            </div>
                        </div>","-6","","0","images/Y_L_S_44.png","","","","playful","1","44","Y","L","S","",""
"","","","","","html-slider-response","61","254226","0.0-53.0","r57soqz0pg","3","NaN","<div style=""width:500px;"">
                            <p style=""font-size:50px; font-weight:bold;""
                            >playful</p>
                            <div style=""width:240px; margin: auto;"">
                                <img src=""images/Y_L_S_44.png"" style= ""width:200px""alt=""img"">
                            </div>
                        </div>","91","","0","images/Y_L_S_44.png","","","","playful","2","44","Y","L","S","",""
"","","","","","html-slider-response","62","256036","0.0-54.0","r57soqz0pg","3","NaN","<div style=""width:500px;"">
                            <p style=""font-size:50px; font-weight:bold;""
                            >playful</p>
                            <div style=""width:240px; margin: auto;"">
                                <img src=""images/B_D_U_41.png"" style= ""width:200px""alt=""img"">
                            </div>
                        </div>","-108","","0","images/B_D_U_41.png","","","","playful","2","41","B","D","U","",""
"","","","","","html-slider-response","63","258097","0.0-55.0","r57soqz0pg","3","NaN","<div style=""width:500px;"">
                            <p style=""font-size:50px; font-weight:bold;""
                            >playful</p>
                            <div style=""width:240px; margin: auto;"">
                                <img src=""images/Y_D_U_07.png"" style= ""width:200px""alt=""img"">
                            </div>
                        </div>","-200","","0","images/Y_D_U_07.png","","","","playful","2","07","Y","D","U","",""
"","","","","","html-slider-response","64","260346","0.0-56.0","r57soqz0pg","3","NaN","<div style=""width:500px;"">
                            <p style=""font-size:50px; font-weight:bold;""
                            >playful</p>
                            <div style=""width:240px; margin: auto;"">
                                <img src=""images/B_L_U_33.png"" style= ""width:200px""alt=""img"">
                            </div>
                        </div>","70","","0","images/B_L_U_33.png","","","","playful","2","33","B","L","U","",""
"","","","","","html-slider-response","65","262610","0.0-57.0","r57soqz0pg","3","NaN","<div style=""width:500px;"">
                            <p style=""font-size:50px; font-weight:bold;""
                            >playful</p>
                            <div style=""width:240px; margin: auto;"">
                                <img src=""images/Y_D_U_07.png"" style= ""width:200px""alt=""img"">
                            </div>
                        </div>","-200","","0","images/Y_D_U_07.png","","","","playful","1","07","Y","D","U","",""
"","","","","","html-slider-response","66","264616","0.0-58.0","r57soqz0pg","3","NaN","<div style=""width:500px;"">
                            <p style=""font-size:50px; font-weight:bold;""
                            >playful</p>
                            <div style=""width:240px; margin: auto;"">
                                <img src=""images/R_L_S_10.png"" style= ""width:200px""alt=""img"">
                            </div>
                        </div>","200","","0","images/R_L_S_10.png","","","","playful","1","10","R","L","S","",""
"","","","","","html-slider-response","67","267170","0.0-59.0","r57soqz0pg","3","NaN","<div style=""width:500px;"">
                            <p style=""font-size:50px; font-weight:bold;""
                            >playful</p>
                            <div style=""width:240px; margin: auto;"">
                                <img src=""images/Y_D_S_05.png"" style= ""width:200px""alt=""img"">
                            </div>
                        </div>","-102","","0","images/Y_D_S_05.png","","","","playful","1","05","Y","D","S","",""
"","","","","","html-slider-response","68","269375","0.0-60.0","r57soqz0pg","3","NaN","<div style=""width:500px;"">
                            <p style=""font-size:50px; font-weight:bold;""
                            >playful</p>
                            <div style=""width:240px; margin: auto;"">
                                <img src=""images/R_L_S_10.png"" style= ""width:200px""alt=""img"">
                            </div>
                        </div>","168","","0","images/R_L_S_10.png","","","","playful","2","10","R","L","S","",""
"","","","","","html-slider-response","69","271244","0.0-61.0","r57soqz0pg","3","NaN","<div style=""width:500px;"">
                            <p style=""font-size:50px; font-weight:bold;""
                            >playful</p>
                            <div style=""width:240px; margin: auto;"">
                                <img src=""images/B_L_S_30.png"" style= ""width:200px""alt=""img"">
                            </div>
                        </div>","164","","0","images/B_L_S_30.png","","","","playful","1","30","B","L","S","",""
"","","","","","html-slider-response","70","272732","0.0-62.0","r57soqz0pg","3","NaN","<div style=""width:500px;"">
                            <p style=""font-size:50px; font-weight:bold;""
                            >playful</p>
                            <div style=""width:240px; margin: auto;"">
                                <img src=""images/G_L_U_26.png"" style= ""width:200px""alt=""img"">
                            </div>
                        </div>","175","","0","images/G_L_U_26.png","","","","playful","2","26","G","L","U","",""
"","","","","","html-slider-response","71","274333","0.0-63.0","r57soqz0pg","3","NaN","<div style=""width:500px;"">
                            <p style=""font-size:50px; font-weight:bold;""
                            >playful</p>
                            <div style=""width:240px; margin: auto;"">
                                <img src=""images/G_L_S_23.png"" style= ""width:200px""alt=""img"">
                            </div>
                        </div>","151","","0","images/G_L_S_23.png","","","","playful","1","23","G","L","S","",""
"","","","","","html-slider-response","72","277132","0.0-64.0","r57soqz0pg","3","NaN","<div style=""width:500px;"">
                            <p style=""font-size:50px; font-weight:bold;""
                            >playful</p>
                            <div style=""width:240px; margin: auto;"">
                                <img src=""images/R_D_U_15.png"" style= ""width:200px""alt=""img"">
                            </div>
                        </div>","-158","","0","images/R_D_U_15.png","","","","playful","2","15","R","D","U","",""
"","","","","","html-slider-response","73","278894","0.0-65.0","r57soqz0pg","3","NaN","<div style=""width:500px;"">
                            <p style=""font-size:50px; font-weight:bold;""
                            >playful</p>
                            <div style=""width:240px; margin: auto;"">
                                <img src=""images/B_D_U_41.png"" style= ""width:200px""alt=""img"">
                            </div>
                        </div>","-111","","0","images/B_D_U_41.png","","","","playful","1","41","B","D","U","",""
"","","","","","html-slider-response","74","280765","0.0-66.0","r57soqz0pg","3","NaN","<div style=""width:500px;"">
                            <p style=""font-size:50px; font-weight:bold;""
                            >playful</p>
                            <div style=""width:240px; margin: auto;"">
                                <img src=""images/R_D_U_15.png"" style= ""width:200px""alt=""img"">
                            </div>
                        </div>","-120","","0","images/R_D_U_15.png","","","","playful","1","15","R","D","U","",""
"","","","","","html-slider-response","75","284133","0.0-67.0","r57soqz0pg","3","NaN","<div style=""width:500px;"">
                            <p style=""font-size:50px; font-weight:bold;""
                            >playful</p>
                            <div style=""width:240px; margin: auto;"">
                                <img src=""images/B_D_S_37.png"" style= ""width:200px""alt=""img"">
                            </div>
                        </div>","-141","","0","images/B_D_S_37.png","","","","playful","1","37","B","D","S","",""
"","","","","","html-slider-response","76","285980","0.0-68.0","r57soqz0pg","3","NaN","<div style=""width:500px;"">
                            <p style=""font-size:50px; font-weight:bold;""
                            >playful</p>
                            <div style=""width:240px; margin: auto;"">
                                <img src=""images/G_L_U_26.png"" style= ""width:200px""alt=""img"">
                            </div>
                        </div>","111","","0","images/G_L_U_26.png","","","","playful","1","26","G","L","U","",""
"","","","","","html-slider-response","77","288275","0.0-69.0","r57soqz0pg","3","NaN","<div style=""width:500px;"">
                            <p style=""font-size:50px; font-weight:bold;""
                            >playful</p>
                            <div style=""width:240px; margin: auto;"">
                                <img src=""images/B_L_S_30.png"" style= ""width:200px""alt=""img"">
                            </div>
                        </div>","39","","0","images/B_L_S_30.png","","","","playful","2","30","B","L","S","",""
"","","","","","html-slider-response","78","290652","0.0-70.0","r57soqz0pg","3","NaN","<div style=""width:500px;"">
                            <p style=""font-size:50px; font-weight:bold;""
                            >playful</p>
                            <div style=""width:240px; margin: auto;"">
                                <img src=""images/Y_D_S_05.png"" style= ""width:200px""alt=""img"">
                            </div>
                        </div>","11","","0","images/Y_D_S_05.png","","","","playful","2","05","Y","D","S","",""
"","","","","","html-slider-response","79","333733","0.0-71.0","r57soqz0pg","3","NaN","<div style=""width:500px;"">
                            <p style=""font-size:50px; font-weight:bold;""
                            >playful</p>
                            <div style=""width:240px; margin: auto;"">
                                <img src=""images/B_L_U_33.png"" style= ""width:200px""alt=""img"">
                            </div>
                        </div>","54","","0","images/B_L_U_33.png","","","","playful","1","33","B","L","U","",""
"","","","","","html-slider-response","80","339597","0.0-72.0","r57soqz0pg","3","NaN","<div style=""width:500px;"">
                            <p style=""font-size:50px; font-weight:bold;""
                            >playful</p>
                            <div style=""width:240px; margin: auto;"">
                                <img src=""images/R_D_S_13.png"" style= ""width:200px""alt=""img"">
                            </div>
                        </div>","-171","","0","images/R_D_S_13.png","","","","playful","1","13","R","D","S","",""
"","","","","","html-slider-response","81","341536","0.0-73.0","r57soqz0pg","3","NaN","<div style=""width:500px;"">
                            <p style=""font-size:50px; font-weight:bold;""
                            >playful</p>
                            <div style=""width:240px; margin: auto;"">
                                <img src=""images/G_D_U_28.png"" style= ""width:200px""alt=""img"">
                            </div>
                        </div>","-200","","0","images/G_D_U_28.png","","","","playful","2","28","G","D","U","",""
"","","","","","html-slider-response","82","343582","0.0-74.0","r57soqz0pg","3","NaN","<div style=""width:500px;"">
                            <p style=""font-size:50px; font-weight:bold;""
                            >playful</p>
                            <div style=""width:240px; margin: auto;"">
                                <img src=""images/Y_L_U_02.png"" style= ""width:200px""alt=""img"">
                            </div>
                        </div>","46","","0","images/Y_L_U_02.png","","","","playful","1","02","Y","L","U","",""
"","","","","","html-slider-response","83","345362","0.0-75.0","r57soqz0pg","3","NaN","<div style=""width:500px;"">
                            <p style=""font-size:50px; font-weight:bold;""
                            >playful</p>
                            <div style=""width:240px; margin: auto;"">
                                <img src=""images/Y_L_U_02.png"" style= ""width:200px""alt=""img"">
                            </div>
                        </div>","42","","0","images/Y_L_U_02.png","","","","playful","2","02","Y","L","U","",""
"","","","","","html-slider-response","84","348636","0.0-76.0","r57soqz0pg","3","NaN","<div style=""width:500px;"">
                            <p style=""font-size:50px; font-weight:bold;""
                            >playful</p>
                            <div style=""width:240px; margin: auto;"">
                                <img src=""images/G_D_S_27.png"" style= ""width:200px""alt=""img"">
                            </div>
                        </div>","-138","","0","images/G_D_S_27.png","","","","playful","1","27","G","D","S","",""
"","","","","","html-slider-response","85","350845","0.0-77.0","r57soqz0pg","3","NaN","<div style=""width:500px;"">
                            <p style=""font-size:50px; font-weight:bold;""
                            >playful</p>
                            <div style=""width:240px; margin: auto;"">
                                <img src=""images/R_L_U_12.png"" style= ""width:200px""alt=""img"">
                            </div>
                        </div>","82","","0","images/R_L_U_12.png","","","","playful","2","12","R","L","U","",""
"","","","","","html-slider-response","86","361445","0.0-78.0","r57soqz0pg","3","NaN","<div style=""width:500px;"">
                            <p style=""font-size:50px; font-weight:bold;""
                            >playful</p>
                            <div style=""width:240px; margin: auto;"">
                                <img src=""images/R_L_U_12.png"" style= ""width:200px""alt=""img"">
                            </div>
                        </div>","49","","0","images/R_L_U_12.png","","","","playful","1","12","R","L","U","",""
"","","","","","html-slider-response","87","375749","0.0-79.0","r57soqz0pg","3","NaN","<div style=""width:500px;"">
                            <p style=""font-size:50px; font-weight:bold;""
                            >playful</p>
                            <div style=""width:240px; margin: auto;"">
                                <img src=""images/G_D_S_27.png"" style= ""width:200px""alt=""img"">
                            </div>
                        </div>","-124","","0","images/G_D_S_27.png","","","","playful","2","27","G","D","S","",""
"","","","","","html-button-response","88","377387","0.0-80.0","r57soqz0pg","3","1136","<p>Great Job! You've finished block 2.<br></br> You have 6 block(s) left to go.<br></br></p>","0","","","","","","","","","","","","","",""
"","","","","","html-button-response","89","378203","0.0-81.0","r57soqz0pg","3","815","<p>In this block of trials, you will be asked to rate how much you associate each map with:</p > <p style = 'font-size:150%; font-weight: bold'>positive</p><br></br>","0","","","","","","","","","","","","","",""
"","","","","","html-slider-response","90","379427","0.0-82.0","r57soqz0pg","3","NaN","<div style=""width:500px;"">
                            <p style=""font-size:50px; font-weight:bold;""
                            >positive</p>
                            <div style=""width:240px; margin: auto;"">
                                <img src=""images/R_L_U_12.png"" style= ""width:200px""alt=""img"">
                            </div>
                        </div>","200","","0","images/R_L_U_12.png","","","","positive","1","12","R","L","U","",""
"","","","","","html-slider-response","91","381425","0.0-83.0","r57soqz0pg","3","NaN","<div style=""width:500px;"">
                            <p style=""font-size:50px; font-weight:bold;""
                            >positive</p>
                            <div style=""width:240px; margin: auto;"">
                                <img src=""images/R_L_S_10.png"" style= ""width:200px""alt=""img"">
                            </div>
                        </div>","61","","0","images/R_L_S_10.png","","","","positive","1","10","R","L","S","",""
"","","","","","html-slider-response","92","399011","0.0-84.0","r57soqz0pg","3","NaN","<div style=""width:500px;"">
                            <p style=""font-size:50px; font-weight:bold;""
                            >positive</p>
                            <div style=""width:240px; margin: auto;"">
                                <img src=""images/B_D_U_41.png"" style= ""width:200px""alt=""img"">
                            </div>
                        </div>","-200","","0","images/B_D_U_41.png","","","","positive","2","41","B","D","U","",""
"","","","","","html-slider-response","93","401142","0.0-85.0","r57soqz0pg","3","NaN","<div style=""width:500px;"">
                            <p style=""font-size:50px; font-weight:bold;""
                            >positive</p>
                            <div style=""width:240px; margin: auto;"">
                                <img src=""images/Y_D_S_05.png"" style= ""width:200px""alt=""img"">
                            </div>
                        </div>","-132","","0","images/Y_D_S_05.png","","","","positive","1","05","Y","D","S","",""
"","","","","","html-slider-response","94","403031","0.0-86.0","r57soqz0pg","3","NaN","<div style=""width:500px;"">
                            <p style=""font-size:50px; font-weight:bold;""
                            >positive</p>
                            <div style=""width:240px; margin: auto;"">
                                <img src=""images/G_L_U_26.png"" style= ""width:200px""alt=""img"">
                            </div>
                        </div>","-103","","0","images/G_L_U_26.png","","","","positive","1","26","G","L","U","",""
"","","","","","html-slider-response","95","404962","0.0-87.0","r57soqz0pg","3","NaN","<div style=""width:500px;"">
                            <p style=""font-size:50px; font-weight:bold;""
                            >positive</p>
                            <div style=""width:240px; margin: auto;"">
                                <img src=""images/G_D_S_27.png"" style= ""width:200px""alt=""img"">
                            </div>
                        </div>","-200","","0","images/G_D_S_27.png","","","","positive","1","27","G","D","S","",""
"","","","","","html-slider-response","96","406450","0.0-88.0","r57soqz0pg","3","NaN","<div style=""width:500px;"">
                            <p style=""font-size:50px; font-weight:bold;""
                            >positive</p>
                            <div style=""width:240px; margin: auto;"">
                                <img src=""images/G_L_S_23.png"" style= ""width:200px""alt=""img"">
                            </div>
                        </div>","-200","","0","images/G_L_S_23.png","","","","positive","1","23","G","L","S","",""
"","","","","","html-slider-response","97","407977","0.0-89.0","r57soqz0pg","3","NaN","<div style=""width:500px;"">
                            <p style=""font-size:50px; font-weight:bold;""
                            >positive</p>
                            <div style=""width:240px; margin: auto;"">
                                <img src=""images/Y_D_U_07.png"" style= ""width:200px""alt=""img"">
                            </div>
                        </div>","-200","","0","images/Y_D_U_07.png","","","","positive","1","07","Y","D","U","",""
"","","","","","html-slider-response","98","409825","0.0-90.0","r57soqz0pg","3","NaN","<div style=""width:500px;"">
                            <p style=""font-size:50px; font-weight:bold;""
                            >positive</p>
                            <div style=""width:240px; margin: auto;"">
                                <img src=""images/R_D_U_15.png"" style= ""width:200px""alt=""img"">
                            </div>
                        </div>","-54","","0","images/R_D_U_15.png","","","","positive","1","15","R","D","U","",""
"","","","","","html-slider-response","99","411584","0.0-91.0","r57soqz0pg","3","NaN","<div style=""width:500px;"">
                            <p style=""font-size:50px; font-weight:bold;""
                            >positive</p>
                            <div style=""width:240px; margin: auto;"">
                                <img src=""images/G_L_U_26.png"" style= ""width:200px""alt=""img"">
                            </div>
                        </div>","-58","","0","images/G_L_U_26.png","","","","positive","2","26","G","L","U","",""
"","","","","","html-slider-response","100","413662","0.0-92.0","r57soqz0pg","3","NaN","<div style=""width:500px;"">
                            <p style=""font-size:50px; font-weight:bold;""
                            >positive</p>
                            <div style=""width:240px; margin: auto;"">
                                <img src=""images/B_L_U_33.png"" style= ""width:200px""alt=""img"">
                            </div>
                        </div>","-102","","0","images/B_L_U_33.png","","","","positive","1","33","B","L","U","",""
"","","","","","html-slider-response","101","418361","0.0-93.0","r57soqz0pg","3","NaN","<div style=""width:500px;"">
                            <p style=""font-size:50px; font-weight:bold;""
                            >positive</p>
                            <div style=""width:240px; margin: auto;"">
                                <img src=""images/B_L_S_30.png"" style= ""width:200px""alt=""img"">
                            </div>
                        </div>","-95","","0","images/B_L_S_30.png","","","","positive","2","30","B","L","S","",""
"","","","","","html-slider-response","102","421023","0.0-94.0","r57soqz0pg","3","NaN","<div style=""width:500px;"">
                            <p style=""font-size:50px; font-weight:bold;""
                            >positive</p>
                            <div style=""width:240px; margin: auto;"">
                                <img src=""images/B_D_S_37.png"" style= ""width:200px""alt=""img"">
                            </div>
                        </div>","-138","","0","images/B_D_S_37.png","","","","positive","1","37","B","D","S","",""
"","","","","","html-slider-response","103","425135","0.0-95.0","r57soqz0pg","3","NaN","<div style=""width:500px;"">
                            <p style=""font-size:50px; font-weight:bold;""
                            >positive</p>
                            <div style=""width:240px; margin: auto;"">
                                <img src=""images/Y_L_S_44.png"" style= ""width:200px""alt=""img"">
                            </div>
                        </div>","170","","0","images/Y_L_S_44.png","","","","positive","2","44","Y","L","S","",""
"","","","","","html-slider-response","104","427084","0.0-96.0","r57soqz0pg","3","NaN","<div style=""width:500px;"">
                            <p style=""font-size:50px; font-weight:bold;""
                            >positive</p>
                            <div style=""width:240px; margin: auto;"">
                                <img src=""images/G_D_U_28.png"" style= ""width:200px""alt=""img"">
                            </div>
                        </div>","-185","","0","images/G_D_U_28.png","","","","positive","2","28","G","D","U","",""
"","","","","","html-slider-response","105","429124","0.0-97.0","r57soqz0pg","3","NaN","<div style=""width:500px;"">
                            <p style=""font-size:50px; font-weight:bold;""
                            >positive</p>
                            <div style=""width:240px; margin: auto;"">
                                <img src=""images/G_D_U_28.png"" style= ""width:200px""alt=""img"">
                            </div>
                        </div>","-162","","0","images/G_D_U_28.png","","","","positive","1","28","G","D","U","",""
"","","","","","html-slider-response","106","430910","0.0-98.0","r57soqz0pg","3","NaN","<div style=""width:500px;"">
                            <p style=""font-size:50px; font-weight:bold;""
                            >positive</p>
                            <div style=""width:240px; margin: auto;"">
                                <img src=""images/B_D_S_37.png"" style= ""width:200px""alt=""img"">
                            </div>
                        </div>","-200","","0","images/B_D_S_37.png","","","","positive","2","37","B","D","S","",""
"","","","","","html-slider-response","107","432673","0.0-99.0","r57soqz0pg","3","NaN","<div style=""width:500px;"">
                            <p style=""font-size:50px; font-weight:bold;""
                            >positive</p>
                            <div style=""width:240px; margin: auto;"">
                                <img src=""images/B_D_U_41.png"" style= ""width:200px""alt=""img"">
                            </div>
                        </div>","-200","","0","images/B_D_U_41.png","","","","positive","1","41","B","D","U","",""
"","","","","","html-slider-response","108","435093","0.0-100.0","r57soqz0pg","3","NaN","<div style=""width:500px;"">
                            <p style=""font-size:50px; font-weight:bold;""
                            >positive</p>
                            <div style=""width:240px; margin: auto;"">
                                <img src=""images/R_D_S_13.png"" style= ""width:200px""alt=""img"">
                            </div>
                        </div>","57","","0","images/R_D_S_13.png","","","","positive","2","13","R","D","S","",""
"","","","","","html-slider-response","109","437475","0.0-101.0","r57soqz0pg","3","NaN","<div style=""width:500px;"">
                            <p style=""font-size:50px; font-weight:bold;""
                            >positive</p>
                            <div style=""width:240px; margin: auto;"">
                                <img src=""images/R_L_S_10.png"" style= ""width:200px""alt=""img"">
                            </div>
                        </div>","115","","0","images/R_L_S_10.png","","","","positive","2","10","R","L","S","",""
"","","","","","html-slider-response","110","440198","0.0-102.0","r57soqz0pg","3","NaN","<div style=""width:500px;"">
                            <p style=""font-size:50px; font-weight:bold;""
                            >positive</p>
                            <div style=""width:240px; margin: auto;"">
                                <img src=""images/Y_L_U_02.png"" style= ""width:200px""alt=""img"">
                            </div>
                        </div>","175","","0","images/Y_L_U_02.png","","","","positive","1","02","Y","L","U","",""
"","","","","","html-slider-response","111","442083","0.0-103.0","r57soqz0pg","3","NaN","<div style=""width:500px;"">
                            <p style=""font-size:50px; font-weight:bold;""
                            >positive</p>
                            <div style=""width:240px; margin: auto;"">
                                <img src=""images/R_L_U_12.png"" style= ""width:200px""alt=""img"">
                            </div>
                        </div>","170","","0","images/R_L_U_12.png","","","","positive","2","12","R","L","U","",""
"","","","","","html-slider-response","112","451940","0.0-104.0","r57soqz0pg","3","NaN","<div style=""width:500px;"">
                            <p style=""font-size:50px; font-weight:bold;""
                            >positive</p>
                            <div style=""width:240px; margin: auto;"">
                                <img src=""images/Y_D_U_07.png"" style= ""width:200px""alt=""img"">
                            </div>
                        </div>","-90","","0","images/Y_D_U_07.png","","","","positive","2","07","Y","D","U","",""
"","","","","","html-slider-response","113","454129","0.0-105.0","r57soqz0pg","3","NaN","<div style=""width:500px;"">
                            <p style=""font-size:50px; font-weight:bold;""
                            >positive</p>
                            <div style=""width:240px; margin: auto;"">
                                <img src=""images/Y_L_S_44.png"" style= ""width:200px""alt=""img"">
                            </div>
                        </div>","200","","0","images/Y_L_S_44.png","","","","positive","1","44","Y","L","S","",""
"","","","","","html-slider-response","114","456545","0.0-106.0","r57soqz0pg","3","NaN","<div style=""width:500px;"">
                            <p style=""font-size:50px; font-weight:bold;""
                            >positive</p>
                            <div style=""width:240px; margin: auto;"">
                                <img src=""images/Y_D_S_05.png"" style= ""width:200px""alt=""img"">
                            </div>
                        </div>","-142","","0","images/Y_D_S_05.png","","","","positive","2","05","Y","D","S","",""
"","","","","","html-slider-response","115","458778","0.0-107.0","r57soqz0pg","3","NaN","<div style=""width:500px;"">
                            <p style=""font-size:50px; font-weight:bold;""
                            >positive</p>
                            <div style=""width:240px; margin: auto;"">
                                <img src=""images/R_D_S_13.png"" style= ""width:200px""alt=""img"">
                            </div>
                        </div>","-96","","0","images/R_D_S_13.png","","","","positive","1","13","R","D","S","",""
"","","","","","html-slider-response","116","461810","0.0-108.0","r57soqz0pg","3","NaN","<div style=""width:500px;"">
                            <p style=""font-size:50px; font-weight:bold;""
                            >positive</p>
                            <div style=""width:240px; margin: auto;"">
                                <img src=""images/B_L_S_30.png"" style= ""width:200px""alt=""img"">
                            </div>
                        </div>","-149","","0","images/B_L_S_30.png","","","","positive","1","30","B","L","S","",""
"","","","","","html-slider-response","117","481875","0.0-109.0","r57soqz0pg","3","NaN","<div style=""width:500px;"">
                            <p style=""font-size:50px; font-weight:bold;""
                            >positive</p>
                            <div style=""width:240px; margin: auto;"">
                                <img src=""images/B_L_U_33.png"" style= ""width:200px""alt=""img"">
                            </div>
                        </div>","-175","","0","images/B_L_U_33.png","","","","positive","2","33","B","L","U","",""
"","","","","","html-slider-response","118","484211","0.0-110.0","r57soqz0pg","3","NaN","<div style=""width:500px;"">
                            <p style=""font-size:50px; font-weight:bold;""
                            >positive</p>
                            <div style=""width:240px; margin: auto;"">
                                <img src=""images/Y_L_U_02.png"" style= ""width:200px""alt=""img"">
                            </div>
                        </div>","127","","0","images/Y_L_U_02.png","","","","positive","2","02","Y","L","U","",""
"","","","","","html-slider-response","119","487265","0.0-111.0","r57soqz0pg","3","NaN","<div style=""width:500px;"">
                            <p style=""font-size:50px; font-weight:bold;""
                            >positive</p>
                            <div style=""width:240px; margin: auto;"">
                                <img src=""images/G_D_S_27.png"" style= ""width:200px""alt=""img"">
                            </div>
                        </div>","-114","","0","images/G_D_S_27.png","","","","positive","2","27","G","D","S","",""
"","","","","","html-slider-response","120","489432","0.0-112.0","r57soqz0pg","3","NaN","<div style=""width:500px;"">
                            <p style=""font-size:50px; font-weight:bold;""
                            >positive</p>
                            <div style=""width:240px; margin: auto;"">
                                <img src=""images/G_L_S_23.png"" style= ""width:200px""alt=""img"">
                            </div>
                        </div>","-84","","0","images/G_L_S_23.png","","","","positive","2","23","G","L","S","",""
"","","","","","html-slider-response","121","491373","0.0-113.0","r57soqz0pg","3","NaN","<div style=""width:500px;"">
                            <p style=""font-size:50px; font-weight:bold;""
                            >positive</p>
                            <div style=""width:240px; margin: auto;"">
                                <img src=""images/R_D_U_15.png"" style= ""width:200px""alt=""img"">
                            </div>
                        </div>","-139","","0","images/R_D_U_15.png","","","","positive","2","15","R","D","U","",""
"","","","","","html-button-response","122","492995","0.0-114.0","r57soqz0pg","3","1120","<p>Great Job! You've finished block 3.<br></br> You have 5 block(s) left to go.<br></br></p>","0","","","","","","","","","","","","","",""
"","","","","","html-button-response","123","493818","0.0-115.0","r57soqz0pg","3","823","<p>In this block of trials, you will be asked to rate how much you associate each map with:</p > <p style = 'font-size:150%; font-weight: bold'>disturbing</p><br></br>","0","","","","","","","","","","","","","",""
"","","","","","html-slider-response","124","496023","0.0-116.0","r57soqz0pg","3","NaN","<div style=""width:500px;"">
                            <p style=""font-size:50px; font-weight:bold;""
                            >disturbing</p>
                            <div style=""width:240px; margin: auto;"">
                                <img src=""images/G_L_U_26.png"" style= ""width:200px""alt=""img"">
                            </div>
                        </div>","-166","","0","images/G_L_U_26.png","","","","disturbing","1","26","G","L","U","",""
"","","","","","html-slider-response","125","497995","0.0-117.0","r57soqz0pg","3","NaN","<div style=""width:500px;"">
                            <p style=""font-size:50px; font-weight:bold;""
                            >disturbing</p>
                            <div style=""width:240px; margin: auto;"">
                                <img src=""images/G_L_S_23.png"" style= ""width:200px""alt=""img"">
                            </div>
                        </div>","-118","","0","images/G_L_S_23.png","","","","disturbing","1","23","G","L","S","",""
"","","","","","html-slider-response","126","499732","0.0-118.0","r57soqz0pg","3","NaN","<div style=""width:500px;"">
                            <p style=""font-size:50px; font-weight:bold;""
                            >disturbing</p>
                            <div style=""width:240px; margin: auto;"">
                                <img src=""images/G_D_U_28.png"" style= ""width:200px""alt=""img"">
                            </div>
                        </div>","79","","0","images/G_D_U_28.png","","","","disturbing","1","28","G","D","U","",""
"","","","","","html-slider-response","127","502480","0.0-119.0","r57soqz0pg","3","NaN","<div style=""width:500px;"">
                            <p style=""font-size:50px; font-weight:bold;""
                            >disturbing</p>
                            <div style=""width:240px; margin: auto;"">
                                <img src=""images/R_L_U_12.png"" style= ""width:200px""alt=""img"">
                            </div>
                        </div>","-160","","0","images/R_L_U_12.png","","","","disturbing","1","12","R","L","U","",""
"","","","","","html-slider-response","128","504512","0.0-120.0","r57soqz0pg","3","NaN","<div style=""width:500px;"">
                            <p style=""font-size:50px; font-weight:bold;""
                            >disturbing</p>
                            <div style=""width:240px; margin: auto;"">
                                <img src=""images/G_L_U_26.png"" style= ""width:200px""alt=""img"">
                            </div>
                        </div>","-83","","0","images/G_L_U_26.png","","","","disturbing","2","26","G","L","U","",""
"","","","","","html-slider-response","129","506475","0.0-121.0","r57soqz0pg","3","NaN","<div style=""width:500px;"">
                            <p style=""font-size:50px; font-weight:bold;""
                            >disturbing</p>
                            <div style=""width:240px; margin: auto;"">
                                <img src=""images/Y_D_S_05.png"" style= ""width:200px""alt=""img"">
                            </div>
                        </div>","200","","0","images/Y_D_S_05.png","","","","disturbing","1","05","Y","D","S","",""
"","","","","","html-slider-response","130","509102","0.0-122.0","r57soqz0pg","3","NaN","<div style=""width:500px;"">
                            <p style=""font-size:50px; font-weight:bold;""
                            >disturbing</p>
                            <div style=""width:240px; margin: auto;"">
                                <img src=""images/B_D_S_37.png"" style= ""width:200px""alt=""img"">
                            </div>
                        </div>","34","","0","images/B_D_S_37.png","","","","disturbing","1","37","B","D","S","",""
"","","","","","html-slider-response","131","512247","0.0-123.0","r57soqz0pg","3","NaN","<div style=""width:500px;"">
                            <p style=""font-size:50px; font-weight:bold;""
                            >disturbing</p>
                            <div style=""width:240px; margin: auto;"">
                                <img src=""images/B_L_S_30.png"" style= ""width:200px""alt=""img"">
                            </div>
                        </div>","-109","","0","images/B_L_S_30.png","","","","disturbing","1","30","B","L","S","",""
"","","","","","html-slider-response","132","547210","0.0-124.0","r57soqz0pg","3","NaN","<div style=""width:500px;"">
                            <p style=""font-size:50px; font-weight:bold;""
                            >disturbing</p>
                            <div style=""width:240px; margin: auto;"">
                                <img src=""images/Y_D_S_05.png"" style= ""width:200px""alt=""img"">
                            </div>
                        </div>","200","","0","images/Y_D_S_05.png","","","","disturbing","2","05","Y","D","S","",""
"","","","","","html-slider-response","133","549715","0.0-125.0","r57soqz0pg","3","NaN","<div style=""width:500px;"">
                            <p style=""font-size:50px; font-weight:bold;""
                            >disturbing</p>
                            <div style=""width:240px; margin: auto;"">
                                <img src=""images/G_D_S_27.png"" style= ""width:200px""alt=""img"">
                            </div>
                        </div>","79","","0","images/G_D_S_27.png","","","","disturbing","2","27","G","D","S","",""
"","","","","","html-slider-response","134","551479","0.0-126.0","r57soqz0pg","3","NaN","<div style=""width:500px;"">
                            <p style=""font-size:50px; font-weight:bold;""
                            >disturbing</p>
                            <div style=""width:240px; margin: auto;"">
                                <img src=""images/G_D_S_27.png"" style= ""width:200px""alt=""img"">
                            </div>
                        </div>","162","","0","images/G_D_S_27.png","","","","disturbing","1","27","G","D","S","",""
"","","","","","html-slider-response","135","554358","0.0-127.0","r57soqz0pg","3","NaN","<div style=""width:500px;"">
                            <p style=""font-size:50px; font-weight:bold;""
                            >disturbing</p>
                            <div style=""width:240px; margin: auto;"">
                                <img src=""images/R_D_S_13.png"" style= ""width:200px""alt=""img"">
                            </div>
                        </div>","-126","","0","images/R_D_S_13.png","","","","disturbing","2","13","R","D","S","",""
"","","","","","html-slider-response","136","557407","0.0-128.0","r57soqz0pg","3","NaN","<div style=""width:500px;"">
                            <p style=""font-size:50px; font-weight:bold;""
                            >disturbing</p>
                            <div style=""width:240px; margin: auto;"">
                                <img src=""images/B_D_S_37.png"" style= ""width:200px""alt=""img"">
                            </div>
                        </div>","-27","","0","images/B_D_S_37.png","","","","disturbing","2","37","B","D","S","",""
"","","","","","html-slider-response","137","559968","0.0-129.0","r57soqz0pg","3","NaN","<div style=""width:500px;"">
                            <p style=""font-size:50px; font-weight:bold;""
                            >disturbing</p>
                            <div style=""width:240px; margin: auto;"">
                                <img src=""images/Y_D_U_07.png"" style= ""width:200px""alt=""img"">
                            </div>
                        </div>","200","","0","images/Y_D_U_07.png","","","","disturbing","1","07","Y","D","U","",""
"","","","","","html-slider-response","138","564627","0.0-130.0","r57soqz0pg","3","NaN","<div style=""width:500px;"">
                            <p style=""font-size:50px; font-weight:bold;""
                            >disturbing</p>
                            <div style=""width:240px; margin: auto;"">
                                <img src=""images/R_L_U_12.png"" style= ""width:200px""alt=""img"">
                            </div>
                        </div>","-133","","0","images/R_L_U_12.png","","","","disturbing","2","12","R","L","U","",""
"","","","","","html-slider-response","139","567092","0.0-131.0","r57soqz0pg","3","NaN","<div style=""width:500px;"">
                            <p style=""font-size:50px; font-weight:bold;""
                            >disturbing</p>
                            <div style=""width:240px; margin: auto;"">
                                <img src=""images/B_L_U_33.png"" style= ""width:200px""alt=""img"">
                            </div>
                        </div>","-127","","0","images/B_L_U_33.png","","","","disturbing","2","33","B","L","U","",""
"","","","","","html-slider-response","140","570311","0.0-132.0","r57soqz0pg","3","NaN","<div style=""width:500px;"">
                            <p style=""font-size:50px; font-weight:bold;""
                            >disturbing</p>
                            <div style=""width:240px; margin: auto;"">
                                <img src=""images/Y_L_U_02.png"" style= ""width:200px""alt=""img"">
                            </div>
                        </div>","-102","","0","images/Y_L_U_02.png","","","","disturbing","1","02","Y","L","U","",""
"","","","","","html-slider-response","141","573544","0.0-133.0","r57soqz0pg","3","NaN","<div style=""width:500px;"">
                            <p style=""font-size:50px; font-weight:bold;""
                            >disturbing</p>
                            <div style=""width:240px; margin: auto;"">
                                <img src=""images/R_D_S_13.png"" style= ""width:200px""alt=""img"">
                            </div>
                        </div>","-59","","0","images/R_D_S_13.png","","","","disturbing","1","13","R","D","S","",""
"","","","","","html-slider-response","142","575243","0.0-134.0","r57soqz0pg","3","NaN","<div style=""width:500px;"">
                            <p style=""font-size:50px; font-weight:bold;""
                            >disturbing</p>
                            <div style=""width:240px; margin: auto;"">
                                <img src=""images/Y_L_S_44.png"" style= ""width:200px""alt=""img"">
                            </div>
                        </div>","-22","","0","images/Y_L_S_44.png","","","","disturbing","2","44","Y","L","S","",""
"","","","","","html-slider-response","143","577094","0.0-135.0","r57soqz0pg","3","NaN","<div style=""width:500px;"">
                            <p style=""font-size:50px; font-weight:bold;""
                            >disturbing</p>
                            <div style=""width:240px; margin: auto;"">
                                <img src=""images/B_D_U_41.png"" style= ""width:200px""alt=""img"">
                            </div>
                        </div>","2","","0","images/B_D_U_41.png","","","","disturbing","1","41","B","D","U","",""
"","","","","","html-slider-response","144","578977","0.0-136.0","r57soqz0pg","3","NaN","<div style=""width:500px;"">
                            <p style=""font-size:50px; font-weight:bold;""
                            >disturbing</p>
                            <div style=""width:240px; margin: auto;"">
                                <img src=""images/Y_D_U_07.png"" style= ""width:200px""alt=""img"">
                            </div>
                        </div>","200","","0","images/Y_D_U_07.png","","","","disturbing","2","07","Y","D","U","",""
"","","","","","html-slider-response","145","581078","0.0-137.0","r57soqz0pg","3","NaN","<div style=""width:500px;"">
                            <p style=""font-size:50px; font-weight:bold;""
                            >disturbing</p>
                            <div style=""width:240px; margin: auto;"">
                                <img src=""images/Y_L_S_44.png"" style= ""width:200px""alt=""img"">
                            </div>
                        </div>","99","","0","images/Y_L_S_44.png","","","","disturbing","1","44","Y","L","S","",""
"","","","","","html-slider-response","146","584580","0.0-138.0","r57soqz0pg","3","NaN","<div style=""width:500px;"">
                            <p style=""font-size:50px; font-weight:bold;""
                            >disturbing</p>
                            <div style=""width:240px; margin: auto;"">
                                <img src=""images/R_L_S_10.png"" style= ""width:200px""alt=""img"">
                            </div>
                        </div>","-91","","0","images/R_L_S_10.png","","","","disturbing","2","10","R","L","S","",""
"","","","","","html-slider-response","147","586941","0.0-139.0","r57soqz0pg","3","NaN","<div style=""width:500px;"">
                            <p style=""font-size:50px; font-weight:bold;""
                            >disturbing</p>
                            <div style=""width:240px; margin: auto;"">
                                <img src=""images/Y_L_U_02.png"" style= ""width:200px""alt=""img"">
                            </div>
                        </div>","-75","","0","images/Y_L_U_02.png","","","","disturbing","2","02","Y","L","U","",""
"","","","","","html-slider-response","148","589965","0.0-140.0","r57soqz0pg","3","NaN","<div style=""width:500px;"">
                            <p style=""font-size:50px; font-weight:bold;""
                            >disturbing</p>
                            <div style=""width:240px; margin: auto;"">
                                <img src=""images/B_L_U_33.png"" style= ""width:200px""alt=""img"">
                            </div>
                        </div>","110","","0","images/B_L_U_33.png","","","","disturbing","1","33","B","L","U","",""
"","","","","","html-slider-response","149","592124","0.0-141.0","r57soqz0pg","3","NaN","<div style=""width:500px;"">
                            <p style=""font-size:50px; font-weight:bold;""
                            >disturbing</p>
                            <div style=""width:240px; margin: auto;"">
                                <img src=""images/B_D_U_41.png"" style= ""width:200px""alt=""img"">
                            </div>
                        </div>","131","","0","images/B_D_U_41.png","","","","disturbing","2","41","B","D","U","",""
"","","","","","html-slider-response","150","594015","0.0-142.0","r57soqz0pg","3","NaN","<div style=""width:500px;"">
                            <p style=""font-size:50px; font-weight:bold;""
                            >disturbing</p>
                            <div style=""width:240px; margin: auto;"">
                                <img src=""images/R_L_S_10.png"" style= ""width:200px""alt=""img"">
                            </div>
                        </div>","-93","","0","images/R_L_S_10.png","","","","disturbing","1","10","R","L","S","",""
"","","","","","html-slider-response","151","596352","0.0-143.0","r57soqz0pg","3","NaN","<div style=""width:500px;"">
                            <p style=""font-size:50px; font-weight:bold;""
                            >disturbing</p>
                            <div style=""width:240px; margin: auto;"">
                                <img src=""images/B_L_S_30.png"" style= ""width:200px""alt=""img"">
                            </div>
                        </div>","-72","","0","images/B_L_S_30.png","","","","disturbing","2","30","B","L","S","",""
"","","","","","html-slider-response","152","598502","0.0-144.0","r57soqz0pg","3","NaN","<div style=""width:500px;"">
                            <p style=""font-size:50px; font-weight:bold;""
                            >disturbing</p>
                            <div style=""width:240px; margin: auto;"">
                                <img src=""images/R_D_U_15.png"" style= ""width:200px""alt=""img"">
                            </div>
                        </div>","114","","0","images/R_D_U_15.png","","","","disturbing","1","15","R","D","U","",""
"","","","","","html-slider-response","153","600176","0.0-145.0","r57soqz0pg","3","NaN","<div style=""width:500px;"">
                            <p style=""font-size:50px; font-weight:bold;""
                            >disturbing</p>
                            <div style=""width:240px; margin: auto;"">
                                <img src=""images/G_D_U_28.png"" style= ""width:200px""alt=""img"">
                            </div>
                        </div>","114","","0","images/G_D_U_28.png","","","","disturbing","2","28","G","D","U","",""
"","","","","","html-slider-response","154","601849","0.0-146.0","r57soqz0pg","3","NaN","<div style=""width:500px;"">
                            <p style=""font-size:50px; font-weight:bold;""
                            >disturbing</p>
                            <div style=""width:240px; margin: auto;"">
                                <img src=""images/R_D_U_15.png"" style= ""width:200px""alt=""img"">
                            </div>
                        </div>","114","","0","images/R_D_U_15.png","","","","disturbing","2","15","R","D","U","",""
"","","","","","html-slider-response","155","604121","0.0-147.0","r57soqz0pg","3","NaN","<div style=""width:500px;"">
                            <p style=""font-size:50px; font-weight:bold;""
                            >disturbing</p>
                            <div style=""width:240px; margin: auto;"">
                                <img src=""images/G_L_S_23.png"" style= ""width:200px""alt=""img"">
                            </div>
                        </div>","119","","0","images/G_L_S_23.png","","","","disturbing","2","23","G","L","S","",""
"","","","","","html-button-response","156","606123","0.0-148.0","r57soqz0pg","3","1500","<p>Great Job! You've finished block 4.<br></br> You have 4 block(s) left to go.<br></br></p>","0","","","","","","","","","","","","","",""
"","","","","","html-button-response","157","607102","0.0-149.0","r57soqz0pg","3","978","<p>In this block of trials, you will be asked to rate how much you associate each map with:</p > <p style = 'font-size:150%; font-weight: bold'>serious</p><br></br>","0","","","","","","","","","","","","","",""
"","","","","","html-slider-response","158","608802","0.0-150.0","r57soqz0pg","3","NaN","<div style=""width:500px;"">
                            <p style=""font-size:50px; font-weight:bold;""
                            >serious</p>
                            <div style=""width:240px; margin: auto;"">
                                <img src=""images/B_D_U_41.png"" style= ""width:200px""alt=""img"">
                            </div>
                        </div>","108","","0","images/B_D_U_41.png","","","","serious","2","41","B","D","U","",""
"","","","","","html-slider-response","159","610921","0.0-151.0","r57soqz0pg","3","NaN","<div style=""width:500px;"">
                            <p style=""font-size:50px; font-weight:bold;""
                            >serious</p>
                            <div style=""width:240px; margin: auto;"">
                                <img src=""images/R_D_S_13.png"" style= ""width:200px""alt=""img"">
                            </div>
                        </div>","128","","0","images/R_D_S_13.png","","","","serious","2","13","R","D","S","",""
"","","","","","html-slider-response","160","613683","0.0-152.0","r57soqz0pg","3","NaN","<div style=""width:500px;"">
                            <p style=""font-size:50px; font-weight:bold;""
                            >serious</p>
                            <div style=""width:240px; margin: auto;"">
                                <img src=""images/B_L_S_30.png"" style= ""width:200px""alt=""img"">
                            </div>
                        </div>","56","","0","images/B_L_S_30.png","","","","serious","2","30","B","L","S","",""
"","","","","","html-slider-response","161","615667","0.0-153.0","r57soqz0pg","3","NaN","<div style=""width:500px;"">
                            <p style=""font-size:50px; font-weight:bold;""
                            >serious</p>
                            <div style=""width:240px; margin: auto;"">
                                <img src=""images/Y_D_S_05.png"" style= ""width:200px""alt=""img"">
                            </div>
                        </div>","154","","0","images/Y_D_S_05.png","","","","serious","2","05","Y","D","S","",""
"","","","","","html-slider-response","162","617898","0.0-154.0","r57soqz0pg","3","NaN","<div style=""width:500px;"">
                            <p style=""font-size:50px; font-weight:bold;""
                            >serious</p>
                            <div style=""width:240px; margin: auto;"">
                                <img src=""images/B_L_U_33.png"" style= ""width:200px""alt=""img"">
                            </div>
                        </div>","164","","0","images/B_L_U_33.png","","","","serious","2","33","B","L","U","",""
"","","","","","html-slider-response","163","619273","0.0-155.0","r57soqz0pg","3","NaN","<div style=""width:500px;"">
                            <p style=""font-size:50px; font-weight:bold;""
                            >serious</p>
                            <div style=""width:240px; margin: auto;"">
                                <img src=""images/G_D_S_27.png"" style= ""width:200px""alt=""img"">
                            </div>
                        </div>","158","","0","images/G_D_S_27.png","","","","serious","2","27","G","D","S","",""
"","","","","","html-slider-response","164","620737","0.0-156.0","r57soqz0pg","3","NaN","<div style=""width:500px;"">
                            <p style=""font-size:50px; font-weight:bold;""
                            >serious</p>
                            <div style=""width:240px; margin: auto;"">
                                <img src=""images/B_L_U_33.png"" style= ""width:200px""alt=""img"">
                            </div>
                        </div>","157","","0","images/B_L_U_33.png","","","","serious","1","33","B","L","U","",""
"","","","","","html-slider-response","165","622208","0.0-157.0","r57soqz0pg","3","NaN","<div style=""width:500px;"">
                            <p style=""font-size:50px; font-weight:bold;""
                            >serious</p>
                            <div style=""width:240px; margin: auto;"">
                                <img src=""images/G_D_U_28.png"" style= ""width:200px""alt=""img"">
                            </div>
                        </div>","157","","0","images/G_D_U_28.png","","","","serious","1","28","G","D","U","",""
"","","","","","html-slider-response","166","624576","0.0-158.0","r57soqz0pg","3","NaN","<div style=""width:500px;"">
                            <p style=""font-size:50px; font-weight:bold;""
                            >serious</p>
                            <div style=""width:240px; margin: auto;"">
                                <img src=""images/Y_D_U_07.png"" style= ""width:200px""alt=""img"">
                            </div>
                        </div>","197","","0","images/Y_D_U_07.png","","","","serious","1","07","Y","D","U","",""
"","","","","","html-slider-response","167","628328","0.0-159.0","r57soqz0pg","3","NaN","<div style=""width:500px;"">
                            <p style=""font-size:50px; font-weight:bold;""
                            >serious</p>
                            <div style=""width:240px; margin: auto;"">
                                <img src=""images/B_L_S_30.png"" style= ""width:200px""alt=""img"">
                            </div>
                        </div>","199","","0","images/B_L_S_30.png","","","","serious","1","30","B","L","S","",""
"","","","","","html-slider-response","168","647857","0.0-160.0","r57soqz0pg","3","NaN","<div style=""width:500px;"">
                            <p style=""font-size:50px; font-weight:bold;""
                            >serious</p>
                            <div style=""width:240px; margin: auto;"">
                                <img src=""images/R_D_S_13.png"" style= ""width:200px""alt=""img"">
                            </div>
                        </div>","-128","","0","images/R_D_S_13.png","","","","serious","1","13","R","D","S","",""
"","","","","","html-slider-response","169","650492","0.0-161.0","r57soqz0pg","3","NaN","<div style=""width:500px;"">
                            <p style=""font-size:50px; font-weight:bold;""
                            >serious</p>
                            <div style=""width:240px; margin: auto;"">
                                <img src=""images/Y_L_U_02.png"" style= ""width:200px""alt=""img"">
                            </div>
                        </div>","-102","","0","images/Y_L_U_02.png","","","","serious","2","02","Y","L","U","",""
"","","","","","html-slider-response","170","653015","0.0-162.0","r57soqz0pg","3","NaN","<div style=""width:500px;"">
                            <p style=""font-size:50px; font-weight:bold;""
                            >serious</p>
                            <div style=""width:240px; margin: auto;"">
                                <img src=""images/R_L_U_12.png"" style= ""width:200px""alt=""img"">
                            </div>
                        </div>","-85","","0","images/R_L_U_12.png","","","","serious","1","12","R","L","U","",""
"","","","","","html-slider-response","171","678821","0.0-163.0","r57soqz0pg","3","NaN","<div style=""width:500px;"">
                            <p style=""font-size:50px; font-weight:bold;""
                            >serious</p>
                            <div style=""width:240px; margin: auto;"">
                                <img src=""images/G_L_S_23.png"" style= ""width:200px""alt=""img"">
                            </div>
                        </div>","90","","0","images/G_L_S_23.png","","","","serious","2","23","G","L","S","",""
"","","","","","html-slider-response","172","680487","0.0-164.0","r57soqz0pg","3","NaN","<div style=""width:500px;"">
                            <p style=""font-size:50px; font-weight:bold;""
                            >serious</p>
                            <div style=""width:240px; margin: auto;"">
                                <img src=""images/Y_D_U_07.png"" style= ""width:200px""alt=""img"">
                            </div>
                        </div>","102","","0","images/Y_D_U_07.png","","","","serious","2","07","Y","D","U","",""
"","","","","","html-slider-response","173","682048","0.0-165.0","r57soqz0pg","3","NaN","<div style=""width:500px;"">
                            <p style=""font-size:50px; font-weight:bold;""
                            >serious</p>
                            <div style=""width:240px; margin: auto;"">
                                <img src=""images/R_L_S_10.png"" style= ""width:200px""alt=""img"">
                            </div>
                        </div>","109","","0","images/R_L_S_10.png","","","","serious","1","10","R","L","S","",""
"","","","","","html-slider-response","174","689422","0.0-166.0","r57soqz0pg","3","NaN","<div style=""width:500px;"">
                            <p style=""font-size:50px; font-weight:bold;""
                            >serious</p>
                            <div style=""width:240px; margin: auto;"">
                                <img src=""images/R_D_U_15.png"" style= ""width:200px""alt=""img"">
                            </div>
                        </div>","106","","0","images/R_D_U_15.png","","","","serious","2","15","R","D","U","",""
"","","","","","html-slider-response","175","697989","0.0-167.0","r57soqz0pg","3","NaN","<div style=""width:500px;"">
                            <p style=""font-size:50px; font-weight:bold;""
                            >serious</p>
                            <div style=""width:240px; margin: auto;"">
                                <img src=""images/G_D_S_27.png"" style= ""width:200px""alt=""img"">
                            </div>
                        </div>","103","","0","images/G_D_S_27.png","","","","serious","1","27","G","D","S","",""
"","","","","","html-slider-response","176","699793","0.0-168.0","r57soqz0pg","3","NaN","<div style=""width:500px;"">
                            <p style=""font-size:50px; font-weight:bold;""
                            >serious</p>
                            <div style=""width:240px; margin: auto;"">
                                <img src=""images/R_D_U_15.png"" style= ""width:200px""alt=""img"">
                            </div>
                        </div>","108","","0","images/R_D_U_15.png","","","","serious","1","15","R","D","U","",""
"","","","","","html-slider-response","177","703755","0.0-169.0","r57soqz0pg","3","NaN","<div style=""width:500px;"">
                            <p style=""font-size:50px; font-weight:bold;""
                            >serious</p>
                            <div style=""width:240px; margin: auto;"">
                                <img src=""images/B_D_S_37.png"" style= ""width:200px""alt=""img"">
                            </div>
                        </div>","200","","0","images/B_D_S_37.png","","","","serious","2","37","B","D","S","",""
"","","","","","html-slider-response","178","706011","0.0-170.0","r57soqz0pg","3","NaN","<div style=""width:500px;"">
                            <p style=""font-size:50px; font-weight:bold;""
                            >serious</p>
                            <div style=""width:240px; margin: auto;"">
                                <img src=""images/R_L_S_10.png"" style= ""width:200px""alt=""img"">
                            </div>
                        </div>","-138","","0","images/R_L_S_10.png","","","","serious","2","10","R","L","S","",""
"","","","","","html-slider-response","179","708380","0.0-171.0","r57soqz0pg","3","NaN","<div style=""width:500px;"">
                            <p style=""font-size:50px; font-weight:bold;""
                            >serious</p>
                            <div style=""width:240px; margin: auto;"">
                                <img src=""images/B_D_U_41.png"" style= ""width:200px""alt=""img"">
                            </div>
                        </div>","146","","0","images/B_D_U_41.png","","","","serious","1","41","B","D","U","",""
"","","","","","html-slider-response","180","711088","0.0-172.0","r57soqz0pg","3","NaN","<div style=""width:500px;"">
                            <p style=""font-size:50px; font-weight:bold;""
                            >serious</p>
                            <div style=""width:240px; margin: auto;"">
                                <img src=""images/Y_L_S_44.png"" style= ""width:200px""alt=""img"">
                            </div>
                        </div>","-66","","0","images/Y_L_S_44.png","","","","serious","2","44","Y","L","S","",""
"","","","","","html-slider-response","181","712898","0.0-173.0","r57soqz0pg","3","NaN","<div style=""width:500px;"">
                            <p style=""font-size:50px; font-weight:bold;""
                            >serious</p>
                            <div style=""width:240px; margin: auto;"">
                                <img src=""images/G_L_U_26.png"" style= ""width:200px""alt=""img"">
                            </div>
                        </div>","-87","","0","images/G_L_U_26.png","","","","serious","1","26","G","L","U","",""
"","","","","","html-slider-response","182","714226","0.0-174.0","r57soqz0pg","3","NaN","<div style=""width:500px;"">
                            <p style=""font-size:50px; font-weight:bold;""
                            >serious</p>
                            <div style=""width:240px; margin: auto;"">
                                <img src=""images/R_L_U_12.png"" style= ""width:200px""alt=""img"">
                            </div>
                        </div>","-86","","0","images/R_L_U_12.png","","","","serious","2","12","R","L","U","",""
"","","","","","html-slider-response","183","716384","0.0-175.0","r57soqz0pg","3","NaN","<div style=""width:500px;"">
                            <p style=""font-size:50px; font-weight:bold;""
                            >serious</p>
                            <div style=""width:240px; margin: auto;"">
                                <img src=""images/G_D_U_28.png"" style= ""width:200px""alt=""img"">
                            </div>
                        </div>","159","","0","images/G_D_U_28.png","","","","serious","2","28","G","D","U","",""
"","","","","","html-slider-response","184","717864","0.0-176.0","r57soqz0pg","3","NaN","<div style=""width:500px;"">
                            <p style=""font-size:50px; font-weight:bold;""
                            >serious</p>
                            <div style=""width:240px; margin: auto;"">
                                <img src=""images/G_L_U_26.png"" style= ""width:200px""alt=""img"">
                            </div>
                        </div>","126","","0","images/G_L_U_26.png","","","","serious","2","26","G","L","U","",""
"","","","","","html-slider-response","185","720451","0.0-177.0","r57soqz0pg","3","NaN","<div style=""width:500px;"">
                            <p style=""font-size:50px; font-weight:bold;""
                            >serious</p>
                            <div style=""width:240px; margin: auto;"">
                                <img src=""images/Y_L_S_44.png"" style= ""width:200px""alt=""img"">
                            </div>
                        </div>","-54","","0","images/Y_L_S_44.png","","","","serious","1","44","Y","L","S","",""
"","","","","","html-slider-response","186","722990","0.0-178.0","r57soqz0pg","3","NaN","<div style=""width:500px;"">
