"success","timeout","failed_images","failed_audio","failed_video","trial_type","trial_index","time_elapsed","internal_node_id","subject_id","condition_num","rt","stimulus","response","question_order","slider_start","image_path","practiceTrial","practiceTrialNum","correct","concept","repetition","map_id","hue","lightness","saturation","ishihara_plate","correct_response"
"true","false","[]","[]","[]","preload","0","260","0.0-0.0","t7kqyf5qg1","6","","","","","","","","","","","","","","","","",""
"","","","","","html-button-response","1","5866","0.0-1.0","t7kqyf5qg1","6","5605","Welcome to our experiment!<p>At the bottom of this screen, you will see a button that says ""Begin Experiment"".<br>Please only click that button when you are ready to complete the 25 minute experiment in one sitting.</p><p> Once you click that button, it will not be possible to restart the experiment.","0","","","","","","","","","","","","","",""
"true","","","","","fullscreen","2","8311","0.0-2.0","t7kqyf5qg1","6","1442","","","","","","","","","","","","","","","",""
"","","","","","survey-multi-select","3","21011","0.0-3.0","t7kqyf5qg1","6","12698","","{""Consent"":[""<strong>I consent</strong>""]}","[0]","","","","","","","","","","","","",""
"","","","","","html-button-response","4","22058","0.0-4.0","t7kqyf5qg1","6","1042","Welcome! <p> This experiment involves two parts: demographic information, followed by the experimental task.<p> It will take about 25 minutes to complete both parts.","0","","","","","","","","","","","","","",""
"","","","","","survey-text","5","30565","0.0-5.0","t7kqyf5qg1","6","8499","","{""Age"":""18"",""Gender"":""Male"",""Race/ethnicity"":""White"",""Languages"":""English""}","","","","","","","","","","","","","",""
"","","","","","html-slider-response","6","56739","0.0-6.0","t7kqyf5qg1","6","26172","
                            <div style='text-align:left; font-size:20px; line-height:25px; width: 1400px;'>
                                During this experiment you will be asked to rate how much you associate maps with                    different concepts.<br> Below, you can see some examples of the maps you will be asked to rate. Next to the maps
                    is the list of concepts.<br>You will be asked                    to rate how much you associate each map with each concept on a scale from 'not at all' to 'very much' like the
                    one below. <br><br>
                    Now, please look at the list of concepts and maps. For each concept, think about the map you associate 'very
                    much' with the concept.<br>                     When you see that map during the experiment, please rate it near the 'very much' endpoint of the
                    scale.<br>Now, please think about which map you associate 'not at all'                     with each concept. When you see that map during the experiment, please rate it near the 'not at all' endpoint
                    of the scale.<br>
                    Please use the full range of the scale. That is, if a map is somewhat associated with the concept, you would
                    click partway between the middle point and right side of the scale.                    You will be asked to rate each map for a given concept before moving on to the next concept.<br><br>Press the
                    'Continue' button for instructions on how to use the slider.                    <br><br>
                </div>

                <div style=""width: 500px; margin: 0 auto;"">
                    <!-- Centered text paragraphs -->
                    <div style=""text-align: center; width: 500px;"">
                        <p style=""font-size:25px; line-height:18px;"">calm</p>
                        <p style=""font-size:25px; line-height:18px;"">exciting</p>
                        <p style=""font-size:25px;line-height:18px;"">positive</p>
                        <p style=""font-size:25px;line-height:18px;"">negative</p>
                        <p style=""font-size:25px;line-height:18px;"">serious</p>
                        <p style=""font-size:25px;line-height:18px;"">playful</p>
                        <p style=""font-size:25px;line-height:18px;"">trustworthy</p>
                        <p style=""font-size:25px;line-height:18px;"">disturbing</p>
                    </div>

                    <!-- Grid section -->
                   <div style=""display: flex; justify-content: center; padding-top: 15px;"">
                    <div style=""display: grid; grid-template-columns: repeat(8, 80px); grid-gap: 5px; width: auto;"">
                        <img src=""images/B_D_U_05.png"" alt=""map"" style=""width: 100%;""><img src=""images/G_D_U_37.png"" alt=""map"" style=""width: 100%;""><img src=""images/R_D_U_27.png"" alt=""map"" style=""width: 100%;""><img src=""images/R_D_S_26.png"" alt=""map"" style=""width: 100%;""><img src=""images/B_D_S_02.png"" alt=""map"" style=""width: 100%;""><img src=""images/Y_L_U_10.png"" alt=""map"" style=""width: 100%;""><img src=""images/G_D_S_33.png"" alt=""map"" style=""width: 100%;""><img src=""images/R_L_U_23.png"" alt=""map"" style=""width: 100%;""><img src=""images/Y_D_S_12.png"" alt=""map"" style=""width: 100%;""><img src=""images/G_L_S_28.png"" alt=""map"" style=""width: 100%;""><img src=""images/B_L_U_44.png"" alt=""map"" style=""width: 100%;""><img src=""images/Y_L_S_07.png"" alt=""map"" style=""width: 100%;""><img src=""images/G_L_U_30.png"" alt=""map"" style=""width: 100%;""><img src=""images/B_L_S_41.png"" alt=""map"" style=""width: 100%;""><img src=""images/Y_D_U_13.png"" alt=""map"" style=""width: 100%;""><img src=""images/R_L_S_15.png"" alt=""map"" style=""width: 100%;"">
                    </div>
                </div>

                    <!-- Clear floats -->
                    <div style=""clear: both;""></div>
                </div>
                            ","null","","0","maps_anchoring.png","true","","","","","","","","","",""
"","","","","","html-button-response","7","59167","0.0-7.0","t7kqyf5qg1","6","2426","<div style=""width:800px;""><p style=""text-align:left"">To move the slider, click and drag your cursor to the location of the scale where you would like to make your rating and then let go. When you let go of the slider, your response will be recorded and the next trial will begin. <br>
                    We are interested in your initial impressions of each map for the given concept, so please go with your first intuition. <br>
                    Before you begin the experiment, there will be four training trials for you to practice using the scale. <br>
                     When you are ready to start the training trials, please click ""Continue"".</p><br></div>","0","","","","","","","","","","","","","",""
"","","","","","html-slider-response","8","61393","0.0-8.0-0.0","t7kqyf5qg1","6","NaN","<div style=""width:500px;"">
                                    <p style=""font-size:25px;"">Please move the slider all the way to the <br> right endpoint of the scale</p>

                                    </div>
                                </div>","200","","0","","true","0","true","","","","","","","",""
"","","","","","html-button-response","9","62851","0.0-8.0-1.0","t7kqyf5qg1","6","954","<p align='center'><b>Good job!</b> Click on 'Continue' to proceed.</p>","0","","","","","","","","","","","","","",""
"","","","","","html-slider-response","10","64379","0.0-9.0-0.0","t7kqyf5qg1","6","NaN","<div style=""width:500px;"">
                                    <p style=""font-size:25px;"">Please move the slider all the way to the <br> left endpoint of the scale</p>

                                    </div>
                                </div>","-200","","0","","true","1","true","","","","","","","",""
"","","","","","html-button-response","11","65959","0.0-9.0-1.0","t7kqyf5qg1","6","1077","<p align='center'><b>Good job!</b> Click on 'Continue' to proceed.</p>","0","","","","","","","","","","","","","",""
"","","","","","html-slider-response","12","68438","0.0-10.0-0.0","t7kqyf5qg1","6","NaN","<div style=""width:500px;"">
                                    <p style=""font-size:25px;"">Please move the slider halfway between the center and right endpoint of the scale</p>

                                    </div>
                                </div>","3","","0","","true","2","false","","","","","","","",""
"","","","","","html-button-response","13","69896","0.0-10.0-1.0","t7kqyf5qg1","6","954","<p align='center'><b>Not quite!</b> The slider was not placed near the instructed located. Click on 'Continue' to try again. </p>","0","","","","","","","","","","","","","",""
"","","","","","html-slider-response","14","70986","0.0-10.1-0.1","t7kqyf5qg1","6","NaN","<div style=""width:500px;"">
                                    <p style=""font-size:25px;"">Please move the slider halfway between the center and right endpoint of the scale</p>

                                    </div>
                                </div>","2","","0","","true","2","false","","","","","","","",""
"","","","","","html-button-response","15","72160","0.0-10.1-1.1","t7kqyf5qg1","6","672","<p align='center'><b>Not quite!</b> The slider was not placed near the instructed located. Click on 'Continue' to try again. </p>","0","","","","","","","","","","","","","",""
"","","","","","html-slider-response","16","76024","0.0-10.2-0.2","t7kqyf5qg1","6","NaN","<div style=""width:500px;"">
                                    <p style=""font-size:25px;"">Please move the slider halfway between the center and right endpoint of the scale</p>

                                    </div>
                                </div>","96","","0","","true","2","true","","","","","","","",""
"","","","","","html-button-response","17","77898","0.0-10.2-1.2","t7kqyf5qg1","6","1371","<p align='center'><b>Good job!</b> Click on 'Continue' to proceed.</p>","0","","","","","","","","","","","","","",""
"","","","","","html-slider-response","18","80619","0.0-11.0-0.0","t7kqyf5qg1","6","NaN","<div style=""width:500px;"">
                                    <p style=""font-size:25px;"">Please move the slider halfway between the center and left endpoint of the scale</p>

                                    </div>
                                </div>","-112","","0","","true","3","false","","","","","","","",""
"","","","","","html-button-response","19","82094","0.0-11.0-1.0","t7kqyf5qg1","6","972","<p align='center'><b>Not quite!</b> The slider was not placed near the instructed located. Click on 'Continue' to try again. </p>","0","","","","","","","","","","","","","",""
"","","","","","html-slider-response","20","87413","0.0-11.1-0.1","t7kqyf5qg1","6","NaN","<div style=""width:500px;"">
                                    <p style=""font-size:25px;"">Please move the slider halfway between the center and left endpoint of the scale</p>

                                    </div>
                                </div>","-111","","0","","true","3","false","","","","","","","",""
"","","","","","html-button-response","21","89520","0.0-11.1-1.1","t7kqyf5qg1","6","1604","<p align='center'><b>Not quite!</b> The slider was not placed near the instructed located. Click on 'Continue' to try again. </p>","0","","","","","","","","","","","","","",""
"","","","","","html-slider-response","22","91658","0.0-11.2-0.2","t7kqyf5qg1","6","NaN","<div style=""width:500px;"">
                                    <p style=""font-size:25px;"">Please move the slider halfway between the center and left endpoint of the scale</p>

                                    </div>
                                </div>","-117","","0","","true","3","false","","","","","","","",""
"","","","","","html-button-response","23","93303","0.0-11.2-1.2","t7kqyf5qg1","6","1142","<p align='center'><b>Not quite!</b> The slider was not placed near the instructed located. Click on 'Continue' to try again. </p>","0","","","","","","","","","","","","","",""
"","","","","","html-slider-response","24","101000","0.0-11.3-0.3","t7kqyf5qg1","6","NaN","<div style=""width:500px;"">
                                    <p style=""font-size:25px;"">Please move the slider halfway between the center and left endpoint of the scale</p>

                                    </div>
                                </div>","-114","","0","","true","3","false","","","","","","","",""
"","","","","","html-button-response","25","102619","0.0-11.3-1.3","t7kqyf5qg1","6","1116","<p align='center'><b>Not quite!</b> The slider was not placed near the instructed located. Click on 'Continue' to try again. </p>","0","","","","","","","","","","","","","",""
"","","","","","html-slider-response","26","105528","0.0-11.4-0.4","t7kqyf5qg1","6","NaN","<div style=""width:500px;"">
                                    <p style=""font-size:25px;"">Please move the slider halfway between the center and left endpoint of the scale</p>

                                    </div>
                                </div>","-112","","0","","true","3","false","","","","","","","",""
"","","","","","html-button-response","27","106540","0.0-11.4-1.4","t7kqyf5qg1","6","510","<p align='center'><b>Not quite!</b> The slider was not placed near the instructed located. Click on 'Continue' to try again. </p>","0","","","","","","","","","","","","","",""
"","","","","","html-slider-response","28","109650","0.0-11.5-0.5","t7kqyf5qg1","6","NaN","<div style=""width:500px;"">
                                    <p style=""font-size:25px;"">Please move the slider halfway between the center and left endpoint of the scale</p>

                                    </div>
                                </div>","-116","","0","","true","3","false","","","","","","","",""
"","","","","","html-button-response","29","111207","0.0-11.5-1.5","t7kqyf5qg1","6","1054","<p align='center'><b>Not quite!</b> The slider was not placed near the instructed located. Click on 'Continue' to try again. </p>","0","","","","","","","","","","","","","",""
"","","","","","html-slider-response","30","114042","0.0-11.6-0.6","t7kqyf5qg1","6","NaN","<div style=""width:500px;"">
                                    <p style=""font-size:25px;"">Please move the slider halfway between the center and left endpoint of the scale</p>

                                    </div>
                                </div>","1","","0","","true","3","false","","","","","","","",""
"","","","","","html-button-response","31","115841","0.0-11.6-1.6","t7kqyf5qg1","6","1296","<p align='center'><b>Not quite!</b> The slider was not placed near the instructed located. Click on 'Continue' to try again. </p>","0","","","","","","","","","","","","","",""
"","","","","","html-slider-response","32","122840","0.0-11.7-0.7","t7kqyf5qg1","6","NaN","<div style=""width:500px;"">
                                    <p style=""font-size:25px;"">Please move the slider halfway between the center and left endpoint of the scale</p>

                                    </div>
                                </div>","-110","","0","","true","3","true","","","","","","","",""
"","","","","","html-button-response","33","125085","0.0-11.7-1.7","t7kqyf5qg1","6","1742","<p align='center'><b>Good job!</b> Click on 'Continue' to proceed.</p>","0","","","","","","","","","","","","","",""
"","","","","","html-button-response","34","126676","0.0-12.0","t7kqyf5qg1","6","1589","<p>Great job! You've completed the practice trials. Now you will begin the main task.</p>","0","","","","","","","","","","","","","",""
"","","","","","html-button-response","35","130791","0.0-13.0","t7kqyf5qg1","6","4114","<p>In this block of trials, you will be asked to rate how much you associate each map with:</p > <p style = 'font-size:150%; font-weight: bold'>playful</p><br></br>","0","","","","","","","","","","","","","",""
"","","","","","html-slider-response","36","133563","0.0-14.0","t7kqyf5qg1","6","NaN","<div style=""width:500px;"">
                            <p style=""font-size:50px; font-weight:bold;""
                            >playful</p>
                            <div style=""width:240px; margin: auto;"">
                                <img src=""images/G_D_U_37.png"" style= ""width:200px""alt=""img"">
                            </div>
                        </div>","-200","","0","images/G_D_U_37.png","","","","playful","2","37","G","D","U","",""
"","","","","","html-slider-response","37","135914","0.0-15.0","t7kqyf5qg1","6","NaN","<div style=""width:500px;"">
                            <p style=""font-size:50px; font-weight:bold;""
                            >playful</p>
                            <div style=""width:240px; margin: auto;"">
                                <img src=""images/B_D_U_05.png"" style= ""width:200px""alt=""img"">
                            </div>
                        </div>","-2","","0","images/B_D_U_05.png","","","","playful","1","05","B","D","U","",""
"","","","","","html-slider-response","38","137651","0.0-16.0","t7kqyf5qg1","6","NaN","<div style=""width:500px;"">
                            <p style=""font-size:50px; font-weight:bold;""
                            >playful</p>
                            <div style=""width:240px; margin: auto;"">
                                <img src=""images/B_L_U_44.png"" style= ""width:200px""alt=""img"">
                            </div>
                        </div>","200","","0","images/B_L_U_44.png","","","","playful","1","44","B","L","U","",""
"","","","","","html-slider-response","39","139834","0.0-17.0","t7kqyf5qg1","6","NaN","<div style=""width:500px;"">
                            <p style=""font-size:50px; font-weight:bold;""
                            >playful</p>
                            <div style=""width:240px; margin: auto;"">
                                <img src=""images/G_L_U_30.png"" style= ""width:200px""alt=""img"">
                            </div>
                        </div>","200","","0","images/G_L_U_30.png","","","","playful","1","30","G","L","U","",""
"","","","","","html-slider-response","40","141985","0.0-18.0","t7kqyf5qg1","6","NaN","<div style=""width:500px;"">
                            <p style=""font-size:50px; font-weight:bold;""
                            >playful</p>
                            <div style=""width:240px; margin: auto;"">
                                <img src=""images/G_D_S_33.png"" style= ""width:200px""alt=""img"">
                            </div>
                        </div>","-200","","0","images/G_D_S_33.png","","","","playful","2","33","G","D","S","",""
"","","","","","html-slider-response","41","143901","0.0-19.0","t7kqyf5qg1","6","NaN","<div style=""width:500px;"">
                            <p style=""font-size:50px; font-weight:bold;""
                            >playful</p>
                            <div style=""width:240px; margin: auto;"">
                                <img src=""images/Y_D_S_12.png"" style= ""width:200px""alt=""img"">
                            </div>
                        </div>","-200","","0","images/Y_D_S_12.png","","","","playful","2","12","Y","D","S","",""
"","","","","","html-slider-response","42","146125","0.0-20.0","t7kqyf5qg1","6","NaN","<div style=""width:500px;"">
                            <p style=""font-size:50px; font-weight:bold;""
                            >playful</p>
                            <div style=""width:240px; margin: auto;"">
                                <img src=""images/G_L_S_28.png"" style= ""width:200px""alt=""img"">
                            </div>
                        </div>","25","","0","images/G_L_S_28.png","","","","playful","1","28","G","L","S","",""
"","","","","","html-slider-response","43","147918","0.0-21.0","t7kqyf5qg1","6","NaN","<div style=""width:500px;"">
                            <p style=""font-size:50px; font-weight:bold;""
                            >playful</p>
                            <div style=""width:240px; margin: auto;"">
                                <img src=""images/Y_L_U_10.png"" style= ""width:200px""alt=""img"">
                            </div>
                        </div>","-11","","0","images/Y_L_U_10.png","","","","playful","1","10","Y","L","U","",""
"","","","","","html-slider-response","44","149932","0.0-22.0","t7kqyf5qg1","6","NaN","<div style=""width:500px;"">
                            <p style=""font-size:50px; font-weight:bold;""
                            >playful</p>
                            <div style=""width:240px; margin: auto;"">
                                <img src=""images/B_L_S_41.png"" style= ""width:200px""alt=""img"">
                            </div>
                        </div>","144","","0","images/B_L_S_41.png","","","","playful","1","41","B","L","S","",""
"","","","","","html-slider-response","45","152066","0.0-23.0","t7kqyf5qg1","6","NaN","<div style=""width:500px;"">
                            <p style=""font-size:50px; font-weight:bold;""
                            >playful</p>
                            <div style=""width:240px; margin: auto;"">
                                <img src=""images/Y_D_U_13.png"" style= ""width:200px""alt=""img"">
                            </div>
                        </div>","-200","","0","images/Y_D_U_13.png","","","","playful","2","13","Y","D","U","",""
"","","","","","html-slider-response","46","154567","0.0-24.0","t7kqyf5qg1","6","NaN","<div style=""width:500px;"">
                            <p style=""font-size:50px; font-weight:bold;""
                            >playful</p>
                            <div style=""width:240px; margin: auto;"">
                                <img src=""images/Y_L_S_07.png"" style= ""width:200px""alt=""img"">
                            </div>
                        </div>","-114","","0","images/Y_L_S_07.png","","","","playful","2","07","Y","L","S","",""
"","","","","","html-slider-response","47","156492","0.0-25.0","t7kqyf5qg1","6","NaN","<div style=""width:500px;"">
                            <p style=""font-size:50px; font-weight:bold;""
                            >playful</p>
                            <div style=""width:240px; margin: auto;"">
                                <img src=""images/R_L_S_15.png"" style= ""width:200px""alt=""img"">
                            </div>
                        </div>","200","","0","images/R_L_S_15.png","","","","playful","1","15","R","L","S","",""
"","","","","","html-slider-response","48","158299","0.0-26.0","t7kqyf5qg1","6","NaN","<div style=""width:500px;"">
                            <p style=""font-size:50px; font-weight:bold;""
                            >playful</p>
                            <div style=""width:240px; margin: auto;"">
                                <img src=""images/R_D_S_26.png"" style= ""width:200px""alt=""img"">
                            </div>
                        </div>","200","","0","images/R_D_S_26.png","","","","playful","1","26","R","D","S","",""
"","","","","","html-slider-response","49","160822","0.0-27.0","t7kqyf5qg1","6","NaN","<div style=""width:500px;"">
                            <p style=""font-size:50px; font-weight:bold;""
                            >playful</p>
                            <div style=""width:240px; margin: auto;"">
                                <img src=""images/R_D_U_27.png"" style= ""width:200px""alt=""img"">
                            </div>
                        </div>","71","","0","images/R_D_U_27.png","","","","playful","1","27","R","D","U","",""
"","","","","","html-slider-response","50","162786","0.0-28.0","t7kqyf5qg1","6","NaN","<div style=""width:500px;"">
                            <p style=""font-size:50px; font-weight:bold;""
                            >playful</p>
                            <div style=""width:240px; margin: auto;"">
                                <img src=""images/G_L_S_28.png"" style= ""width:200px""alt=""img"">
                            </div>
                        </div>","200","","0","images/G_L_S_28.png","","","","playful","2","28","G","L","S","",""
"","","","","","html-slider-response","51","165141","0.0-29.0","t7kqyf5qg1","6","NaN","<div style=""width:500px;"">
                            <p style=""font-size:50px; font-weight:bold;""
                            >playful</p>
                            <div style=""width:240px; margin: auto;"">
                                <img src=""images/Y_L_U_10.png"" style= ""width:200px""alt=""img"">
                            </div>
                        </div>","-12","","0","images/Y_L_U_10.png","","","","playful","2","10","Y","L","U","",""
"","","","","","html-slider-response","52","166918","0.0-30.0","t7kqyf5qg1","6","NaN","<div style=""width:500px;"">
                            <p style=""font-size:50px; font-weight:bold;""
                            >playful</p>
                            <div style=""width:240px; margin: auto;"">
                                <img src=""images/G_D_S_33.png"" style= ""width:200px""alt=""img"">
                            </div>
                        </div>","-77","","0","images/G_D_S_33.png","","","","playful","1","33","G","D","S","",""
"","","","","","html-slider-response","53","169539","0.0-31.0","t7kqyf5qg1","6","NaN","<div style=""width:500px;"">
                            <p style=""font-size:50px; font-weight:bold;""
                            >playful</p>
                            <div style=""width:240px; margin: auto;"">
                                <img src=""images/B_D_U_05.png"" style= ""width:200px""alt=""img"">
                            </div>
                        </div>","-90","","0","images/B_D_U_05.png","","","","playful","2","05","B","D","U","",""
"","","","","","html-slider-response","54","171164","0.0-32.0","t7kqyf5qg1","6","NaN","<div style=""width:500px;"">
                            <p style=""font-size:50px; font-weight:bold;""
                            >playful</p>
                            <div style=""width:240px; margin: auto;"">
                                <img src=""images/R_L_S_15.png"" style= ""width:200px""alt=""img"">
                            </div>
                        </div>","200","","0","images/R_L_S_15.png","","","","playful","2","15","R","L","S","",""
"","","","","","html-slider-response","55","173080","0.0-33.0","t7kqyf5qg1","6","NaN","<div style=""width:500px;"">
                            <p style=""font-size:50px; font-weight:bold;""
                            >playful</p>
                            <div style=""width:240px; margin: auto;"">
                                <img src=""images/B_D_S_02.png"" style= ""width:200px""alt=""img"">
                            </div>
                        </div>","200","","0","images/B_D_S_02.png","","","","playful","2","02","B","D","S","",""
"","","","","","html-slider-response","56","175481","0.0-34.0","t7kqyf5qg1","6","NaN","<div style=""width:500px;"">
                            <p style=""font-size:50px; font-weight:bold;""
                            >playful</p>
                            <div style=""width:240px; margin: auto;"">
                                <img src=""images/G_L_U_30.png"" style= ""width:200px""alt=""img"">
                            </div>
                        </div>","-109","","0","images/G_L_U_30.png","","","","playful","2","30","G","L","U","",""
"","","","","","html-slider-response","57","177446","0.0-35.0","t7kqyf5qg1","6","NaN","<div style=""width:500px;"">
                            <p style=""font-size:50px; font-weight:bold;""
                            >playful</p>
                            <div style=""width:240px; margin: auto;"">
                                <img src=""images/B_L_U_44.png"" style= ""width:200px""alt=""img"">
                            </div>
                        </div>","200","","0","images/B_L_U_44.png","","","","playful","2","44","B","L","U","",""
"","","","","","html-slider-response","58","179710","0.0-36.0","t7kqyf5qg1","6","NaN","<div style=""width:500px;"">
                            <p style=""font-size:50px; font-weight:bold;""
                            >playful</p>
                            <div style=""width:240px; margin: auto;"">
                                <img src=""images/Y_L_S_07.png"" style= ""width:200px""alt=""img"">
                            </div>
                        </div>","112","","0","images/Y_L_S_07.png","","","","playful","1","07","Y","L","S","",""
"","","","","","html-slider-response","59","181812","0.0-37.0","t7kqyf5qg1","6","NaN","<div style=""width:500px;"">
                            <p style=""font-size:50px; font-weight:bold;""
                            >playful</p>
                            <div style=""width:240px; margin: auto;"">
                                <img src=""images/B_D_S_02.png"" style= ""width:200px""alt=""img"">
                            </div>
                        </div>","103","","0","images/B_D_S_02.png","","","","playful","1","02","B","D","S","",""
"","","","","","html-slider-response","60","184205","0.0-38.0","t7kqyf5qg1","6","NaN","<div style=""width:500px;"">
                            <p style=""font-size:50px; font-weight:bold;""
                            >playful</p>
                            <div style=""width:240px; margin: auto;"">
                                <img src=""images/R_L_U_23.png"" style= ""width:200px""alt=""img"">
                            </div>
                        </div>","123","","0","images/R_L_U_23.png","","","","playful","2","23","R","L","U","",""
"","","","","","html-slider-response","61","185959","0.0-39.0","t7kqyf5qg1","6","NaN","<div style=""width:500px;"">
                            <p style=""font-size:50px; font-weight:bold;""
                            >playful</p>
                            <div style=""width:240px; margin: auto;"">
                                <img src=""images/Y_D_S_12.png"" style= ""width:200px""alt=""img"">
                            </div>
                        </div>","-200","","0","images/Y_D_S_12.png","","","","playful","1","12","Y","D","S","",""
"","","","","","html-slider-response","62","187762","0.0-40.0","t7kqyf5qg1","6","NaN","<div style=""width:500px;"">
                            <p style=""font-size:50px; font-weight:bold;""
                            >playful</p>
                            <div style=""width:240px; margin: auto;"">
                                <img src=""images/G_D_U_37.png"" style= ""width:200px""alt=""img"">
                            </div>
                        </div>","-198","","0","images/G_D_U_37.png","","","","playful","1","37","G","D","U","",""
"","","","","","html-slider-response","63","189822","0.0-41.0","t7kqyf5qg1","6","NaN","<div style=""width:500px;"">
                            <p style=""font-size:50px; font-weight:bold;""
                            >playful</p>
                            <div style=""width:240px; margin: auto;"">
                                <img src=""images/R_L_U_23.png"" style= ""width:200px""alt=""img"">
                            </div>
                        </div>","90","","0","images/R_L_U_23.png","","","","playful","1","23","R","L","U","",""
"","","","","","html-slider-response","64","191793","0.0-42.0","t7kqyf5qg1","6","NaN","<div style=""width:500px;"">
                            <p style=""font-size:50px; font-weight:bold;""
                            >playful</p>
                            <div style=""width:240px; margin: auto;"">
                                <img src=""images/Y_D_U_13.png"" style= ""width:200px""alt=""img"">
                            </div>
                        </div>","-200","","0","images/Y_D_U_13.png","","","","playful","1","13","Y","D","U","",""
"","","","","","html-slider-response","65","193695","0.0-43.0","t7kqyf5qg1","6","NaN","<div style=""width:500px;"">
                            <p style=""font-size:50px; font-weight:bold;""
                            >playful</p>
                            <div style=""width:240px; margin: auto;"">
                                <img src=""images/R_D_U_27.png"" style= ""width:200px""alt=""img"">
                            </div>
                        </div>","-138","","0","images/R_D_U_27.png","","","","playful","2","27","R","D","U","",""
"","","","","","html-slider-response","66","195753","0.0-44.0","t7kqyf5qg1","6","NaN","<div style=""width:500px;"">
                            <p style=""font-size:50px; font-weight:bold;""
                            >playful</p>
                            <div style=""width:240px; margin: auto;"">
                                <img src=""images/R_D_S_26.png"" style= ""width:200px""alt=""img"">
                            </div>
                        </div>","61","","0","images/R_D_S_26.png","","","","playful","2","26","R","D","S","",""
"","","","","","html-slider-response","67","197402","0.0-45.0","t7kqyf5qg1","6","NaN","<div style=""width:500px;"">
                            <p style=""font-size:50px; font-weight:bold;""
                            >playful</p>
                            <div style=""width:240px; margin: auto;"">
                                <img src=""images/B_L_S_41.png"" style= ""width:200px""alt=""img"">
                            </div>
                        </div>","200","","0","images/B_L_S_41.png","","","","playful","2","41","B","L","S","",""
"","","","","","html-button-response","68","199818","0.0-46.0","t7kqyf5qg1","6","1912","<p>Great Job! You've finished block 1.<br></br> You have 7 block(s) left to go.<br></br></p>","0","","","","","","","","","","","","","",""
"","","","","","html-button-response","69","201074","0.0-47.0","t7kqyf5qg1","6","1255","<p>In this block of trials, you will be asked to rate how much you associate each map with:</p > <p style = 'font-size:150%; font-weight: bold'>trustworthy</p><br></br>","0","","","","","","","","","","","","","",""
"","","","","","html-slider-response","70","203382","0.0-48.0","t7kqyf5qg1","6","NaN","<div style=""width:500px;"">
                            <p style=""font-size:50px; font-weight:bold;""
                            >trustworthy</p>
                            <div style=""width:240px; margin: auto;"">
                                <img src=""images/Y_D_S_12.png"" style= ""width:200px""alt=""img"">
                            </div>
                        </div>","-200","","0","images/Y_D_S_12.png","","","","trustworthy","2","12","Y","D","S","",""
"","","","","","html-slider-response","71","206458","0.0-49.0","t7kqyf5qg1","6","NaN","<div style=""width:500px;"">
                            <p style=""font-size:50px; font-weight:bold;""
                            >trustworthy</p>
                            <div style=""width:240px; margin: auto;"">
                                <img src=""images/R_D_S_26.png"" style= ""width:200px""alt=""img"">
                            </div>
                        </div>","72","","0","images/R_D_S_26.png","","","","trustworthy","2","26","R","D","S","",""
"","","","","","html-slider-response","72","231502","0.0-50.0","t7kqyf5qg1","6","NaN","<div style=""width:500px;"">
                            <p style=""font-size:50px; font-weight:bold;""
                            >trustworthy</p>
                            <div style=""width:240px; margin: auto;"">
                                <img src=""images/G_L_U_30.png"" style= ""width:200px""alt=""img"">
                            </div>
                        </div>","-1","","0","images/G_L_U_30.png","","","","trustworthy","1","30","G","L","U","",""
"","","","","","html-slider-response","73","240743","0.0-51.0","t7kqyf5qg1","6","NaN","<div style=""width:500px;"">
                            <p style=""font-size:50px; font-weight:bold;""
                            >trustworthy</p>
                            <div style=""width:240px; margin: auto;"">
                                <img src=""images/R_D_S_26.png"" style= ""width:200px""alt=""img"">
                            </div>
                        </div>","-52","","0","images/R_D_S_26.png","","","","trustworthy","1","26","R","D","S","",""
"","","","","","html-slider-response","74","244387","0.0-52.0","t7kqyf5qg1","6","NaN","<div style=""width:500px;"">
                            <p style=""font-size:50px; font-weight:bold;""
                            >trustworthy</p>
                            <div style=""width:240px; margin: auto;"">
                                <img src=""images/G_L_S_28.png"" style= ""width:200px""alt=""img"">
                            </div>
                        </div>","2","","0","images/G_L_S_28.png","","","","trustworthy","1","28","G","L","S","",""
"","","","","","html-slider-response","75","246077","0.0-53.0","t7kqyf5qg1","6","NaN","<div style=""width:500px;"">
                            <p style=""font-size:50px; font-weight:bold;""
                            >trustworthy</p>
                            <div style=""width:240px; margin: auto;"">
                                <img src=""images/G_D_S_33.png"" style= ""width:200px""alt=""img"">
                            </div>
                        </div>","-82","","0","images/G_D_S_33.png","","","","trustworthy","2","33","G","D","S","",""
"","","","","","html-slider-response","76","248274","0.0-54.0","t7kqyf5qg1","6","NaN","<div style=""width:500px;"">
                            <p style=""font-size:50px; font-weight:bold;""
                            >trustworthy</p>
                            <div style=""width:240px; margin: auto;"">
                                <img src=""images/G_D_U_37.png"" style= ""width:200px""alt=""img"">
                            </div>
                        </div>","-86","","0","images/G_D_U_37.png","","","","trustworthy","2","37","G","D","U","",""
"","","","","","html-slider-response","77","250094","0.0-55.0","t7kqyf5qg1","6","NaN","<div style=""width:500px;"">
                            <p style=""font-size:50px; font-weight:bold;""
                            >trustworthy</p>
                            <div style=""width:240px; margin: auto;"">
                                <img src=""images/Y_D_S_12.png"" style= ""width:200px""alt=""img"">
                            </div>
                        </div>","-57","","0","images/Y_D_S_12.png","","","","trustworthy","1","12","Y","D","S","",""
"","","","","","html-slider-response","78","251692","0.0-56.0","t7kqyf5qg1","6","NaN","<div style=""width:500px;"">
                            <p style=""font-size:50px; font-weight:bold;""
                            >trustworthy</p>
                            <div style=""width:240px; margin: auto;"">
                                <img src=""images/Y_L_S_07.png"" style= ""width:200px""alt=""img"">
                            </div>
                        </div>","56","","0","images/Y_L_S_07.png","","","","trustworthy","2","07","Y","L","S","",""
"","","","","","html-slider-response","79","253178","0.0-57.0","t7kqyf5qg1","6","NaN","<div style=""width:500px;"">
                            <p style=""font-size:50px; font-weight:bold;""
                            >trustworthy</p>
                            <div style=""width:240px; margin: auto;"">
                                <img src=""images/G_L_S_28.png"" style= ""width:200px""alt=""img"">
                            </div>
                        </div>","34","","0","images/G_L_S_28.png","","","","trustworthy","2","28","G","L","S","",""
"","","","","","html-slider-response","80","256983","0.0-58.0","t7kqyf5qg1","6","NaN","<div style=""width:500px;"">
                            <p style=""font-size:50px; font-weight:bold;""
                            >trustworthy</p>
                            <div style=""width:240px; margin: auto;"">
                                <img src=""images/R_L_S_15.png"" style= ""width:200px""alt=""img"">
                            </div>
                        </div>","108","","0","images/R_L_S_15.png","","","","trustworthy","1","15","R","L","S","",""
"","","","","","html-slider-response","81","267246","0.0-59.0","t7kqyf5qg1","6","NaN","<div style=""width:500px;"">
                            <p style=""font-size:50px; font-weight:bold;""
                            >trustworthy</p>
                            <div style=""width:240px; margin: auto;"">
                                <img src=""images/Y_L_U_10.png"" style= ""width:200px""alt=""img"">
                            </div>
                        </div>","64","","0","images/Y_L_U_10.png","","","","trustworthy","1","10","Y","L","U","",""
"","","","","","html-slider-response","82","276976","0.0-60.0","t7kqyf5qg1","6","NaN","<div style=""width:500px;"">
                            <p style=""font-size:50px; font-weight:bold;""
                            >trustworthy</p>
                            <div style=""width:240px; margin: auto;"">
                                <img src=""images/Y_L_S_07.png"" style= ""width:200px""alt=""img"">
                            </div>
                        </div>","70","","0","images/Y_L_S_07.png","","","","trustworthy","1","07","Y","L","S","",""
"","","","","","html-slider-response","83","279401","0.0-61.0","t7kqyf5qg1","6","NaN","<div style=""width:500px;"">
                            <p style=""font-size:50px; font-weight:bold;""
                            >trustworthy</p>
                            <div style=""width:240px; margin: auto;"">
                                <img src=""images/Y_D_U_13.png"" style= ""width:200px""alt=""img"">
                            </div>
                        </div>","-200","","0","images/Y_D_U_13.png","","","","trustworthy","2","13","Y","D","U","",""
"","","","","","html-slider-response","84","282965","0.0-62.0","t7kqyf5qg1","6","NaN","<div style=""width:500px;"">
                            <p style=""font-size:50px; font-weight:bold;""
                            >trustworthy</p>
                            <div style=""width:240px; margin: auto;"">
                                <img src=""images/B_L_S_41.png"" style= ""width:200px""alt=""img"">
                            </div>
                        </div>","200","","0","images/B_L_S_41.png","","","","trustworthy","1","41","B","L","S","",""
"","","","","","html-slider-response","85","298608","0.0-63.0","t7kqyf5qg1","6","NaN","<div style=""width:500px;"">
                            <p style=""font-size:50px; font-weight:bold;""
                            >trustworthy</p>
                            <div style=""width:240px; margin: auto;"">
                                <img src=""images/R_D_U_27.png"" style= ""width:200px""alt=""img"">
                            </div>
                        </div>","-114","","0","images/R_D_U_27.png","","","","trustworthy","2","27","R","D","U","",""
"","","","","","html-slider-response","86","300385","0.0-64.0","t7kqyf5qg1","6","NaN","<div style=""width:500px;"">
                            <p style=""font-size:50px; font-weight:bold;""
                            >trustworthy</p>
                            <div style=""width:240px; margin: auto;"">
                                <img src=""images/G_L_U_30.png"" style= ""width:200px""alt=""img"">
                            </div>
                        </div>","70","","0","images/G_L_U_30.png","","","","trustworthy","2","30","G","L","U","",""
"","","","","","html-slider-response","87","302180","0.0-65.0","t7kqyf5qg1","6","NaN","<div style=""width:500px;"">
                            <p style=""font-size:50px; font-weight:bold;""
                            >trustworthy</p>
                            <div style=""width:240px; margin: auto;"">
                                <img src=""images/B_D_U_05.png"" style= ""width:200px""alt=""img"">
                            </div>
                        </div>","-154","","0","images/B_D_U_05.png","","","","trustworthy","2","05","B","D","U","",""
"","","","","","html-slider-response","88","304063","0.0-66.0","t7kqyf5qg1","6","NaN","<div style=""width:500px;"">
                            <p style=""font-size:50px; font-weight:bold;""
                            >trustworthy</p>
                            <div style=""width:240px; margin: auto;"">
                                <img src=""images/B_D_S_02.png"" style= ""width:200px""alt=""img"">
                            </div>
                        </div>","85","","0","images/B_D_S_02.png","","","","trustworthy","1","02","B","D","S","",""
"","","","","","html-slider-response","89","306074","0.0-67.0","t7kqyf5qg1","6","NaN","<div style=""width:500px;"">
                            <p style=""font-size:50px; font-weight:bold;""
                            >trustworthy</p>
                            <div style=""width:240px; margin: auto;"">
                                <img src=""images/G_D_S_33.png"" style= ""width:200px""alt=""img"">
                            </div>
                        </div>","-193","","0","images/G_D_S_33.png","","","","trustworthy","1","33","G","D","S","",""
"","","","","","html-slider-response","90","307780","0.0-68.0","t7kqyf5qg1","6","NaN","<div style=""width:500px;"">
                            <p style=""font-size:50px; font-weight:bold;""
                            >trustworthy</p>
                            <div style=""width:240px; margin: auto;"">
                                <img src=""images/Y_D_U_13.png"" style= ""width:200px""alt=""img"">
                            </div>
                        </div>","-146","","0","images/Y_D_U_13.png","","","","trustworthy","1","13","Y","D","U","",""
"","","","","","html-slider-response","91","309328","0.0-69.0","t7kqyf5qg1","6","NaN","<div style=""width:500px;"">
                            <p style=""font-size:50px; font-weight:bold;""
                            >trustworthy</p>
                            <div style=""width:240px; margin: auto;"">
                                <img src=""images/B_L_U_44.png"" style= ""width:200px""alt=""img"">
                            </div>
                        </div>","78","","0","images/B_L_U_44.png","","","","trustworthy","1","44","B","L","U","",""
"","","","","","html-slider-response","92","310945","0.0-70.0","t7kqyf5qg1","6","NaN","<div style=""width:500px;"">
                            <p style=""font-size:50px; font-weight:bold;""
                            >trustworthy</p>
                            <div style=""width:240px; margin: auto;"">
                                <img src=""images/Y_L_U_10.png"" style= ""width:200px""alt=""img"">
                            </div>
                        </div>","62","","0","images/Y_L_U_10.png","","","","trustworthy","2","10","Y","L","U","",""
"","","","","","html-slider-response","93","312846","0.0-71.0","t7kqyf5qg1","6","NaN","<div style=""width:500px;"">
                            <p style=""font-size:50px; font-weight:bold;""
                            >trustworthy</p>
                            <div style=""width:240px; margin: auto;"">
                                <img src=""images/G_D_U_37.png"" style= ""width:200px""alt=""img"">
                            </div>
                        </div>","-200","","0","images/G_D_U_37.png","","","","trustworthy","1","37","G","D","U","",""
"","","","","","html-slider-response","94","314442","0.0-72.0","t7kqyf5qg1","6","NaN","<div style=""width:500px;"">
                            <p style=""font-size:50px; font-weight:bold;""
                            >trustworthy</p>
                            <div style=""width:240px; margin: auto;"">
                                <img src=""images/R_L_U_23.png"" style= ""width:200px""alt=""img"">
                            </div>
                        </div>","114","","0","images/R_L_U_23.png","","","","trustworthy","2","23","R","L","U","",""
"","","","","","html-slider-response","95","316138","0.0-73.0","t7kqyf5qg1","6","NaN","<div style=""width:500px;"">
                            <p style=""font-size:50px; font-weight:bold;""
                            >trustworthy</p>
                            <div style=""width:240px; margin: auto;"">
                                <img src=""images/R_L_S_15.png"" style= ""width:200px""alt=""img"">
                            </div>
                        </div>","200","","0","images/R_L_S_15.png","","","","trustworthy","2","15","R","L","S","",""
"","","","","","html-slider-response","96","317785","0.0-74.0","t7kqyf5qg1","6","NaN","<div style=""width:500px;"">
                            <p style=""font-size:50px; font-weight:bold;""
                            >trustworthy</p>
                            <div style=""width:240px; margin: auto;"">
                                <img src=""images/B_L_U_44.png"" style= ""width:200px""alt=""img"">
                            </div>
                        </div>","200","","0","images/B_L_U_44.png","","","","trustworthy","2","44","B","L","U","",""
"","","","","","html-slider-response","97","319561","0.0-75.0","t7kqyf5qg1","6","NaN","<div style=""width:500px;"">
                            <p style=""font-size:50px; font-weight:bold;""
                            >trustworthy</p>
                            <div style=""width:240px; margin: auto;"">
                                <img src=""images/B_D_S_02.png"" style= ""width:200px""alt=""img"">
                            </div>
                        </div>","200","","0","images/B_D_S_02.png","","","","trustworthy","2","02","B","D","S","",""
"","","","","","html-slider-response","98","321177","0.0-76.0","t7kqyf5qg1","6","NaN","<div style=""width:500px;"">
                            <p style=""font-size:50px; font-weight:bold;""
                            >trustworthy</p>
                            <div style=""width:240px; margin: auto;"">
                                <img src=""images/B_D_U_05.png"" style= ""width:200px""alt=""img"">
                            </div>
                        </div>","-162","","0","images/B_D_U_05.png","","","","trustworthy","1","05","B","D","U","",""
"","","","","","html-slider-response","99","324692","0.0-77.0","t7kqyf5qg1","6","NaN","<div style=""width:500px;"">
                            <p style=""font-size:50px; font-weight:bold;""
                            >trustworthy</p>
                            <div style=""width:240px; margin: auto;"">
                                <img src=""images/R_D_U_27.png"" style= ""width:200px""alt=""img"">
                            </div>
                        </div>","-112","","0","images/R_D_U_27.png","","","","trustworthy","1","27","R","D","U","",""
"","","","","","html-slider-response","100","326194","0.0-78.0","t7kqyf5qg1","6","NaN","<div style=""width:500px;"">
                            <p style=""font-size:50px; font-weight:bold;""
                            >trustworthy</p>
                            <div style=""width:240px; margin: auto;"">
                                <img src=""images/R_L_U_23.png"" style= ""width:200px""alt=""img"">
                            </div>
                        </div>","73","","0","images/R_L_U_23.png","","","","trustworthy","1","23","R","L","U","",""
"","","","","","html-slider-response","101","327890","0.0-79.0","t7kqyf5qg1","6","NaN","<div style=""width:500px;"">
                            <p style=""font-size:50px; font-weight:bold;""
                            >trustworthy</p>
                            <div style=""width:240px; margin: auto;"">
                                <img src=""images/B_L_S_41.png"" style= ""width:200px""alt=""img"">
                            </div>
                        </div>","148","","0","images/B_L_S_41.png","","","","trustworthy","2","41","B","L","S","",""
"","","","","","html-button-response","102","342356","0.0-80.0","t7kqyf5qg1","6","13963","<p>Great Job! You've finished block 2.<br></br> You have 6 block(s) left to go.<br></br></p>","0","","","","","","","","","","","","","",""
"","","","","","html-button-response","103","343532","0.0-81.0","t7kqyf5qg1","6","1174","<p>In this block of trials, you will be asked to rate how much you associate each map with:</p > <p style = 'font-size:150%; font-weight: bold'>exciting</p><br></br>","0","","","","","","","","","","","","","",""
"","","","","","html-slider-response","104","345119","0.0-82.0","t7kqyf5qg1","6","NaN","<div style=""width:500px;"">
                            <p style=""font-size:50px; font-weight:bold;""
                            >exciting</p>
                            <div style=""width:240px; margin: auto;"">
                                <img src=""images/B_L_S_41.png"" style= ""width:200px""alt=""img"">
                            </div>
                        </div>","200","","0","images/B_L_S_41.png","","","","exciting","1","41","B","L","S","",""
"","","","","","html-slider-response","105","346635","0.0-83.0","t7kqyf5qg1","6","NaN","<div style=""width:500px;"">
                            <p style=""font-size:50px; font-weight:bold;""
                            >exciting</p>
                            <div style=""width:240px; margin: auto;"">
                                <img src=""images/G_L_S_28.png"" style= ""width:200px""alt=""img"">
                            </div>
                        </div>","200","","0","images/G_L_S_28.png","","","","exciting","1","28","G","L","S","",""
"","","","","","html-slider-response","106","348518","0.0-84.0","t7kqyf5qg1","6","NaN","<div style=""width:500px;"">
                            <p style=""font-size:50px; font-weight:bold;""
                            >exciting</p>
                            <div style=""width:240px; margin: auto;"">
                                <img src=""images/R_L_S_15.png"" style= ""width:200px""alt=""img"">
                            </div>
                        </div>","200","","0","images/R_L_S_15.png","","","","exciting","2","15","R","L","S","",""
"","","","","","html-slider-response","107","350973","0.0-85.0","t7kqyf5qg1","6","NaN","<div style=""width:500px;"">
                            <p style=""font-size:50px; font-weight:bold;""
                            >exciting</p>
                            <div style=""width:240px; margin: auto;"">
                                <img src=""images/R_D_S_26.png"" style= ""width:200px""alt=""img"">
                            </div>
                        </div>","118","","0","images/R_D_S_26.png","","","","exciting","1","26","R","D","S","",""
"","","","","","html-slider-response","108","352495","0.0-86.0","t7kqyf5qg1","6","NaN","<div style=""width:500px;"">
                            <p style=""font-size:50px; font-weight:bold;""
                            >exciting</p>
                            <div style=""width:240px; margin: auto;"">
                                <img src=""images/R_L_S_15.png"" style= ""width:200px""alt=""img"">
                            </div>
                        </div>","200","","0","images/R_L_S_15.png","","","","exciting","1","15","R","L","S","",""
"","","","","","html-slider-response","109","354178","0.0-87.0","t7kqyf5qg1","6","NaN","<div style=""width:500px;"">
                            <p style=""font-size:50px; font-weight:bold;""
                            >exciting</p>
                            <div style=""width:240px; margin: auto;"">
                                <img src=""images/R_D_U_27.png"" style= ""width:200px""alt=""img"">
                            </div>
                        </div>","-178","","0","images/R_D_U_27.png","","","","exciting","1","27","R","D","U","",""
"","","","","","html-slider-response","110","355766","0.0-88.0","t7kqyf5qg1","6","NaN","<div style=""width:500px;"">
                            <p style=""font-size:50px; font-weight:bold;""
                            >exciting</p>
                            <div style=""width:240px; margin: auto;"">
                                <img src=""images/Y_L_S_07.png"" style= ""width:200px""alt=""img"">
                            </div>
                        </div>","200","","0","images/Y_L_S_07.png","","","","exciting","1","07","Y","L","S","",""
"","","","","","html-slider-response","111","357276","0.0-89.0","t7kqyf5qg1","6","NaN","<div style=""width:500px;"">
                            <p style=""font-size:50px; font-weight:bold;""
                            >exciting</p>
                            <div style=""width:240px; margin: auto;"">
                                <img src=""images/Y_L_U_10.png"" style= ""width:200px""alt=""img"">
                            </div>
                        </div>","115","","0","images/Y_L_U_10.png","","","","exciting","2","10","Y","L","U","",""
"","","","","","html-slider-response","112","358980","0.0-90.0","t7kqyf5qg1","6","NaN","<div style=""width:500px;"">
                            <p style=""font-size:50px; font-weight:bold;""
                            >exciting</p>
                            <div style=""width:240px; margin: auto;"">
                                <img src=""images/Y_D_S_12.png"" style= ""width:200px""alt=""img"">
                            </div>
                        </div>","-87","","0","images/Y_D_S_12.png","","","","exciting","2","12","Y","D","S","",""
"","","","","","html-slider-response","113","360231","0.0-91.0","t7kqyf5qg1","6","NaN","<div style=""width:500px;"">
                            <p style=""font-size:50px; font-weight:bold;""
                            >exciting</p>
                            <div style=""width:240px; margin: auto;"">
                                <img src=""images/Y_L_S_07.png"" style= ""width:200px""alt=""img"">
                            </div>
                        </div>","112","","0","images/Y_L_S_07.png","","","","exciting","2","07","Y","L","S","",""
"","","","","","html-slider-response","114","361692","0.0-92.0","t7kqyf5qg1","6","NaN","<div style=""width:500px;"">
                            <p style=""font-size:50px; font-weight:bold;""
                            >exciting</p>
                            <div style=""width:240px; margin: auto;"">
                                <img src=""images/R_L_U_23.png"" style= ""width:200px""alt=""img"">
                            </div>
                        </div>","107","","0","images/R_L_U_23.png","","","","exciting","2","23","R","L","U","",""
"","","","","","html-slider-response","115","363145","0.0-93.0","t7kqyf5qg1","6","NaN","<div style=""width:500px;"">
                            <p style=""font-size:50px; font-weight:bold;""
                            >exciting</p>
                            <div style=""width:240px; margin: auto;"">
                                <img src=""images/B_L_S_41.png"" style= ""width:200px""alt=""img"">
                            </div>
                        </div>","87","","0","images/B_L_S_41.png","","","","exciting","2","41","B","L","S","",""
"","","","","","html-slider-response","116","364922","0.0-94.0","t7kqyf5qg1","6","NaN","<div style=""width:500px;"">
                            <p style=""font-size:50px; font-weight:bold;""
                            >exciting</p>
                            <div style=""width:240px; margin: auto;"">
                                <img src=""images/B_D_U_05.png"" style= ""width:200px""alt=""img"">
                            </div>
                        </div>","-132","","0","images/B_D_U_05.png","","","","exciting","2","05","B","D","U","",""
"","","","","","html-slider-response","117","366332","0.0-95.0","t7kqyf5qg1","6","NaN","<div style=""width:500px;"">
                            <p style=""font-size:50px; font-weight:bold;""
                            >exciting</p>
                            <div style=""width:240px; margin: auto;"">
                                <img src=""images/G_L_U_30.png"" style= ""width:200px""alt=""img"">
                            </div>
                        </div>","89","","0","images/G_L_U_30.png","","","","exciting","1","30","G","L","U","",""
"","","","","","html-slider-response","118","367924","0.0-96.0","t7kqyf5qg1","6","NaN","<div style=""width:500px;"">
                            <p style=""font-size:50px; font-weight:bold;""
                            >exciting</p>
                            <div style=""width:240px; margin: auto;"">
                                <img src=""images/G_D_U_37.png"" style= ""width:200px""alt=""img"">
                            </div>
                        </div>","-122","","0","images/G_D_U_37.png","","","","exciting","1","37","G","D","U","",""
"","","","","","html-slider-response","119","369240","0.0-97.0","t7kqyf5qg1","6","NaN","<div style=""width:500px;"">
                            <p style=""font-size:50px; font-weight:bold;""
                            >exciting</p>
                            <div style=""width:240px; margin: auto;"">
                                <img src=""images/R_D_S_26.png"" style= ""width:200px""alt=""img"">
                            </div>
                        </div>","87","","0","images/R_D_S_26.png","","","","exciting","2","26","R","D","S","",""
"","","","","","html-slider-response","120","370676","0.0-98.0","t7kqyf5qg1","6","NaN","<div style=""width:500px;"">
                            <p style=""font-size:50px; font-weight:bold;""
                            >exciting</p>
                            <div style=""width:240px; margin: auto;"">
                                <img src=""images/Y_D_U_13.png"" style= ""width:200px""alt=""img"">
                            </div>
                        </div>","-102","","0","images/Y_D_U_13.png","","","","exciting","2","13","Y","D","U","",""
"","","","","","html-slider-response","121","375266","0.0-99.0","t7kqyf5qg1","6","NaN","<div style=""width:500px;"">
                            <p style=""font-size:50px; font-weight:bold;""
                            >exciting</p>
                            <div style=""width:240px; margin: auto;"">
                                <img src=""images/Y_D_S_12.png"" style= ""width:200px""alt=""img"">
                            </div>
                        </div>","-114","","0","images/Y_D_S_12.png","","","","exciting","1","12","Y","D","S","",""
"","","","","","html-slider-response","122","376865","0.0-100.0","t7kqyf5qg1","6","NaN","<div style=""width:500px;"">
                            <p style=""font-size:50px; font-weight:bold;""
                            >exciting</p>
                            <div style=""width:240px; margin: auto;"">
                                <img src=""images/B_D_U_05.png"" style= ""width:200px""alt=""img"">
                            </div>
                        </div>","-73","","0","images/B_D_U_05.png","","","","exciting","1","05","B","D","U","",""
"","","","","","html-slider-response","123","379462","0.0-101.0","t7kqyf5qg1","6","NaN","<div style=""width:500px;"">
                            <p style=""font-size:50px; font-weight:bold;""
                            >exciting</p>
                            <div style=""width:240px; margin: auto;"">
                                <img src=""images/B_L_U_44.png"" style= ""width:200px""alt=""img"">
                            </div>
                        </div>","192","","0","images/B_L_U_44.png","","","","exciting","2","44","B","L","U","",""
"","","","","","html-slider-response","124","381166","0.0-102.0","t7kqyf5qg1","6","NaN","<div style=""width:500px;"">
                            <p style=""font-size:50px; font-weight:bold;""
                            >exciting</p>
                            <div style=""width:240px; margin: auto;"">
                                <img src=""images/G_D_U_37.png"" style= ""width:200px""alt=""img"">
                            </div>
                        </div>","-169","","0","images/G_D_U_37.png","","","","exciting","2","37","G","D","U","",""
"","","","","","html-slider-response","125","382839","0.0-103.0","t7kqyf5qg1","6","NaN","<div style=""width:500px;"">
                            <p style=""font-size:50px; font-weight:bold;""
                            >exciting</p>
                            <div style=""width:240px; margin: auto;"">
                                <img src=""images/B_L_U_44.png"" style= ""width:200px""alt=""img"">
                            </div>
                        </div>","176","","0","images/B_L_U_44.png","","","","exciting","1","44","B","L","U","",""
"","","","","","html-slider-response","126","384413","0.0-104.0","t7kqyf5qg1","6","NaN","<div style=""width:500px;"">
                            <p style=""font-size:50px; font-weight:bold;""
                            >exciting</p>
                            <div style=""width:240px; margin: auto;"">
                                <img src=""images/G_L_S_28.png"" style= ""width:200px""alt=""img"">
                            </div>
                        </div>","166","","0","images/G_L_S_28.png","","","","exciting","2","28","G","L","S","",""
"","","","","","html-slider-response","127","386807","0.0-105.0","t7kqyf5qg1","6","NaN","<div style=""width:500px;"">
                            <p style=""font-size:50px; font-weight:bold;""
                            >exciting</p>
                            <div style=""width:240px; margin: auto;"">
                                <img src=""images/B_D_S_02.png"" style= ""width:200px""alt=""img"">
                            </div>
                        </div>","12","","0","images/B_D_S_02.png","","","","exciting","2","02","B","D","S","",""
"","","","","","html-slider-response","128","388227","0.0-106.0","t7kqyf5qg1","6","NaN","<div style=""width:500px;"">
                            <p style=""font-size:50px; font-weight:bold;""
                            >exciting</p>
                            <div style=""width:240px; margin: auto;"">
                                <img src=""images/G_D_S_33.png"" style= ""width:200px""alt=""img"">
                            </div>
                        </div>","-79","","0","images/G_D_S_33.png","","","","exciting","2","33","G","D","S","",""
"","","","","","html-slider-response","129","389435","0.0-107.0","t7kqyf5qg1","6","NaN","<div style=""width:500px;"">
                            <p style=""font-size:50px; font-weight:bold;""
                            >exciting</p>
                            <div style=""width:240px; margin: auto;"">
                                <img src=""images/Y_L_U_10.png"" style= ""width:200px""alt=""img"">
                            </div>
                        </div>","85","","0","images/Y_L_U_10.png","","","","exciting","1","10","Y","L","U","",""
"","","","","","html-slider-response","130","390695","0.0-108.0","t7kqyf5qg1","6","NaN","<div style=""width:500px;"">
                            <p style=""font-size:50px; font-weight:bold;""
                            >exciting</p>
                            <div style=""width:240px; margin: auto;"">
                                <img src=""images/R_L_U_23.png"" style= ""width:200px""alt=""img"">
                            </div>
                        </div>","104","","0","images/R_L_U_23.png","","","","exciting","1","23","R","L","U","",""
"","","","","","html-slider-response","131","391999","0.0-109.0","t7kqyf5qg1","6","NaN","<div style=""width:500px;"">
                            <p style=""font-size:50px; font-weight:bold;""
                            >exciting</p>
                            <div style=""width:240px; margin: auto;"">
                                <img src=""images/G_D_S_33.png"" style= ""width:200px""alt=""img"">
                            </div>
                        </div>","-55","","0","images/G_D_S_33.png","","","","exciting","1","33","G","D","S","",""
"","","","","","html-slider-response","132","393349","0.0-110.0","t7kqyf5qg1","6","NaN","<div style=""width:500px;"">
                            <p style=""font-size:50px; font-weight:bold;""
                            >exciting</p>
                            <div style=""width:240px; margin: auto;"">
                                <img src=""images/R_D_U_27.png"" style= ""width:200px""alt=""img"">
                            </div>
                        </div>","-128","","0","images/R_D_U_27.png","","","","exciting","2","27","R","D","U","",""
"","","","","","html-slider-response","133","394597","0.0-111.0","t7kqyf5qg1","6","NaN","<div style=""width:500px;"">
                            <p style=""font-size:50px; font-weight:bold;""
                            >exciting</p>
                            <div style=""width:240px; margin: auto;"">
                                <img src=""images/G_L_U_30.png"" style= ""width:200px""alt=""img"">
                            </div>
                        </div>","110","","0","images/G_L_U_30.png","","","","exciting","2","30","G","L","U","",""
"","","","","","html-slider-response","134","395765","0.0-112.0","t7kqyf5qg1","6","NaN","<div style=""width:500px;"">
                            <p style=""font-size:50px; font-weight:bold;""
                            >exciting</p>
                            <div style=""width:240px; margin: auto;"">
                                <img src=""images/Y_D_U_13.png"" style= ""width:200px""alt=""img"">
                            </div>
                        </div>","-83","","0","images/Y_D_U_13.png","","","","exciting","1","13","Y","D","U","",""
"","","","","","html-slider-response","135","396961","0.0-113.0","t7kqyf5qg1","6","NaN","<div style=""width:500px;"">
                            <p style=""font-size:50px; font-weight:bold;""
                            >exciting</p>
                            <div style=""width:240px; margin: auto;"">
                                <img src=""images/B_D_S_02.png"" style= ""width:200px""alt=""img"">
                            </div>
                        </div>","106","","0","images/B_D_S_02.png","","","","exciting","1","02","B","D","S","",""
"","","","","","html-button-response","136","398361","0.0-114.0","t7kqyf5qg1","6","897","<p>Great Job! You've finished block 3.<br></br> You have 5 block(s) left to go.<br></br></p>","0","","","","","","","","","","","","","",""
"","","","","","html-button-response","137","408038","0.0-115.0","t7kqyf5qg1","6","9675","<p>In this block of trials, you will be asked to rate how much you associate each map with:</p > <p style = 'font-size:150%; font-weight: bold'>negative</p><br></br>","0","","","","","","","","","","","","","",""
"","","","","","html-slider-response","138","409673","0.0-116.0","t7kqyf5qg1","6","NaN","<div style=""width:500px;"">
                            <p style=""font-size:50px; font-weight:bold;""
                            >negative</p>
                            <div style=""width:240px; margin: auto;"">
                                <img src=""images/B_D_S_02.png"" style= ""width:200px""alt=""img"">
                            </div>
                        </div>","115","","0","images/B_D_S_02.png","","","","negative","2","02","B","D","S","",""
"","","","","","html-slider-response","139","411140","0.0-117.0","t7kqyf5qg1","6","NaN","<div style=""width:500px;"">
                            <p style=""font-size:50px; font-weight:bold;""
                            >negative</p>
                            <div style=""width:240px; margin: auto;"">
                                <img src=""images/R_D_S_26.png"" style= ""width:200px""alt=""img"">
                            </div>
                        </div>","86","","0","images/R_D_S_26.png","","","","negative","1","26","R","D","S","",""
"","","","","","html-slider-response","140","412829","0.0-118.0","t7kqyf5qg1","6","NaN","<div style=""width:500px;"">
                            <p style=""font-size:50px; font-weight:bold;""
                            >negative</p>
                            <div style=""width:240px; margin: auto;"">
                                <img src=""images/R_L_U_23.png"" style= ""width:200px""alt=""img"">
                            </div>
                        </div>","167","","0","images/R_L_U_23.png","","","","negative","1","23","R","L","U","",""
"","","","","","html-slider-response","141","415263","0.0-119.0","t7kqyf5qg1","6","NaN","<div style=""width:500px;"">
                            <p style=""font-size:50px; font-weight:bold;""
                            >negative</p>
                            <div style=""width:240px; margin: auto;"">
                                <img src=""images/R_L_U_23.png"" style= ""width:200px""alt=""img"">
                            </div>
                        </div>","-200","","0","images/R_L_U_23.png","","","","negative","2","23","R","L","U","",""
"","","","","","html-slider-response","142","417179","0.0-120.0","t7kqyf5qg1","6","NaN","<div style=""width:500px;"">
                            <p style=""font-size:50px; font-weight:bold;""
                            >negative</p>
                            <div style=""width:240px; margin: auto;"">
                                <img src=""images/G_D_U_37.png"" style= ""width:200px""alt=""img"">
                            </div>
                        </div>","178","","0","images/G_D_U_37.png","","","","negative","1","37","G","D","U","",""
"","","","","","html-slider-response","143","419323","0.0-121.0","t7kqyf5qg1","6","NaN","<div style=""width:500px;"">
                            <p style=""font-size:50px; font-weight:bold;""
                            >negative</p>
                            <div style=""width:240px; margin: auto;"">
                                <img src=""images/Y_D_U_13.png"" style= ""width:200px""alt=""img"">
                            </div>
                        </div>","200","","0","images/Y_D_U_13.png","","","","negative","1","13","Y","D","U","",""
"","","","","","html-slider-response","144","421011","0.0-122.0","t7kqyf5qg1","6","NaN","<div style=""width:500px;"">
                            <p style=""font-size:50px; font-weight:bold;""
                            >negative</p>
                            <div style=""width:240px; margin: auto;"">
                                <img src=""images/G_L_S_28.png"" style= ""width:200px""alt=""img"">
                            </div>
                        </div>","-200","","0","images/G_L_S_28.png","","","","negative","2","28","G","L","S","",""
"","","","","","html-slider-response","145","422523","0.0-123.0","t7kqyf5qg1","6","NaN","<div style=""width:500px;"">
                            <p style=""font-size:50px; font-weight:bold;""
                            >negative</p>
                            <div style=""width:240px; margin: auto;"">
                                <img src=""images/R_L_S_15.png"" style= ""width:200px""alt=""img"">
                            </div>
                        </div>","-200","","0","images/R_L_S_15.png","","","","negative","2","15","R","L","S","",""
"","","","","","html-slider-response","146","424100","0.0-124.0","t7kqyf5qg1","6","NaN","<div style=""width:500px;"">
                            <p style=""font-size:50px; font-weight:bold;""
                            >negative</p>
                            <div style=""width:240px; margin: auto;"">
                                <img src=""images/Y_D_S_12.png"" style= ""width:200px""alt=""img"">
                            </div>
                        </div>","90","","0","images/Y_D_S_12.png","","","","negative","2","12","Y","D","S","",""
"","","","","","html-slider-response","147","426025","0.0-125.0","t7kqyf5qg1","6","NaN","<div style=""width:500px;"">
                            <p style=""font-size:50px; font-weight:bold;""
                            >negative</p>
                            <div style=""width:240px; margin: auto;"">
                                <img src=""images/Y_L_U_10.png"" style= ""width:200px""alt=""img"">
                            </div>
                        </div>","-71","","0","images/Y_L_U_10.png","","","","negative","2","10","Y","L","U","",""
"","","","","","html-slider-response","148","427446","0.0-126.0","t7kqyf5qg1","6","NaN","<div style=""width:500px;"">
                            <p style=""font-size:50px; font-weight:bold;""
                            >negative</p>
                            <div style=""width:240px; margin: auto;"">
                                <img src=""images/Y_D_S_12.png"" style= ""width:200px""alt=""img"">
                            </div>
                        </div>","66","","0","images/Y_D_S_12.png","","","","negative","1","12","Y","D","S","",""
"","","","","","html-slider-response","149","429856","0.0-127.0","t7kqyf5qg1","6","NaN","<div style=""width:500px;"">
                            <p style=""font-size:50px; font-weight:bold;""
                            >negative</p>
                            <div style=""width:240px; margin: auto;"">
                                <img src=""images/R_L_S_15.png"" style= ""width:200px""alt=""img"">
                            </div>
                        </div>","-126","","0","images/R_L_S_15.png","","","","negative","1","15","R","L","S","",""
"","","","","","html-slider-response","150","431755","0.0-128.0","t7kqyf5qg1","6","NaN","<div style=""width:500px;"">
                            <p style=""font-size:50px; font-weight:bold;""
                            >negative</p>
                            <div style=""width:240px; margin: auto;"">
                                <img src=""images/G_D_S_33.png"" style= ""width:200px""alt=""img"">
                            </div>
                        </div>","-148","","0","images/G_D_S_33.png","","","","negative","2","33","G","D","S","",""
"","","","","","html-slider-response","151","433581","0.0-129.0","t7kqyf5qg1","6","NaN","<div style=""width:500px;"">
                            <p style=""font-size:50px; font-weight:bold;""
                            >negative</p>
                            <div style=""width:240px; margin: auto;"">
                                <img src=""images/B_L_S_41.png"" style= ""width:200px""alt=""img"">
                            </div>
                        </div>","-194","","0","images/B_L_S_41.png","","","","negative","1","41","B","L","S","",""
"","","","","","html-slider-response","152","435398","0.0-130.0","t7kqyf5qg1","6","NaN","<div style=""width:500px;"">
                            <p style=""font-size:50px; font-weight:bold;""
                            >negative</p>
                            <div style=""width:240px; margin: auto;"">
                                <img src=""images/R_D_S_26.png"" style= ""width:200px""alt=""img"">
                            </div>
                        </div>","-200","","0","images/R_D_S_26.png","","","","negative","2","26","R","D","S","",""
"","","","","","html-slider-response","153","437453","0.0-131.0","t7kqyf5qg1","6","NaN","<div style=""width:500px;"">
                            <p style=""font-size:50px; font-weight:bold;""
                            >negative</p>
                            <div style=""width:240px; margin: auto;"">
                                <img src=""images/B_D_U_05.png"" style= ""width:200px""alt=""img"">
                            </div>
                        </div>","160","","0","images/B_D_U_05.png","","","","negative","1","05","B","D","U","",""
"","","","","","html-slider-response","154","439547","0.0-132.0","t7kqyf5qg1","6","NaN","<div style=""width:500px;"">
                            <p style=""font-size:50px; font-weight:bold;""
                            >negative</p>
                            <div style=""width:240px; margin: auto;"">
                                <img src=""images/Y_D_U_13.png"" style= ""width:200px""alt=""img"">
                            </div>
                        </div>","112","","0","images/Y_D_U_13.png","","","","negative","2","13","Y","D","U","",""
"","","","","","html-slider-response","155","440805","0.0-133.0","t7kqyf5qg1","6","NaN","<div style=""width:500px;"">
                            <p style=""font-size:50px; font-weight:bold;""
                            >negative</p>
                            <div style=""width:240px; margin: auto;"">
                                <img src=""images/G_L_S_28.png"" style= ""width:200px""alt=""img"">
                            </div>
                        </div>","-122","","0","images/G_L_S_28.png","","","","negative","1","28","G","L","S","",""
"","","","","","html-slider-response","156","442199","0.0-134.0","t7kqyf5qg1","6","NaN","<div style=""width:500px;"">
                            <p style=""font-size:50px; font-weight:bold;""
                            >negative</p>
                            <div style=""width:240px; margin: auto;"">
                                <img src=""images/B_L_U_44.png"" style= ""width:200px""alt=""img"">
                            </div>
                        </div>","-89","","0","images/B_L_U_44.png","","","","negative","1","44","B","L","U","",""
"","","","","","html-slider-response","157","443622","0.0-135.0","t7kqyf5qg1","6","NaN","<div style=""width:500px;"">
                            <p style=""font-size:50px; font-weight:bold;""
                            >negative</p>
                            <div style=""width:240px; margin: auto;"">
                                <img src=""images/B_D_U_05.png"" style= ""width:200px""alt=""img"">
                            </div>
                        </div>","85","","0","images/B_D_U_05.png","","","","negative","2","05","B","D","U","",""
"","","","","","html-slider-response","158","445633","0.0-136.0","t7kqyf5qg1","6","NaN","<div style=""width:500px;"">
                            <p style=""font-size:50px; font-weight:bold;""
                            >negative</p>
                            <div style=""width:240px; margin: auto;"">
                                <img src=""images/G_L_U_30.png"" style= ""width:200px""alt=""img"">
                            </div>
                        </div>","-132","","0","images/G_L_U_30.png","","","","negative","1","30","G","L","U","",""
"","","","","","html-slider-response","159","447329","0.0-137.0","t7kqyf5qg1","6","NaN","<div style=""width:500px;"">
                            <p style=""font-size:50px; font-weight:bold;""
                            >negative</p>
                            <div style=""width:240px; margin: auto;"">
                                <img src=""images/R_D_U_27.png"" style= ""width:200px""alt=""img"">
                            </div>
                        </div>","91","","0","images/R_D_U_27.png","","","","negative","2","27","R","D","U","",""
"","","","","","html-slider-response","160","448807","0.0-138.0","t7kqyf5qg1","6","NaN","<div style=""width:500px;"">
                            <p style=""font-size:50px; font-weight:bold;""
                            >negative</p>
                            <div style=""width:240px; margin: auto;"">
                                <img src=""images/B_L_U_44.png"" style= ""width:200px""alt=""img"">
                            </div>
                        </div>","-109","","0","images/B_L_U_44.png","","","","negative","2","44","B","L","U","",""
"","","","","","html-slider-response","161","450341","0.0-139.0","t7kqyf5qg1","6","NaN","<div style=""width:500px;"">
                            <p style=""font-size:50px; font-weight:bold;""
                            >negative</p>
                            <div style=""width:240px; margin: auto;"">
                                <img src=""images/G_D_U_37.png"" style= ""width:200px""alt=""img"">
                            </div>
                        </div>","158","","0","images/G_D_U_37.png","","","","negative","2","37","G","D","U","",""
"","","","","","html-slider-response","162","452012","0.0-140.0","t7kqyf5qg1","6","NaN","<div style=""width:500px;"">
                            <p style=""font-size:50px; font-weight:bold;""
                            >negative</p>
                            <div style=""width:240px; margin: auto;"">
                                <img src=""images/G_L_U_30.png"" style= ""width:200px""alt=""img"">
                            </div>
                        </div>","-158","","0","images/G_L_U_30.png","","","","negative","2","30","G","L","U","",""
"","","","","","html-slider-response","163","466180","0.0-141.0","t7kqyf5qg1","6","NaN","<div style=""width:500px;"">
                            <p style=""font-size:50px; font-weight:bold;""
                            >negative</p>
                            <div style=""width:240px; margin: auto;"">
                                <img src=""images/B_L_S_41.png"" style= ""width:200px""alt=""img"">
                            </div>
                        </div>","-176","","0","images/B_L_S_41.png","","","","negative","2","41","B","L","S","",""
"","","","","","html-slider-response","164","471944","0.0-142.0","t7kqyf5qg1","6","NaN","<div style=""width:500px;"">
                            <p style=""font-size:50px; font-weight:bold;""
                            >negative</p>
                            <div style=""width:240px; margin: auto;"">
                                <img src=""images/Y_L_S_07.png"" style= ""width:200px""alt=""img"">
                            </div>
                        </div>","-166","","0","images/Y_L_S_07.png","","","","negative","1","07","Y","L","S","",""
"","","","","","html-slider-response","165","476155","0.0-143.0","t7kqyf5qg1","6","NaN","<div style=""width:500px;"">
                            <p style=""font-size:50px; font-weight:bold;""
                            >negative</p>
                            <div style=""width:240px; margin: auto;"">
                                <img src=""images/Y_L_U_10.png"" style= ""width:200px""alt=""img"">
                            </div>
                        </div>","-148","","0","images/Y_L_U_10.png","","","","negative","1","10","Y","L","U","",""
"","","","","","html-slider-response","166","477990","0.0-144.0","t7kqyf5qg1","6","NaN","<div style=""width:500px;"">
                            <p style=""font-size:50px; font-weight:bold;""
                            >negative</p>
                            <div style=""width:240px; margin: auto;"">
                                <img src=""images/B_D_S_02.png"" style= ""width:200px""alt=""img"">
                            </div>
                        </div>","-133","","0","images/B_D_S_02.png","","","","negative","1","02","B","D","S","",""
"","","","","","html-slider-response","167","479711","0.0-145.0","t7kqyf5qg1","6","NaN","<div style=""width:500px;"">
                            <p style=""font-size:50px; font-weight:bold;""
                            >negative</p>
                            <div style=""width:240px; margin: auto;"">
                                <img src=""images/R_D_U_27.png"" style= ""width:200px""alt=""img"">
                            </div>
                        </div>","170","","0","images/R_D_U_27.png","","","","negative","1","27","R","D","U","",""
"","","","","","html-slider-response","168","482171","0.0-146.0","t7kqyf5qg1","6","NaN","<div style=""width:500px;"">
                            <p style=""font-size:50px; font-weight:bold;""
                            >negative</p>
                            <div style=""width:240px; margin: auto;"">
                                <img src=""images/G_D_S_33.png"" style= ""width:200px""alt=""img"">
                            </div>
                        </div>","-167","","0","images/G_D_S_33.png","","","","negative","1","33","G","D","S","",""
"","","","","","html-slider-response","169","483613","0.0-147.0","t7kqyf5qg1","6","NaN","<div style=""width:500px;"">
                            <p style=""font-size:50px; font-weight:bold;""
                            >negative</p>
                            <div style=""width:240px; margin: auto;"">
                                <img src=""images/Y_L_S_07.png"" style= ""width:200px""alt=""img"">
                            </div>
                        </div>","-200","","0","images/Y_L_S_07.png","","","","negative","2","07","Y","L","S","",""
"","","","","","html-button-response","170","488544","0.0-148.0","t7kqyf5qg1","6","4428","<p>Great Job! You've finished block 4.<br></br> You have 4 block(s) left to go.<br></br></p>","0","","","","","","","","","","","","","",""
"","","","","","html-button-response","171","489145","0.0-149.0","t7kqyf5qg1","6","601","<p>In this block of trials, you will be asked to rate how much you associate each map with:</p > <p style = 'font-size:150%; font-weight: bold'>calm</p><br></br>","0","","","","","","","","","","","","","",""
"","","","","","html-slider-response","172","490921","0.0-150.0","t7kqyf5qg1","6","NaN","<div style=""width:500px;"">
                            <p style=""font-size:50px; font-weight:bold;""
                            >calm</p>
                            <div style=""width:240px; margin: auto;"">
                                <img src=""images/R_D_U_27.png"" style= ""width:200px""alt=""img"">
                            </div>
                        </div>","-105","","0","images/R_D_U_27.png","","","","calm","2","27","R","D","U","",""
"","","","","","html-slider-response","173","493223","0.0-151.0","t7kqyf5qg1","6","NaN","<div style=""width:500px;"">
                            <p style=""font-size:50px; font-weight:bold;""
                            >calm</p>
                            <div style=""width:240px; margin: auto;"">
                                <img src=""images/Y_L_U_10.png"" style= ""width:200px""alt=""img"">
                            </div>
                        </div>","62","","0","images/Y_L_U_10.png","","","","calm","2","10","Y","L","U","",""
"","","","","","html-slider-response","174","495203","0.0-152.0","t7kqyf5qg1","6","NaN","<div style=""width:500px;"">
                            <p style=""font-size:50px; font-weight:bold;""
                            >calm</p>
                            <div style=""width:240px; margin: auto;"">
                                <img src=""images/G_D_U_37.png"" style= ""width:200px""alt=""img"">
                            </div>
                        </div>","-22","","0","images/G_D_U_37.png","","","","calm","2","37","G","D","U","",""
"","","","","","html-slider-response","175","496891","0.0-153.0","t7kqyf5qg1","6","NaN","<div style=""width:500px;"">
                            <p style=""font-size:50px; font-weight:bold;""
                            >calm</p>
                            <div style=""width:240px; margin: auto;"">
                                <img src=""images/Y_D_S_12.png"" style= ""width:200px""alt=""img"">
                            </div>
                        </div>","-62","","0","images/Y_D_S_12.png","","","","calm","2","12","Y","D","S","",""
"","","","","","html-slider-response","176","498305","0.0-154.0","t7kqyf5qg1","6","NaN","<div style=""width:500px;"">
                            <p style=""font-size:50px; font-weight:bold;""
                            >calm</p>
                            <div style=""width:240px; margin: auto;"">
                                <img src=""images/Y_D_U_13.png"" style= ""width:200px""alt=""img"">
                            </div>
                        </div>","-200","","0","images/Y_D_U_13.png","","","","calm","1","13","Y","D","U","",""
"","","","","","html-slider-response","177","500172","0.0-155.0","t7kqyf5qg1","6","NaN","<div style=""width:500px;"">
                            <p style=""font-size:50px; font-weight:bold;""
                            >calm</p>
                            <div style=""width:240px; margin: auto;"">
                                <img src=""images/B_L_U_44.png"" style= ""width:200px""alt=""img"">
                            </div>
                        </div>","36","","0","images/B_L_U_44.png","","","","calm","1","44","B","L","U","",""
"","","","","","html-slider-response","178","502086","0.0-156.0","t7kqyf5qg1","6","NaN","<div style=""width:500px;"">
                            <p style=""font-size:50px; font-weight:bold;""
                            >calm</p>
                            <div style=""width:240px; margin: auto;"">
                                <img src=""images/R_L_S_15.png"" style= ""width:200px""alt=""img"">
                            </div>
                        </div>","85","","0","images/R_L_S_15.png","","","","calm","2","15","R","L","S","",""
"","","","","","html-slider-response","179","503579","0.0-157.0","t7kqyf5qg1","6","NaN","<div style=""width:500px;"">
                            <p style=""font-size:50px; font-weight:bold;""
                            >calm</p>
                            <div style=""width:240px; margin: auto;"">
                                <img src=""images/G_L_S_28.png"" style= ""width:200px""alt=""img"">
                            </div>
                        </div>","14","","0","images/G_L_S_28.png","","","","calm","1","28","G","L","S","",""
"","","","","","html-slider-response","180","505632","0.0-158.0","t7kqyf5qg1","6","NaN","<div style=""width:500px;"">
                            <p style=""font-size:50px; font-weight:bold;""
                            >calm</p>
                            <div style=""width:240px; margin: auto;"">
                                <img src=""images/Y_D_U_13.png"" style= ""width:200px""alt=""img"">
                            </div>
                        </div>","-200","","0","images/Y_D_U_13.png","","","","calm","2","13","Y","D","U","",""
"","","","","","html-slider-response","181","507198","0.0-159.0","t7kqyf5qg1","6","NaN","<div style=""width:500px;"">
                            <p style=""font-size:50px; font-weight:bold;""
                            >calm</p>
                            <div style=""width:240px; margin: auto;"">
                                <img src=""images/B_D_U_05.png"" style= ""width:200px""alt=""img"">
                            </div>
                        </div>","-85","","0","images/B_D_U_05.png","","","","calm","2","05","B","D","U","",""
"","","","","","html-slider-response","182","508693","0.0-160.0","t7kqyf5qg1","6","NaN","<div style=""width:500px;"">
                            <p style=""font-size:50px; font-weight:bold;""
                            >calm</p>
                            <div style=""width:240px; margin: auto;"">
                                <img src=""images/B_L_S_41.png"" style= ""width:200px""alt=""img"">
                            </div>
                        </div>","56","","0","images/B_L_S_41.png","","","","calm","2","41","B","L","S","",""
"","","","","","html-slider-response","183","510640","0.0-161.0","t7kqyf5qg1","6","NaN","<div style=""width:500px;"">
                            <p style=""font-size:50px; font-weight:bold;""
                            >calm</p>
                            <div style=""width:240px; margin: auto;"">
                                <img src=""images/Y_L_U_10.png"" style= ""width:200px""alt=""img"">
                            </div>
                        </div>","-50","","0","images/Y_L_U_10.png","","","","calm","1","10","Y","L","U","",""
"","","","","","html-slider-response","184","511914","0.0-162.0","t7kqyf5qg1","6","NaN","<div style=""width:500px;"">
                            <p style=""font-size:50px; font-weight:bold;""
                            >calm</p>
                            <div style=""width:240px; margin: auto;"">
                                <img src=""images/R_D_U_27.png"" style= ""width:200px""alt=""img"">
                            </div>
                        </div>","-34","","0","images/R_D_U_27.png","","","","calm","1","27","R","D","U","",""
"","","","","","html-slider-response","185","513505","0.0-163.0","t7kqyf5qg1","6","NaN","<div style=""width:500px;"">
                            <p style=""font-size:50px; font-weight:bold;""
                            >calm</p>
                            <div style=""width:240px; margin: auto;"">
                                <img src=""images/G_L_U_30.png"" style= ""width:200px""alt=""img"">
                            </div>
                        </div>","-50","","0","images/G_L_U_30.png","","","","calm","2","30","G","L","U","",""
"","","","","","html-slider-response","186","515380","0.0-164.0","t7kqyf5qg1","6","NaN","<div style=""width:500px;"">
                            <p style=""font-size:50px; font-weight:bold;""
                            >calm</p>
                            <div style=""width:240px; margin: auto;"">
                                <img src=""images/G_D_U_37.png"" style= ""width:200px""alt=""img"">
                            </div>
                        </div>","-129","","0","images/G_D_U_37.png","","","","calm","1","37","G","D","U","",""
"","","","","","html-slider-response","187","518496","0.0-165.0","t7kqyf5qg1","6","NaN","<div style=""width:500px;"">
                            <p style=""font-size:50px; font-weight:bold;""
                            >calm</p>
                            <div style=""width:240px; margin: auto;"">
                                <img src=""images/Y_L_S_07.png"" style= ""width:200px""alt=""img"">
                            </div>
                        </div>","29","","0","images/Y_L_S_07.png","","","","calm","2","07","Y","L","S","",""
"","","","","","html-slider-response","188","520744","0.0-166.0","t7kqyf5qg1","6","NaN","<div style=""width:500px;"">
                            <p style=""font-size:50px; font-weight:bold;""
                            >calm</p>
                            <div style=""width:240px; margin: auto;"">
                                <img src=""images/B_L_S_41.png"" style= ""width:200px""alt=""img"">
                            </div>
                        </div>","118","","0","images/B_L_S_41.png","","","","calm","1","41","B","L","S","",""
"","","","","","html-slider-response","189","522408","0.0-167.0","t7kqyf5qg1","6","NaN","<div style=""width:500px;"">
                            <p style=""font-size:50px; font-weight:bold;""
                            >calm</p>
                            <div style=""width:240px; margin: auto;"">
                                <img src=""images/G_L_S_28.png"" style= ""width:200px""alt=""img"">
                            </div>
                        </div>","200","","0","images/G_L_S_28.png","","","","calm","2","28","G","L","S","",""
"","","","","","html-slider-response","190","524210","0.0-168.0","t7kqyf5qg1","6","NaN","<div style=""width:500px;"">
                            <p style=""font-size:50px; font-weight:bold;""
                            >calm</p>
                            <div style=""width:240px; margin: auto;"">
                                <img src=""images/B_D_S_02.png"" style= ""width:200px""alt=""img"">
                            </div>
                        </div>","200","","0","images/B_D_S_02.png","","","","calm","1","02","B","D","S","",""
"","","","","","html-slider-response","191","525689","0.0-169.0","t7kqyf5qg1","6","NaN","<div style=""width:500px;"">
                            <p style=""font-size:50px; font-weight:bold;""
                            >calm</p>
                            <div style=""width:240px; margin: auto;"">
