"success","timeout","failed_images","failed_audio","failed_video","trial_type","trial_index","time_elapsed","internal_node_id","subject_id","condition_num","rt","stimulus","response","question_order","slider_start","image_path","practiceTrial","practiceTrialNum","correct","concept","repetition","map_id","hue","lightness","saturation","ishihara_plate","correct_response"
"true","false","[]","[]","[]","preload","0","279","0.0-0.0","tb9rd582tu","7","","","","","","","","","","","","","","","","",""
"","","","","","html-button-response","1","1857","0.0-1.0","tb9rd582tu","7","1575","Welcome to our experiment!<p>At the bottom of this screen, you will see a button that says ""Begin Experiment"".<br>Please only click that button when you are ready to complete the 25 minute experiment in one sitting.</p><p> Once you click that button, it will not be possible to restart the experiment.","0","","","","","","","","","","","","","",""
"true","","","","","fullscreen","2","4612","0.0-2.0","tb9rd582tu","7","1749","","","","","","","","","","","","","","","",""
"","","","","","survey-multi-select","3","11046","0.0-3.0","tb9rd582tu","7","6429","","{""Consent"":[""<strong>I consent</strong>""]}","[0]","","","","","","","","","","","","",""
"","","","","","html-button-response","4","16138","0.0-4.0","tb9rd582tu","7","5090","Welcome! <p> This experiment involves two parts: demographic information, followed by the experimental task.<p> It will take about 25 minutes to complete both parts.","0","","","","","","","","","","","","","",""
"","","","","","survey-text","5","33583","0.0-5.0","tb9rd582tu","7","17433","","{""Age"":""19"",""Gender"":""male"",""Race/ethnicity"":""white"",""Languages"":""English, very little Spanish(basic)""}","","","","","","","","","","","","","",""
"","","","","","html-slider-response","6","73155","0.0-6.0","tb9rd582tu","7","39571","
                            <div style='text-align:left; font-size:20px; line-height:25px; width: 1400px;'>
                                During this experiment you will be asked to rate how much you associate maps with                    different concepts.<br> Below, you can see some examples of the maps you will be asked to rate. Next to the maps
                    is the list of concepts.<br>You will be asked                    to rate how much you associate each map with each concept on a scale from 'not at all' to 'very much' like the
                    one below. <br><br>
                    Now, please look at the list of concepts and maps. For each concept, think about the map you associate 'very
                    much' with the concept.<br>                     When you see that map during the experiment, please rate it near the 'very much' endpoint of the
                    scale.<br>Now, please think about which map you associate 'not at all'                     with each concept. When you see that map during the experiment, please rate it near the 'not at all' endpoint
                    of the scale.<br>
                    Please use the full range of the scale. That is, if a map is somewhat associated with the concept, you would
                    click partway between the middle point and right side of the scale.                    You will be asked to rate each map for a given concept before moving on to the next concept.<br><br>Press the
                    'Continue' button for instructions on how to use the slider.                    <br><br>
                </div>

                <div style=""width: 500px; margin: 0 auto;"">
                    <!-- Centered text paragraphs -->
                    <div style=""text-align: center; width: 500px;"">
                        <p style=""font-size:25px; line-height:18px;"">calm</p>
                        <p style=""font-size:25px; line-height:18px;"">exciting</p>
                        <p style=""font-size:25px;line-height:18px;"">positive</p>
                        <p style=""font-size:25px;line-height:18px;"">negative</p>
                        <p style=""font-size:25px;line-height:18px;"">serious</p>
                        <p style=""font-size:25px;line-height:18px;"">playful</p>
                        <p style=""font-size:25px;line-height:18px;"">trustworthy</p>
                        <p style=""font-size:25px;line-height:18px;"">disturbing</p>
                    </div>

                    <!-- Grid section -->
                   <div style=""display: flex; justify-content: center; padding-top: 15px;"">
                    <div style=""display: grid; grid-template-columns: repeat(8, 80px); grid-gap: 5px; width: auto;"">
                        <img src=""images/G_D_U_41.png"" alt=""map"" style=""width: 100%;""><img src=""images/B_D_S_05.png"" alt=""map"" style=""width: 100%;""><img src=""images/B_L_U_02.png"" alt=""map"" style=""width: 100%;""><img src=""images/R_D_U_28.png"" alt=""map"" style=""width: 100%;""><img src=""images/R_D_S_27.png"" alt=""map"" style=""width: 100%;""><img src=""images/R_L_S_23.png"" alt=""map"" style=""width: 100%;""><img src=""images/Y_D_U_15.png"" alt=""map"" style=""width: 100%;""><img src=""images/R_L_U_26.png"" alt=""map"" style=""width: 100%;""><img src=""images/G_L_S_30.png"" alt=""map"" style=""width: 100%;""><img src=""images/G_L_U_33.png"" alt=""map"" style=""width: 100%;""><img src=""images/G_D_S_37.png"" alt=""map"" style=""width: 100%;""><img src=""images/B_D_U_07.png"" alt=""map"" style=""width: 100%;""><img src=""images/Y_L_S_10.png"" alt=""map"" style=""width: 100%;""><img src=""images/B_L_S_44.png"" alt=""map"" style=""width: 100%;""><img src=""images/Y_D_S_13.png"" alt=""map"" style=""width: 100%;""><img src=""images/Y_L_U_12.png"" alt=""map"" style=""width: 100%;"">
                    </div>
                </div>

                    <!-- Clear floats -->
                    <div style=""clear: both;""></div>
                </div>
                            ","-17","","0","maps_anchoring.png","true","","","","","","","","","",""
"","","","","","html-button-response","7","77220","0.0-7.0","tb9rd582tu","7","4063","<div style=""width:800px;""><p style=""text-align:left"">To move the slider, click and drag your cursor to the location of the scale where you would like to make your rating and then let go. When you let go of the slider, your response will be recorded and the next trial will begin. <br>
                    We are interested in your initial impressions of each map for the given concept, so please go with your first intuition. <br>
                    Before you begin the experiment, there will be four training trials for you to practice using the scale. <br>
                     When you are ready to start the training trials, please click ""Continue"".</p><br></div>","0","","","","","","","","","","","","","",""
"","","","","","html-slider-response","8","79989","0.0-8.0-0.0","tb9rd582tu","7","NaN","<div style=""width:500px;"">
                                    <p style=""font-size:25px;"">Please move the slider all the way to the <br> right endpoint of the scale</p>

                                    </div>
                                </div>","200","","0","","true","0","true","","","","","","","",""
"","","","","","html-button-response","9","82460","0.0-8.0-1.0","tb9rd582tu","7","1970","<p align='center'><b>Good job!</b> Click on 'Continue' to proceed.</p>","0","","","","","","","","","","","","","",""
"","","","","","html-slider-response","10","84382","0.0-9.0-0.0","tb9rd582tu","7","NaN","<div style=""width:500px;"">
                                    <p style=""font-size:25px;"">Please move the slider all the way to the <br> left endpoint of the scale</p>

                                    </div>
                                </div>","-200","","0","","true","1","true","","","","","","","",""
"","","","","","html-button-response","11","86724","0.0-9.0-1.0","tb9rd582tu","7","1840","<p align='center'><b>Good job!</b> Click on 'Continue' to proceed.</p>","0","","","","","","","","","","","","","",""
"","","","","","html-slider-response","12","92534","0.0-10.0-0.0","tb9rd582tu","7","NaN","<div style=""width:500px;"">
                                    <p style=""font-size:25px;"">Please move the slider halfway between the center and right endpoint of the scale</p>

                                    </div>
                                </div>","103","","0","","true","2","true","","","","","","","",""
"","","","","","html-button-response","13","94191","0.0-10.0-1.0","tb9rd582tu","7","1154","<p align='center'><b>Good job!</b> Click on 'Continue' to proceed.</p>","0","","","","","","","","","","","","","",""
"","","","","","html-slider-response","14","96961","0.0-11.0-0.0","tb9rd582tu","7","NaN","<div style=""width:500px;"">
                                    <p style=""font-size:25px;"">Please move the slider halfway between the center and left endpoint of the scale</p>

                                    </div>
                                </div>","-120","","0","","true","3","false","","","","","","","",""
"","","","","","html-button-response","15","99231","0.0-11.0-1.0","tb9rd582tu","7","1769","<p align='center'><b>Not quite!</b> The slider was not placed near the instructed located. Click on 'Continue' to try again. </p>","0","","","","","","","","","","","","","",""
"","","","","","html-slider-response","16","101344","0.0-11.1-0.1","tb9rd582tu","7","NaN","<div style=""width:500px;"">
                                    <p style=""font-size:25px;"">Please move the slider halfway between the center and left endpoint of the scale</p>

                                    </div>
                                </div>","-111","","0","","true","3","false","","","","","","","",""
"","","","","","html-button-response","17","103695","0.0-11.1-1.1","tb9rd582tu","7","1850","<p align='center'><b>Not quite!</b> The slider was not placed near the instructed located. Click on 'Continue' to try again. </p>","0","","","","","","","","","","","","","",""
"","","","","","html-slider-response","18","109671","0.0-11.2-0.2","tb9rd582tu","7","NaN","<div style=""width:500px;"">
                                    <p style=""font-size:25px;"">Please move the slider halfway between the center and left endpoint of the scale</p>

                                    </div>
                                </div>","-108","","0","","true","3","true","","","","","","","",""
"","","","","","html-button-response","19","111364","0.0-11.2-1.2","tb9rd582tu","7","1190","<p align='center'><b>Good job!</b> Click on 'Continue' to proceed.</p>","0","","","","","","","","","","","","","",""
"","","","","","html-button-response","20","113284","0.0-12.0","tb9rd582tu","7","1919","<p>Great job! You've completed the practice trials. Now you will begin the main task.</p>","0","","","","","","","","","","","","","",""
"","","","","","html-button-response","21","116597","0.0-13.0","tb9rd582tu","7","3312","<p>In this block of trials, you will be asked to rate how much you associate each map with:</p > <p style = 'font-size:150%; font-weight: bold'>negative</p><br></br>","0","","","","","","","","","","","","","",""
"","","","","","html-slider-response","22","118342","0.0-14.0","tb9rd582tu","7","NaN","<div style=""width:500px;"">
                            <p style=""font-size:50px; font-weight:bold;""
                            >negative</p>
                            <div style=""width:240px; margin: auto;"">
                                <img src=""images/R_L_S_23.png"" style= ""width:200px""alt=""img"">
                            </div>
                        </div>","-200","","0","images/R_L_S_23.png","","","","negative","1","23","R","L","S","",""
"","","","","","html-slider-response","23","120454","0.0-15.0","tb9rd582tu","7","NaN","<div style=""width:500px;"">
                            <p style=""font-size:50px; font-weight:bold;""
                            >negative</p>
                            <div style=""width:240px; margin: auto;"">
                                <img src=""images/R_L_U_26.png"" style= ""width:200px""alt=""img"">
                            </div>
                        </div>","-200","","0","images/R_L_U_26.png","","","","negative","2","26","R","L","U","",""
"","","","","","html-slider-response","24","122173","0.0-16.0","tb9rd582tu","7","NaN","<div style=""width:500px;"">
                            <p style=""font-size:50px; font-weight:bold;""
                            >negative</p>
                            <div style=""width:240px; margin: auto;"">
                                <img src=""images/G_L_U_33.png"" style= ""width:200px""alt=""img"">
                            </div>
                        </div>","65","","0","images/G_L_U_33.png","","","","negative","1","33","G","L","U","",""
"","","","","","html-slider-response","25","123984","0.0-17.0","tb9rd582tu","7","NaN","<div style=""width:500px;"">
                            <p style=""font-size:50px; font-weight:bold;""
                            >negative</p>
                            <div style=""width:240px; margin: auto;"">
                                <img src=""images/Y_L_S_10.png"" style= ""width:200px""alt=""img"">
                            </div>
                        </div>","78","","0","images/Y_L_S_10.png","","","","negative","1","10","Y","L","S","",""
"","","","","","html-slider-response","26","126007","0.0-18.0","tb9rd582tu","7","NaN","<div style=""width:500px;"">
                            <p style=""font-size:50px; font-weight:bold;""
                            >negative</p>
                            <div style=""width:240px; margin: auto;"">
                                <img src=""images/R_D_U_28.png"" style= ""width:200px""alt=""img"">
                            </div>
                        </div>","-47","","0","images/R_D_U_28.png","","","","negative","1","28","R","D","U","",""
"","","","","","html-slider-response","27","127590","0.0-19.0","tb9rd582tu","7","NaN","<div style=""width:500px;"">
                            <p style=""font-size:50px; font-weight:bold;""
                            >negative</p>
                            <div style=""width:240px; margin: auto;"">
                                <img src=""images/Y_D_S_13.png"" style= ""width:200px""alt=""img"">
                            </div>
                        </div>","134","","0","images/Y_D_S_13.png","","","","negative","2","13","Y","D","S","",""
"","","","","","html-slider-response","28","129359","0.0-20.0","tb9rd582tu","7","NaN","<div style=""width:500px;"">
                            <p style=""font-size:50px; font-weight:bold;""
                            >negative</p>
                            <div style=""width:240px; margin: auto;"">
                                <img src=""images/G_L_U_33.png"" style= ""width:200px""alt=""img"">
                            </div>
                        </div>","-31","","0","images/G_L_U_33.png","","","","negative","2","33","G","L","U","",""
"","","","","","html-slider-response","29","130936","0.0-21.0","tb9rd582tu","7","NaN","<div style=""width:500px;"">
                            <p style=""font-size:50px; font-weight:bold;""
                            >negative</p>
                            <div style=""width:240px; margin: auto;"">
                                <img src=""images/G_L_S_30.png"" style= ""width:200px""alt=""img"">
                            </div>
                        </div>","-75","","0","images/G_L_S_30.png","","","","negative","1","30","G","L","S","",""
"","","","","","html-slider-response","30","132665","0.0-22.0","tb9rd582tu","7","NaN","<div style=""width:500px;"">
                            <p style=""font-size:50px; font-weight:bold;""
                            >negative</p>
                            <div style=""width:240px; margin: auto;"">
                                <img src=""images/G_L_S_30.png"" style= ""width:200px""alt=""img"">
                            </div>
                        </div>","-129","","0","images/G_L_S_30.png","","","","negative","2","30","G","L","S","",""
"","","","","","html-slider-response","31","135251","0.0-23.0","tb9rd582tu","7","NaN","<div style=""width:500px;"">
                            <p style=""font-size:50px; font-weight:bold;""
                            >negative</p>
                            <div style=""width:240px; margin: auto;"">
                                <img src=""images/Y_L_U_12.png"" style= ""width:200px""alt=""img"">
                            </div>
                        </div>","-151","","0","images/Y_L_U_12.png","","","","negative","2","12","Y","L","U","",""
"","","","","","html-slider-response","32","137335","0.0-24.0","tb9rd582tu","7","NaN","<div style=""width:500px;"">
                            <p style=""font-size:50px; font-weight:bold;""
                            >negative</p>
                            <div style=""width:240px; margin: auto;"">
                                <img src=""images/R_D_S_27.png"" style= ""width:200px""alt=""img"">
                            </div>
                        </div>","-200","","0","images/R_D_S_27.png","","","","negative","2","27","R","D","S","",""
"","","","","","html-slider-response","33","139961","0.0-25.0","tb9rd582tu","7","NaN","<div style=""width:500px;"">
                            <p style=""font-size:50px; font-weight:bold;""
                            >negative</p>
                            <div style=""width:240px; margin: auto;"">
                                <img src=""images/B_L_S_44.png"" style= ""width:200px""alt=""img"">
                            </div>
                        </div>","76","","0","images/B_L_S_44.png","","","","negative","1","44","B","L","S","",""
"","","","","","html-slider-response","34","141737","0.0-26.0","tb9rd582tu","7","NaN","<div style=""width:500px;"">
                            <p style=""font-size:50px; font-weight:bold;""
                            >negative</p>
                            <div style=""width:240px; margin: auto;"">
                                <img src=""images/R_L_S_23.png"" style= ""width:200px""alt=""img"">
                            </div>
                        </div>","-82","","0","images/R_L_S_23.png","","","","negative","2","23","R","L","S","",""
"","","","","","html-slider-response","35","143625","0.0-27.0","tb9rd582tu","7","NaN","<div style=""width:500px;"">
                            <p style=""font-size:50px; font-weight:bold;""
                            >negative</p>
                            <div style=""width:240px; margin: auto;"">
                                <img src=""images/Y_L_S_10.png"" style= ""width:200px""alt=""img"">
                            </div>
                        </div>","31","","0","images/Y_L_S_10.png","","","","negative","2","10","Y","L","S","",""
"","","","","","html-slider-response","36","145385","0.0-28.0","tb9rd582tu","7","NaN","<div style=""width:500px;"">
                            <p style=""font-size:50px; font-weight:bold;""
                            >negative</p>
                            <div style=""width:240px; margin: auto;"">
                                <img src=""images/G_D_U_41.png"" style= ""width:200px""alt=""img"">
                            </div>
                        </div>","34","","0","images/G_D_U_41.png","","","","negative","2","41","G","D","U","",""
"","","","","","html-slider-response","37","147090","0.0-29.0","tb9rd582tu","7","NaN","<div style=""width:500px;"">
                            <p style=""font-size:50px; font-weight:bold;""
                            >negative</p>
                            <div style=""width:240px; margin: auto;"">
                                <img src=""images/Y_D_S_13.png"" style= ""width:200px""alt=""img"">
                            </div>
                        </div>","200","","0","images/Y_D_S_13.png","","","","negative","1","13","Y","D","S","",""
"","","","","","html-slider-response","38","148915","0.0-30.0","tb9rd582tu","7","NaN","<div style=""width:500px;"">
                            <p style=""font-size:50px; font-weight:bold;""
                            >negative</p>
                            <div style=""width:240px; margin: auto;"">
                                <img src=""images/B_D_U_07.png"" style= ""width:200px""alt=""img"">
                            </div>
                        </div>","183","","0","images/B_D_U_07.png","","","","negative","2","07","B","D","U","",""
"","","","","","html-slider-response","39","151202","0.0-31.0","tb9rd582tu","7","NaN","<div style=""width:500px;"">
                            <p style=""font-size:50px; font-weight:bold;""
                            >negative</p>
                            <div style=""width:240px; margin: auto;"">
                                <img src=""images/B_D_S_05.png"" style= ""width:200px""alt=""img"">
                            </div>
                        </div>","-27","","0","images/B_D_S_05.png","","","","negative","1","05","B","D","S","",""
"","","","","","html-slider-response","40","153122","0.0-32.0","tb9rd582tu","7","NaN","<div style=""width:500px;"">
                            <p style=""font-size:50px; font-weight:bold;""
                            >negative</p>
                            <div style=""width:240px; margin: auto;"">
                                <img src=""images/B_L_U_02.png"" style= ""width:200px""alt=""img"">
                            </div>
                        </div>","-110","","0","images/B_L_U_02.png","","","","negative","1","02","B","L","U","",""
"","","","","","html-slider-response","41","154868","0.0-33.0","tb9rd582tu","7","NaN","<div style=""width:500px;"">
                            <p style=""font-size:50px; font-weight:bold;""
                            >negative</p>
                            <div style=""width:240px; margin: auto;"">
                                <img src=""images/Y_D_U_15.png"" style= ""width:200px""alt=""img"">
                            </div>
                        </div>","200","","0","images/Y_D_U_15.png","","","","negative","2","15","Y","D","U","",""
"","","","","","html-slider-response","42","156498","0.0-34.0","tb9rd582tu","7","NaN","<div style=""width:500px;"">
                            <p style=""font-size:50px; font-weight:bold;""
                            >negative</p>
                            <div style=""width:240px; margin: auto;"">
                                <img src=""images/B_D_U_07.png"" style= ""width:200px""alt=""img"">
                            </div>
                        </div>","73","","0","images/B_D_U_07.png","","","","negative","1","07","B","D","U","",""
"","","","","","html-slider-response","43","158161","0.0-35.0","tb9rd582tu","7","NaN","<div style=""width:500px;"">
                            <p style=""font-size:50px; font-weight:bold;""
                            >negative</p>
                            <div style=""width:240px; margin: auto;"">
                                <img src=""images/R_D_S_27.png"" style= ""width:200px""alt=""img"">
                            </div>
                        </div>","-109","","0","images/R_D_S_27.png","","","","negative","1","27","R","D","S","",""
"","","","","","html-slider-response","44","159673","0.0-36.0","tb9rd582tu","7","NaN","<div style=""width:500px;"">
                            <p style=""font-size:50px; font-weight:bold;""
                            >negative</p>
                            <div style=""width:240px; margin: auto;"">
                                <img src=""images/Y_D_U_15.png"" style= ""width:200px""alt=""img"">
                            </div>
                        </div>","200","","0","images/Y_D_U_15.png","","","","negative","1","15","Y","D","U","",""
"","","","","","html-slider-response","45","161401","0.0-37.0","tb9rd582tu","7","NaN","<div style=""width:500px;"">
                            <p style=""font-size:50px; font-weight:bold;""
                            >negative</p>
                            <div style=""width:240px; margin: auto;"">
                                <img src=""images/G_D_S_37.png"" style= ""width:200px""alt=""img"">
                            </div>
                        </div>","46","","0","images/G_D_S_37.png","","","","negative","1","37","G","D","S","",""
"","","","","","html-slider-response","46","162882","0.0-38.0","tb9rd582tu","7","NaN","<div style=""width:500px;"">
                            <p style=""font-size:50px; font-weight:bold;""
                            >negative</p>
                            <div style=""width:240px; margin: auto;"">
                                <img src=""images/B_L_S_44.png"" style= ""width:200px""alt=""img"">
                            </div>
                        </div>","-100","","0","images/B_L_S_44.png","","","","negative","2","44","B","L","S","",""
"","","","","","html-slider-response","47","164640","0.0-39.0","tb9rd582tu","7","NaN","<div style=""width:500px;"">
                            <p style=""font-size:50px; font-weight:bold;""
                            >negative</p>
                            <div style=""width:240px; margin: auto;"">
                                <img src=""images/Y_L_U_12.png"" style= ""width:200px""alt=""img"">
                            </div>
                        </div>","18","","0","images/Y_L_U_12.png","","","","negative","1","12","Y","L","U","",""
"","","","","","html-slider-response","48","166224","0.0-40.0","tb9rd582tu","7","NaN","<div style=""width:500px;"">
                            <p style=""font-size:50px; font-weight:bold;""
                            >negative</p>
                            <div style=""width:240px; margin: auto;"">
                                <img src=""images/R_D_U_28.png"" style= ""width:200px""alt=""img"">
                            </div>
                        </div>","133","","0","images/R_D_U_28.png","","","","negative","2","28","R","D","U","",""
"","","","","","html-slider-response","49","167729","0.0-41.0","tb9rd582tu","7","NaN","<div style=""width:500px;"">
                            <p style=""font-size:50px; font-weight:bold;""
                            >negative</p>
                            <div style=""width:240px; margin: auto;"">
                                <img src=""images/G_D_S_37.png"" style= ""width:200px""alt=""img"">
                            </div>
                        </div>","126","","0","images/G_D_S_37.png","","","","negative","2","37","G","D","S","",""
"","","","","","html-slider-response","50","169168","0.0-42.0","tb9rd582tu","7","NaN","<div style=""width:500px;"">
                            <p style=""font-size:50px; font-weight:bold;""
                            >negative</p>
                            <div style=""width:240px; margin: auto;"">
                                <img src=""images/B_L_U_02.png"" style= ""width:200px""alt=""img"">
                            </div>
                        </div>","-41","","0","images/B_L_U_02.png","","","","negative","2","02","B","L","U","",""
"","","","","","html-slider-response","51","170561","0.0-43.0","tb9rd582tu","7","NaN","<div style=""width:500px;"">
                            <p style=""font-size:50px; font-weight:bold;""
                            >negative</p>
                            <div style=""width:240px; margin: auto;"">
                                <img src=""images/B_D_S_05.png"" style= ""width:200px""alt=""img"">
                            </div>
                        </div>","106","","0","images/B_D_S_05.png","","","","negative","2","05","B","D","S","",""
"","","","","","html-slider-response","52","172089","0.0-44.0","tb9rd582tu","7","NaN","<div style=""width:500px;"">
                            <p style=""font-size:50px; font-weight:bold;""
                            >negative</p>
                            <div style=""width:240px; margin: auto;"">
                                <img src=""images/R_L_U_26.png"" style= ""width:200px""alt=""img"">
                            </div>
                        </div>","-57","","0","images/R_L_U_26.png","","","","negative","1","26","R","L","U","",""
"","","","","","html-slider-response","53","173667","0.0-45.0","tb9rd582tu","7","NaN","<div style=""width:500px;"">
                            <p style=""font-size:50px; font-weight:bold;""
                            >negative</p>
                            <div style=""width:240px; margin: auto;"">
                                <img src=""images/G_D_U_41.png"" style= ""width:200px""alt=""img"">
                            </div>
                        </div>","147","","0","images/G_D_U_41.png","","","","negative","1","41","G","D","U","",""
"","","","","","html-button-response","54","175916","0.0-46.0","tb9rd582tu","7","1747","<p>Great Job! You've finished block 1.<br></br> You have 7 block(s) left to go.<br></br></p>","0","","","","","","","","","","","","","",""
"","","","","","html-button-response","55","177090","0.0-47.0","tb9rd582tu","7","1172","<p>In this block of trials, you will be asked to rate how much you associate each map with:</p > <p style = 'font-size:150%; font-weight: bold'>playful</p><br></br>","0","","","","","","","","","","","","","",""
"","","","","","html-slider-response","56","178234","0.0-48.0","tb9rd582tu","7","NaN","<div style=""width:500px;"">
                            <p style=""font-size:50px; font-weight:bold;""
                            >playful</p>
                            <div style=""width:240px; margin: auto;"">
                                <img src=""images/B_L_S_44.png"" style= ""width:200px""alt=""img"">
                            </div>
                        </div>","143","","0","images/B_L_S_44.png","","","","playful","1","44","B","L","S","",""
"","","","","","html-slider-response","57","179626","0.0-49.0","tb9rd582tu","7","NaN","<div style=""width:500px;"">
                            <p style=""font-size:50px; font-weight:bold;""
                            >playful</p>
                            <div style=""width:240px; margin: auto;"">
                                <img src=""images/R_L_U_26.png"" style= ""width:200px""alt=""img"">
                            </div>
                        </div>","168","","0","images/R_L_U_26.png","","","","playful","1","26","R","L","U","",""
"","","","","","html-slider-response","58","181067","0.0-50.0","tb9rd582tu","7","NaN","<div style=""width:500px;"">
                            <p style=""font-size:50px; font-weight:bold;""
                            >playful</p>
                            <div style=""width:240px; margin: auto;"">
                                <img src=""images/B_L_U_02.png"" style= ""width:200px""alt=""img"">
                            </div>
                        </div>","152","","0","images/B_L_U_02.png","","","","playful","1","02","B","L","U","",""
"","","","","","html-slider-response","59","182609","0.0-51.0","tb9rd582tu","7","NaN","<div style=""width:500px;"">
                            <p style=""font-size:50px; font-weight:bold;""
                            >playful</p>
                            <div style=""width:240px; margin: auto;"">
                                <img src=""images/Y_L_U_12.png"" style= ""width:200px""alt=""img"">
                            </div>
                        </div>","141","","0","images/Y_L_U_12.png","","","","playful","1","12","Y","L","U","",""
"","","","","","html-slider-response","60","184243","0.0-52.0","tb9rd582tu","7","NaN","<div style=""width:500px;"">
                            <p style=""font-size:50px; font-weight:bold;""
                            >playful</p>
                            <div style=""width:240px; margin: auto;"">
                                <img src=""images/R_L_S_23.png"" style= ""width:200px""alt=""img"">
                            </div>
                        </div>","200","","0","images/R_L_S_23.png","","","","playful","1","23","R","L","S","",""
"","","","","","html-slider-response","61","185891","0.0-53.0","tb9rd582tu","7","NaN","<div style=""width:500px;"">
                            <p style=""font-size:50px; font-weight:bold;""
                            >playful</p>
                            <div style=""width:240px; margin: auto;"">
                                <img src=""images/Y_D_U_15.png"" style= ""width:200px""alt=""img"">
                            </div>
                        </div>","-198","","0","images/Y_D_U_15.png","","","","playful","2","15","Y","D","U","",""
"","","","","","html-slider-response","62","187403","0.0-54.0","tb9rd582tu","7","NaN","<div style=""width:500px;"">
                            <p style=""font-size:50px; font-weight:bold;""
                            >playful</p>
                            <div style=""width:240px; margin: auto;"">
                                <img src=""images/Y_L_S_10.png"" style= ""width:200px""alt=""img"">
                            </div>
                        </div>","58","","0","images/Y_L_S_10.png","","","","playful","1","10","Y","L","S","",""
"","","","","","html-slider-response","63","188883","0.0-55.0","tb9rd582tu","7","NaN","<div style=""width:500px;"">
                            <p style=""font-size:50px; font-weight:bold;""
                            >playful</p>
                            <div style=""width:240px; margin: auto;"">
                                <img src=""images/R_L_U_26.png"" style= ""width:200px""alt=""img"">
                            </div>
                        </div>","27","","0","images/R_L_U_26.png","","","","playful","2","26","R","L","U","",""
"","","","","","html-slider-response","64","190700","0.0-56.0","tb9rd582tu","7","NaN","<div style=""width:500px;"">
                            <p style=""font-size:50px; font-weight:bold;""
                            >playful</p>
                            <div style=""width:240px; margin: auto;"">
                                <img src=""images/Y_D_S_13.png"" style= ""width:200px""alt=""img"">
                            </div>
                        </div>","-200","","0","images/Y_D_S_13.png","","","","playful","1","13","Y","D","S","",""
"","","","","","html-slider-response","65","192404","0.0-57.0","tb9rd582tu","7","NaN","<div style=""width:500px;"">
                            <p style=""font-size:50px; font-weight:bold;""
                            >playful</p>
                            <div style=""width:240px; margin: auto;"">
                                <img src=""images/G_D_S_37.png"" style= ""width:200px""alt=""img"">
                            </div>
                        </div>","-43","","0","images/G_D_S_37.png","","","","playful","2","37","G","D","S","",""
"","","","","","html-slider-response","66","193827","0.0-58.0","tb9rd582tu","7","NaN","<div style=""width:500px;"">
                            <p style=""font-size:50px; font-weight:bold;""
                            >playful</p>
                            <div style=""width:240px; margin: auto;"">
                                <img src=""images/Y_L_S_10.png"" style= ""width:200px""alt=""img"">
                            </div>
                        </div>","162","","0","images/Y_L_S_10.png","","","","playful","2","10","Y","L","S","",""
"","","","","","html-slider-response","67","195165","0.0-59.0","tb9rd582tu","7","NaN","<div style=""width:500px;"">
                            <p style=""font-size:50px; font-weight:bold;""
                            >playful</p>
                            <div style=""width:240px; margin: auto;"">
                                <img src=""images/B_D_U_07.png"" style= ""width:200px""alt=""img"">
                            </div>
                        </div>","158","","0","images/B_D_U_07.png","","","","playful","2","07","B","D","U","",""
"","","","","","html-slider-response","68","196668","0.0-60.0","tb9rd582tu","7","NaN","<div style=""width:500px;"">
                            <p style=""font-size:50px; font-weight:bold;""
                            >playful</p>
                            <div style=""width:240px; margin: auto;"">
                                <img src=""images/B_D_S_05.png"" style= ""width:200px""alt=""img"">
                            </div>
                        </div>","122","","0","images/B_D_S_05.png","","","","playful","1","05","B","D","S","",""
"","","","","","html-slider-response","69","198156","0.0-61.0","tb9rd582tu","7","NaN","<div style=""width:500px;"">
                            <p style=""font-size:50px; font-weight:bold;""
                            >playful</p>
                            <div style=""width:240px; margin: auto;"">
                                <img src=""images/R_D_S_27.png"" style= ""width:200px""alt=""img"">
                            </div>
                        </div>","127","","0","images/R_D_S_27.png","","","","playful","2","27","R","D","S","",""
"","","","","","html-slider-response","70","199581","0.0-62.0","tb9rd582tu","7","NaN","<div style=""width:500px;"">
                            <p style=""font-size:50px; font-weight:bold;""
                            >playful</p>
                            <div style=""width:240px; margin: auto;"">
                                <img src=""images/G_D_U_41.png"" style= ""width:200px""alt=""img"">
                            </div>
                        </div>","-124","","0","images/G_D_U_41.png","","","","playful","2","41","G","D","U","",""
"","","","","","html-slider-response","71","201436","0.0-63.0","tb9rd582tu","7","NaN","<div style=""width:500px;"">
                            <p style=""font-size:50px; font-weight:bold;""
                            >playful</p>
                            <div style=""width:240px; margin: auto;"">
                                <img src=""images/B_L_S_44.png"" style= ""width:200px""alt=""img"">
                            </div>
                        </div>","130","","0","images/B_L_S_44.png","","","","playful","2","44","B","L","S","",""
"","","","","","html-slider-response","72","202981","0.0-64.0","tb9rd582tu","7","NaN","<div style=""width:500px;"">
                            <p style=""font-size:50px; font-weight:bold;""
                            >playful</p>
                            <div style=""width:240px; margin: auto;"">
                                <img src=""images/G_L_S_30.png"" style= ""width:200px""alt=""img"">
                            </div>
                        </div>","133","","0","images/G_L_S_30.png","","","","playful","2","30","G","L","S","",""
"","","","","","html-slider-response","73","204461","0.0-65.0","tb9rd582tu","7","NaN","<div style=""width:500px;"">
                            <p style=""font-size:50px; font-weight:bold;""
                            >playful</p>
                            <div style=""width:240px; margin: auto;"">
                                <img src=""images/Y_L_U_12.png"" style= ""width:200px""alt=""img"">
                            </div>
                        </div>","71","","0","images/Y_L_U_12.png","","","","playful","2","12","Y","L","U","",""
"","","","","","html-slider-response","74","205851","0.0-66.0","tb9rd582tu","7","NaN","<div style=""width:500px;"">
                            <p style=""font-size:50px; font-weight:bold;""
                            >playful</p>
                            <div style=""width:240px; margin: auto;"">
                                <img src=""images/G_D_U_41.png"" style= ""width:200px""alt=""img"">
                            </div>
                        </div>","-170","","0","images/G_D_U_41.png","","","","playful","1","41","G","D","U","",""
"","","","","","html-slider-response","75","207533","0.0-67.0","tb9rd582tu","7","NaN","<div style=""width:500px;"">
                            <p style=""font-size:50px; font-weight:bold;""
                            >playful</p>
                            <div style=""width:240px; margin: auto;"">
                                <img src=""images/Y_D_S_13.png"" style= ""width:200px""alt=""img"">
                            </div>
                        </div>","-200","","0","images/Y_D_S_13.png","","","","playful","2","13","Y","D","S","",""
"","","","","","html-slider-response","76","209541","0.0-68.0","tb9rd582tu","7","NaN","<div style=""width:500px;"">
                            <p style=""font-size:50px; font-weight:bold;""
                            >playful</p>
                            <div style=""width:240px; margin: auto;"">
                                <img src=""images/R_D_S_27.png"" style= ""width:200px""alt=""img"">
                            </div>
                        </div>","115","","0","images/R_D_S_27.png","","","","playful","1","27","R","D","S","",""
"","","","","","html-slider-response","77","211030","0.0-69.0","tb9rd582tu","7","NaN","<div style=""width:500px;"">
                            <p style=""font-size:50px; font-weight:bold;""
                            >playful</p>
                            <div style=""width:240px; margin: auto;"">
                                <img src=""images/G_L_S_30.png"" style= ""width:200px""alt=""img"">
                            </div>
                        </div>","91","","0","images/G_L_S_30.png","","","","playful","1","30","G","L","S","",""
"","","","","","html-slider-response","78","212437","0.0-70.0","tb9rd582tu","7","NaN","<div style=""width:500px;"">
                            <p style=""font-size:50px; font-weight:bold;""
                            >playful</p>
                            <div style=""width:240px; margin: auto;"">
                                <img src=""images/R_D_U_28.png"" style= ""width:200px""alt=""img"">
                            </div>
                        </div>","-68","","0","images/R_D_U_28.png","","","","playful","2","28","R","D","U","",""
"","","","","","html-slider-response","79","213997","0.0-71.0","tb9rd582tu","7","NaN","<div style=""width:500px;"">
                            <p style=""font-size:50px; font-weight:bold;""
                            >playful</p>
                            <div style=""width:240px; margin: auto;"">
                                <img src=""images/G_D_S_37.png"" style= ""width:200px""alt=""img"">
                            </div>
                        </div>","-80","","0","images/G_D_S_37.png","","","","playful","1","37","G","D","S","",""
"","","","","","html-slider-response","80","215524","0.0-72.0","tb9rd582tu","7","NaN","<div style=""width:500px;"">
                            <p style=""font-size:50px; font-weight:bold;""
                            >playful</p>
                            <div style=""width:240px; margin: auto;"">
                                <img src=""images/G_L_U_33.png"" style= ""width:200px""alt=""img"">
                            </div>
                        </div>","47","","0","images/G_L_U_33.png","","","","playful","1","33","G","L","U","",""
"","","","","","html-slider-response","81","217053","0.0-73.0","tb9rd582tu","7","NaN","<div style=""width:500px;"">
                            <p style=""font-size:50px; font-weight:bold;""
                            >playful</p>
                            <div style=""width:240px; margin: auto;"">
                                <img src=""images/B_L_U_02.png"" style= ""width:200px""alt=""img"">
                            </div>
                        </div>","27","","0","images/B_L_U_02.png","","","","playful","2","02","B","L","U","",""
"","","","","","html-slider-response","82","218437","0.0-74.0","tb9rd582tu","7","NaN","<div style=""width:500px;"">
                            <p style=""font-size:50px; font-weight:bold;""
                            >playful</p>
                            <div style=""width:240px; margin: auto;"">
                                <img src=""images/R_L_S_23.png"" style= ""width:200px""alt=""img"">
                            </div>
                        </div>","200","","0","images/R_L_S_23.png","","","","playful","2","23","R","L","S","",""
"","","","","","html-slider-response","83","219918","0.0-75.0","tb9rd582tu","7","NaN","<div style=""width:500px;"">
                            <p style=""font-size:50px; font-weight:bold;""
                            >playful</p>
                            <div style=""width:240px; margin: auto;"">
                                <img src=""images/B_D_S_05.png"" style= ""width:200px""alt=""img"">
                            </div>
                        </div>","-3","","0","images/B_D_S_05.png","","","","playful","2","05","B","D","S","",""
"","","","","","html-slider-response","84","221462","0.0-76.0","tb9rd582tu","7","NaN","<div style=""width:500px;"">
                            <p style=""font-size:50px; font-weight:bold;""
                            >playful</p>
                            <div style=""width:240px; margin: auto;"">
                                <img src=""images/Y_D_U_15.png"" style= ""width:200px""alt=""img"">
                            </div>
                        </div>","-200","","0","images/Y_D_U_15.png","","","","playful","1","15","Y","D","U","",""
"","","","","","html-slider-response","85","223189","0.0-77.0","tb9rd582tu","7","NaN","<div style=""width:500px;"">
                            <p style=""font-size:50px; font-weight:bold;""
                            >playful</p>
                            <div style=""width:240px; margin: auto;"">
                                <img src=""images/R_D_U_28.png"" style= ""width:200px""alt=""img"">
                            </div>
                        </div>","-42","","0","images/R_D_U_28.png","","","","playful","1","28","R","D","U","",""
"","","","","","html-slider-response","86","224692","0.0-78.0","tb9rd582tu","7","NaN","<div style=""width:500px;"">
                            <p style=""font-size:50px; font-weight:bold;""
                            >playful</p>
                            <div style=""width:240px; margin: auto;"">
                                <img src=""images/B_D_U_07.png"" style= ""width:200px""alt=""img"">
                            </div>
                        </div>","-107","","0","images/B_D_U_07.png","","","","playful","1","07","B","D","U","",""
"","","","","","html-slider-response","87","226357","0.0-79.0","tb9rd582tu","7","NaN","<div style=""width:500px;"">
                            <p style=""font-size:50px; font-weight:bold;""
                            >playful</p>
                            <div style=""width:240px; margin: auto;"">
                                <img src=""images/G_L_U_33.png"" style= ""width:200px""alt=""img"">
                            </div>
                        </div>","128","","0","images/G_L_U_33.png","","","","playful","2","33","G","L","U","",""
"","","","","","html-button-response","88","227869","0.0-80.0","tb9rd582tu","7","1010","<p>Great Job! You've finished block 2.<br></br> You have 6 block(s) left to go.<br></br></p>","0","","","","","","","","","","","","","",""
"","","","","","html-button-response","89","228837","0.0-81.0","tb9rd582tu","7","966","<p>In this block of trials, you will be asked to rate how much you associate each map with:</p > <p style = 'font-size:150%; font-weight: bold'>exciting</p><br></br>","0","","","","","","","","","","","","","",""
"","","","","","html-slider-response","90","229709","0.0-82.0","tb9rd582tu","7","NaN","<div style=""width:500px;"">
                            <p style=""font-size:50px; font-weight:bold;""
                            >exciting</p>
                            <div style=""width:240px; margin: auto;"">
                                <img src=""images/Y_D_S_13.png"" style= ""width:200px""alt=""img"">
                            </div>
                        </div>","-200","","0","images/Y_D_S_13.png","","","","exciting","2","13","Y","D","S","",""
"","","","","","html-slider-response","91","231350","0.0-83.0","tb9rd582tu","7","NaN","<div style=""width:500px;"">
                            <p style=""font-size:50px; font-weight:bold;""
                            >exciting</p>
                            <div style=""width:240px; margin: auto;"">
                                <img src=""images/Y_D_U_15.png"" style= ""width:200px""alt=""img"">
                            </div>
                        </div>","-200","","0","images/Y_D_U_15.png","","","","exciting","1","15","Y","D","U","",""
"","","","","","html-slider-response","92","233109","0.0-84.0","tb9rd582tu","7","NaN","<div style=""width:500px;"">
                            <p style=""font-size:50px; font-weight:bold;""
                            >exciting</p>
                            <div style=""width:240px; margin: auto;"">
                                <img src=""images/Y_D_U_15.png"" style= ""width:200px""alt=""img"">
                            </div>
                        </div>","-200","","0","images/Y_D_U_15.png","","","","exciting","2","15","Y","D","U","",""
"","","","","","html-slider-response","93","234958","0.0-85.0","tb9rd582tu","7","NaN","<div style=""width:500px;"">
                            <p style=""font-size:50px; font-weight:bold;""
                            >exciting</p>
                            <div style=""width:240px; margin: auto;"">
                                <img src=""images/G_D_S_37.png"" style= ""width:200px""alt=""img"">
                            </div>
                        </div>","-107","","0","images/G_D_S_37.png","","","","exciting","1","37","G","D","S","",""
"","","","","","html-slider-response","94","236567","0.0-86.0","tb9rd582tu","7","NaN","<div style=""width:500px;"">
                            <p style=""font-size:50px; font-weight:bold;""
                            >exciting</p>
                            <div style=""width:240px; margin: auto;"">
                                <img src=""images/B_D_U_07.png"" style= ""width:200px""alt=""img"">
                            </div>
                        </div>","-64","","0","images/B_D_U_07.png","","","","exciting","1","07","B","D","U","",""
"","","","","","html-slider-response","95","238049","0.0-87.0","tb9rd582tu","7","NaN","<div style=""width:500px;"">
                            <p style=""font-size:50px; font-weight:bold;""
                            >exciting</p>
                            <div style=""width:240px; margin: auto;"">
                                <img src=""images/Y_L_U_12.png"" style= ""width:200px""alt=""img"">
                            </div>
                        </div>","23","","0","images/Y_L_U_12.png","","","","exciting","1","12","Y","L","U","",""
"","","","","","html-slider-response","96","239472","0.0-88.0","tb9rd582tu","7","NaN","<div style=""width:500px;"">
                            <p style=""font-size:50px; font-weight:bold;""
                            >exciting</p>
                            <div style=""width:240px; margin: auto;"">
                                <img src=""images/Y_L_S_10.png"" style= ""width:200px""alt=""img"">
                            </div>
                        </div>","58","","0","images/Y_L_S_10.png","","","","exciting","1","10","Y","L","S","",""
"","","","","","html-slider-response","97","241151","0.0-89.0","tb9rd582tu","7","NaN","<div style=""width:500px;"">
                            <p style=""font-size:50px; font-weight:bold;""
                            >exciting</p>
                            <div style=""width:240px; margin: auto;"">
                                <img src=""images/B_D_S_05.png"" style= ""width:200px""alt=""img"">
                            </div>
                        </div>","-70","","0","images/B_D_S_05.png","","","","exciting","2","05","B","D","S","",""
"","","","","","html-slider-response","98","242671","0.0-90.0","tb9rd582tu","7","NaN","<div style=""width:500px;"">
                            <p style=""font-size:50px; font-weight:bold;""
                            >exciting</p>
                            <div style=""width:240px; margin: auto;"">
                                <img src=""images/Y_D_S_13.png"" style= ""width:200px""alt=""img"">
                            </div>
                        </div>","-200","","0","images/Y_D_S_13.png","","","","exciting","1","13","Y","D","S","",""
"","","","","","html-slider-response","99","244254","0.0-91.0","tb9rd582tu","7","NaN","<div style=""width:500px;"">
                            <p style=""font-size:50px; font-weight:bold;""
                            >exciting</p>
                            <div style=""width:240px; margin: auto;"">
                                <img src=""images/R_D_S_27.png"" style= ""width:200px""alt=""img"">
                            </div>
                        </div>","200","","0","images/R_D_S_27.png","","","","exciting","2","27","R","D","S","",""
"","","","","","html-slider-response","100","245633","0.0-92.0","tb9rd582tu","7","NaN","<div style=""width:500px;"">
                            <p style=""font-size:50px; font-weight:bold;""
                            >exciting</p>
                            <div style=""width:240px; margin: auto;"">
                                <img src=""images/R_D_U_28.png"" style= ""width:200px""alt=""img"">
                            </div>
                        </div>","-54","","0","images/R_D_U_28.png","","","","exciting","1","28","R","D","U","",""
"","","","","","html-slider-response","101","247064","0.0-93.0","tb9rd582tu","7","NaN","<div style=""width:500px;"">
                            <p style=""font-size:50px; font-weight:bold;""
                            >exciting</p>
                            <div style=""width:240px; margin: auto;"">
                                <img src=""images/B_D_U_07.png"" style= ""width:200px""alt=""img"">
                            </div>
                        </div>","-76","","0","images/B_D_U_07.png","","","","exciting","2","07","B","D","U","",""
"","","","","","html-slider-response","102","248664","0.0-94.0","tb9rd582tu","7","NaN","<div style=""width:500px;"">
                            <p style=""font-size:50px; font-weight:bold;""
                            >exciting</p>
                            <div style=""width:240px; margin: auto;"">
                                <img src=""images/B_L_U_02.png"" style= ""width:200px""alt=""img"">
                            </div>
                        </div>","36","","0","images/B_L_U_02.png","","","","exciting","2","02","B","L","U","",""
"","","","","","html-slider-response","103","250071","0.0-95.0","tb9rd582tu","7","NaN","<div style=""width:500px;"">
                            <p style=""font-size:50px; font-weight:bold;""
                            >exciting</p>
                            <div style=""width:240px; margin: auto;"">
                                <img src=""images/B_L_S_44.png"" style= ""width:200px""alt=""img"">
                            </div>
                        </div>","72","","0","images/B_L_S_44.png","","","","exciting","1","44","B","L","S","",""
"","","","","","html-slider-response","104","251503","0.0-96.0","tb9rd582tu","7","NaN","<div style=""width:500px;"">
                            <p style=""font-size:50px; font-weight:bold;""
                            >exciting</p>
                            <div style=""width:240px; margin: auto;"">
                                <img src=""images/R_D_U_28.png"" style= ""width:200px""alt=""img"">
                            </div>
                        </div>","-77","","0","images/R_D_U_28.png","","","","exciting","2","28","R","D","U","",""
"","","","","","html-slider-response","105","252822","0.0-97.0","tb9rd582tu","7","NaN","<div style=""width:500px;"">
                            <p style=""font-size:50px; font-weight:bold;""
                            >exciting</p>
                            <div style=""width:240px; margin: auto;"">
                                <img src=""images/G_L_U_33.png"" style= ""width:200px""alt=""img"">
                            </div>
                        </div>","91","","0","images/G_L_U_33.png","","","","exciting","1","33","G","L","U","",""
"","","","","","html-slider-response","106","254118","0.0-98.0","tb9rd582tu","7","NaN","<div style=""width:500px;"">
                            <p style=""font-size:50px; font-weight:bold;""
                            >exciting</p>
                            <div style=""width:240px; margin: auto;"">
                                <img src=""images/Y_L_U_12.png"" style= ""width:200px""alt=""img"">
                            </div>
                        </div>","90","","0","images/Y_L_U_12.png","","","","exciting","2","12","Y","L","U","",""
"","","","","","html-slider-response","107","255464","0.0-99.0","tb9rd582tu","7","NaN","<div style=""width:500px;"">
                            <p style=""font-size:50px; font-weight:bold;""
                            >exciting</p>
                            <div style=""width:240px; margin: auto;"">
                                <img src=""images/G_L_S_30.png"" style= ""width:200px""alt=""img"">
                            </div>
                        </div>","89","","0","images/G_L_S_30.png","","","","exciting","2","30","G","L","S","",""
"","","","","","html-slider-response","108","256854","0.0-100.0","tb9rd582tu","7","NaN","<div style=""width:500px;"">
                            <p style=""font-size:50px; font-weight:bold;""
                            >exciting</p>
                            <div style=""width:240px; margin: auto;"">
                                <img src=""images/R_D_S_27.png"" style= ""width:200px""alt=""img"">
                            </div>
                        </div>","47","","0","images/R_D_S_27.png","","","","exciting","1","27","R","D","S","",""
"","","","","","html-slider-response","109","258400","0.0-101.0","tb9rd582tu","7","NaN","<div style=""width:500px;"">
                            <p style=""font-size:50px; font-weight:bold;""
                            >exciting</p>
                            <div style=""width:240px; margin: auto;"">
                                <img src=""images/R_L_U_26.png"" style= ""width:200px""alt=""img"">
                            </div>
                        </div>","-106","","0","images/R_L_U_26.png","","","","exciting","1","26","R","L","U","",""
"","","","","","html-slider-response","110","259823","0.0-102.0","tb9rd582tu","7","NaN","<div style=""width:500px;"">
                            <p style=""font-size:50px; font-weight:bold;""
                            >exciting</p>
                            <div style=""width:240px; margin: auto;"">
                                <img src=""images/G_D_U_41.png"" style= ""width:200px""alt=""img"">
                            </div>
                        </div>","-200","","0","images/G_D_U_41.png","","","","exciting","2","41","G","D","U","",""
"","","","","","html-slider-response","111","261543","0.0-103.0","tb9rd582tu","7","NaN","<div style=""width:500px;"">
                            <p style=""font-size:50px; font-weight:bold;""
                            >exciting</p>
                            <div style=""width:240px; margin: auto;"">
                                <img src=""images/B_L_U_02.png"" style= ""width:200px""alt=""img"">
                            </div>
                        </div>","-27","","0","images/B_L_U_02.png","","","","exciting","1","02","B","L","U","",""
"","","","","","html-slider-response","112","263110","0.0-104.0","tb9rd582tu","7","NaN","<div style=""width:500px;"">
                            <p style=""font-size:50px; font-weight:bold;""
                            >exciting</p>
                            <div style=""width:240px; margin: auto;"">
                                <img src=""images/B_D_S_05.png"" style= ""width:200px""alt=""img"">
                            </div>
                        </div>","-82","","0","images/B_D_S_05.png","","","","exciting","1","05","B","D","S","",""
"","","","","","html-slider-response","113","264599","0.0-105.0","tb9rd582tu","7","NaN","<div style=""width:500px;"">
                            <p style=""font-size:50px; font-weight:bold;""
                            >exciting</p>
                            <div style=""width:240px; margin: auto;"">
                                <img src=""images/G_L_U_33.png"" style= ""width:200px""alt=""img"">
                            </div>
                        </div>","45","","0","images/G_L_U_33.png","","","","exciting","2","33","G","L","U","",""
"","","","","","html-slider-response","114","266119","0.0-106.0","tb9rd582tu","7","NaN","<div style=""width:500px;"">
                            <p style=""font-size:50px; font-weight:bold;""
                            >exciting</p>
                            <div style=""width:240px; margin: auto;"">
                                <img src=""images/G_D_S_37.png"" style= ""width:200px""alt=""img"">
                            </div>
                        </div>","-84","","0","images/G_D_S_37.png","","","","exciting","2","37","G","D","S","",""
"","","","","","html-slider-response","115","267497","0.0-107.0","tb9rd582tu","7","NaN","<div style=""width:500px;"">
                            <p style=""font-size:50px; font-weight:bold;""
                            >exciting</p>
                            <div style=""width:240px; margin: auto;"">
                                <img src=""images/B_L_S_44.png"" style= ""width:200px""alt=""img"">
                            </div>
                        </div>","43","","0","images/B_L_S_44.png","","","","exciting","2","44","B","L","S","",""
"","","","","","html-slider-response","116","268887","0.0-108.0","tb9rd582tu","7","NaN","<div style=""width:500px;"">
                            <p style=""font-size:50px; font-weight:bold;""
                            >exciting</p>
                            <div style=""width:240px; margin: auto;"">
                                <img src=""images/G_L_S_30.png"" style= ""width:200px""alt=""img"">
                            </div>
                        </div>","66","","0","images/G_L_S_30.png","","","","exciting","1","30","G","L","S","",""
"","","","","","html-slider-response","117","270303","0.0-109.0","tb9rd582tu","7","NaN","<div style=""width:500px;"">
                            <p style=""font-size:50px; font-weight:bold;""
                            >exciting</p>
                            <div style=""width:240px; margin: auto;"">
                                <img src=""images/G_D_U_41.png"" style= ""width:200px""alt=""img"">
                            </div>
                        </div>","-141","","0","images/G_D_U_41.png","","","","exciting","1","41","G","D","U","",""
"","","","","","html-slider-response","118","271800","0.0-110.0","tb9rd582tu","7","NaN","<div style=""width:500px;"">
                            <p style=""font-size:50px; font-weight:bold;""
                            >exciting</p>
                            <div style=""width:240px; margin: auto;"">
                                <img src=""images/R_L_S_23.png"" style= ""width:200px""alt=""img"">
                            </div>
                        </div>","82","","0","images/R_L_S_23.png","","","","exciting","2","23","R","L","S","",""
"","","","","","html-slider-response","119","273280","0.0-111.0","tb9rd582tu","7","NaN","<div style=""width:500px;"">
                            <p style=""font-size:50px; font-weight:bold;""
                            >exciting</p>
                            <div style=""width:240px; margin: auto;"">
                                <img src=""images/R_L_U_26.png"" style= ""width:200px""alt=""img"">
                            </div>
                        </div>","-96","","0","images/R_L_U_26.png","","","","exciting","2","26","R","L","U","",""
"","","","","","html-slider-response","120","274790","0.0-112.0","tb9rd582tu","7","NaN","<div style=""width:500px;"">
                            <p style=""font-size:50px; font-weight:bold;""
                            >exciting</p>
                            <div style=""width:240px; margin: auto;"">
                                <img src=""images/Y_L_S_10.png"" style= ""width:200px""alt=""img"">
                            </div>
                        </div>","117","","0","images/Y_L_S_10.png","","","","exciting","2","10","Y","L","S","",""
"","","","","","html-slider-response","121","276176","0.0-113.0","tb9rd582tu","7","NaN","<div style=""width:500px;"">
                            <p style=""font-size:50px; font-weight:bold;""
                            >exciting</p>
                            <div style=""width:240px; margin: auto;"">
                                <img src=""images/R_L_S_23.png"" style= ""width:200px""alt=""img"">
                            </div>
                        </div>","169","","0","images/R_L_S_23.png","","","","exciting","1","23","R","L","S","",""
"","","","","","html-button-response","122","277910","0.0-114.0","tb9rd582tu","7","1232","<p>Great Job! You've finished block 3.<br></br> You have 5 block(s) left to go.<br></br></p>","0","","","","","","","","","","","","","",""
"","","","","","html-button-response","123","278742","0.0-115.0","tb9rd582tu","7","831","<p>In this block of trials, you will be asked to rate how much you associate each map with:</p > <p style = 'font-size:150%; font-weight: bold'>calm</p><br></br>","0","","","","","","","","","","","","","",""
"","","","","","html-slider-response","124","279806","0.0-116.0","tb9rd582tu","7","NaN","<div style=""width:500px;"">
                            <p style=""font-size:50px; font-weight:bold;""
                            >calm</p>
                            <div style=""width:240px; margin: auto;"">
                                <img src=""images/G_L_S_30.png"" style= ""width:200px""alt=""img"">
                            </div>
                        </div>","18","","0","images/G_L_S_30.png","","","","calm","2","30","G","L","S","",""
"","","","","","html-slider-response","125","281454","0.0-117.0","tb9rd582tu","7","NaN","<div style=""width:500px;"">
                            <p style=""font-size:50px; font-weight:bold;""
                            >calm</p>
                            <div style=""width:240px; margin: auto;"">
                                <img src=""images/B_D_U_07.png"" style= ""width:200px""alt=""img"">
                            </div>
                        </div>","83","","0","images/B_D_U_07.png","","","","calm","1","07","B","D","U","",""
"","","","","","html-slider-response","126","283527","0.0-118.0","tb9rd582tu","7","NaN","<div style=""width:500px;"">
                            <p style=""font-size:50px; font-weight:bold;""
                            >calm</p>
                            <div style=""width:240px; margin: auto;"">
                                <img src=""images/R_D_S_27.png"" style= ""width:200px""alt=""img"">
                            </div>
                        </div>","-47","","0","images/R_D_S_27.png","","","","calm","2","27","R","D","S","",""
"","","","","","html-slider-response","127","285039","0.0-119.0","tb9rd582tu","7","NaN","<div style=""width:500px;"">
                            <p style=""font-size:50px; font-weight:bold;""
                            >calm</p>
                            <div style=""width:240px; margin: auto;"">
                                <img src=""images/G_L_U_33.png"" style= ""width:200px""alt=""img"">
                            </div>
                        </div>","-82","","0","images/G_L_U_33.png","","","","calm","2","33","G","L","U","",""
"","","","","","html-slider-response","128","286497","0.0-120.0","tb9rd582tu","7","NaN","<div style=""width:500px;"">
                            <p style=""font-size:50px; font-weight:bold;""
                            >calm</p>
                            <div style=""width:240px; margin: auto;"">
                                <img src=""images/R_D_U_28.png"" style= ""width:200px""alt=""img"">
                            </div>
                        </div>","74","","0","images/R_D_U_28.png","","","","calm","1","28","R","D","U","",""
"","","","","","html-slider-response","129","287817","0.0-121.0","tb9rd582tu","7","NaN","<div style=""width:500px;"">
                            <p style=""font-size:50px; font-weight:bold;""
                            >calm</p>
                            <div style=""width:240px; margin: auto;"">
                                <img src=""images/R_L_U_26.png"" style= ""width:200px""alt=""img"">
                            </div>
                        </div>","86","","0","images/R_L_U_26.png","","","","calm","2","26","R","L","U","",""
"","","","","","html-slider-response","130","289543","0.0-122.0","tb9rd582tu","7","NaN","<div style=""width:500px;"">
                            <p style=""font-size:50px; font-weight:bold;""
                            >calm</p>
                            <div style=""width:240px; margin: auto;"">
                                <img src=""images/B_D_S_05.png"" style= ""width:200px""alt=""img"">
                            </div>
                        </div>","131","","0","images/B_D_S_05.png","","","","calm","2","05","B","D","S","",""
"","","","","","html-slider-response","131","291080","0.0-123.0","tb9rd582tu","7","NaN","<div style=""width:500px;"">
                            <p style=""font-size:50px; font-weight:bold;""
                            >calm</p>
                            <div style=""width:240px; margin: auto;"">
                                <img src=""images/B_L_U_02.png"" style= ""width:200px""alt=""img"">
                            </div>
                        </div>","115","","0","images/B_L_U_02.png","","","","calm","1","02","B","L","U","",""
"","","","","","html-slider-response","132","292655","0.0-124.0","tb9rd582tu","7","NaN","<div style=""width:500px;"">
                            <p style=""font-size:50px; font-weight:bold;""
                            >calm</p>
                            <div style=""width:240px; margin: auto;"">
                                <img src=""images/G_D_U_41.png"" style= ""width:200px""alt=""img"">
                            </div>
                        </div>","-62","","0","images/G_D_U_41.png","","","","calm","1","41","G","D","U","",""
"","","","","","html-slider-response","133","294032","0.0-125.0","tb9rd582tu","7","NaN","<div style=""width:500px;"">
                            <p style=""font-size:50px; font-weight:bold;""
                            >calm</p>
                            <div style=""width:240px; margin: auto;"">
                                <img src=""images/Y_L_U_12.png"" style= ""width:200px""alt=""img"">
                            </div>
                        </div>","97","","0","images/Y_L_U_12.png","","","","calm","2","12","Y","L","U","",""
"","","","","","html-slider-response","134","295416","0.0-126.0","tb9rd582tu","7","NaN","<div style=""width:500px;"">
                            <p style=""font-size:50px; font-weight:bold;""
                            >calm</p>
                            <div style=""width:240px; margin: auto;"">
                                <img src=""images/Y_D_S_13.png"" style= ""width:200px""alt=""img"">
                            </div>
                        </div>","-110","","0","images/Y_D_S_13.png","","","","calm","1","13","Y","D","S","",""
"","","","","","html-slider-response","135","297191","0.0-127.0","tb9rd582tu","7","NaN","<div style=""width:500px;"">
                            <p style=""font-size:50px; font-weight:bold;""
                            >calm</p>
                            <div style=""width:240px; margin: auto;"">
                                <img src=""images/B_L_S_44.png"" style= ""width:200px""alt=""img"">
                            </div>
                        </div>","32","","0","images/B_L_S_44.png","","","","calm","1","44","B","L","S","",""
"","","","","","html-slider-response","136","298665","0.0-128.0","tb9rd582tu","7","NaN","<div style=""width:500px;"">
                            <p style=""font-size:50px; font-weight:bold;""
                            >calm</p>
                            <div style=""width:240px; margin: auto;"">
                                <img src=""images/G_L_U_33.png"" style= ""width:200px""alt=""img"">
                            </div>
                        </div>","70","","0","images/G_L_U_33.png","","","","calm","1","33","G","L","U","",""
"","","","","","html-slider-response","137","300032","0.0-129.0","tb9rd582tu","7","NaN","<div style=""width:500px;"">
                            <p style=""font-size:50px; font-weight:bold;""
                            >calm</p>
                            <div style=""width:240px; margin: auto;"">
                                <img src=""images/Y_D_S_13.png"" style= ""width:200px""alt=""img"">
                            </div>
                        </div>","-162","","0","images/Y_D_S_13.png","","","","calm","2","13","Y","D","S","",""
"","","","","","html-slider-response","138","301415","0.0-130.0","tb9rd582tu","7","NaN","<div style=""width:500px;"">
                            <p style=""font-size:50px; font-weight:bold;""
                            >calm</p>
                            <div style=""width:240px; margin: auto;"">
                                <img src=""images/R_D_S_27.png"" style= ""width:200px""alt=""img"">
                            </div>
                        </div>","29","","0","images/R_D_S_27.png","","","","calm","1","27","R","D","S","",""
"","","","","","html-slider-response","139","302711","0.0-131.0","tb9rd582tu","7","NaN","<div style=""width:500px;"">
                            <p style=""font-size:50px; font-weight:bold;""
                            >calm</p>
                            <div style=""width:240px; margin: auto;"">
                                <img src=""images/R_L_S_23.png"" style= ""width:200px""alt=""img"">
                            </div>
                        </div>","58","","0","images/R_L_S_23.png","","","","calm","2","23","R","L","S","",""
"","","","","","html-slider-response","140","304096","0.0-132.0","tb9rd582tu","7","NaN","<div style=""width:500px;"">
                            <p style=""font-size:50px; font-weight:bold;""
                            >calm</p>
                            <div style=""width:240px; margin: auto;"">
                                <img src=""images/R_L_S_23.png"" style= ""width:200px""alt=""img"">
                            </div>
                        </div>","22","","0","images/R_L_S_23.png","","","","calm","1","23","R","L","S","",""
"","","","","","html-slider-response","141","305534","0.0-133.0","tb9rd582tu","7","NaN","<div style=""width:500px;"">
                            <p style=""font-size:50px; font-weight:bold;""
                            >calm</p>
                            <div style=""width:240px; margin: auto;"">
                                <img src=""images/Y_D_U_15.png"" style= ""width:200px""alt=""img"">
                            </div>
                        </div>","-200","","0","images/Y_D_U_15.png","","","","calm","2","15","Y","D","U","",""
"","","","","","html-slider-response","142","307127","0.0-134.0","tb9rd582tu","7","NaN","<div style=""width:500px;"">
                            <p style=""font-size:50px; font-weight:bold;""
                            >calm</p>
                            <div style=""width:240px; margin: auto;"">
                                <img src=""images/G_D_U_41.png"" style= ""width:200px""alt=""img"">
                            </div>
                        </div>","-126","","0","images/G_D_U_41.png","","","","calm","2","41","G","D","U","",""
"","","","","","html-slider-response","143","308853","0.0-135.0","tb9rd582tu","7","NaN","<div style=""width:500px;"">
                            <p style=""font-size:50px; font-weight:bold;""
                            >calm</p>
                            <div style=""width:240px; margin: auto;"">
                                <img src=""images/G_D_S_37.png"" style= ""width:200px""alt=""img"">
                            </div>
                        </div>","34","","0","images/G_D_S_37.png","","","","calm","2","37","G","D","S","",""
"","","","","","html-slider-response","144","310110","0.0-136.0","tb9rd582tu","7","NaN","<div style=""width:500px;"">
                            <p style=""font-size:50px; font-weight:bold;""
                            >calm</p>
                            <div style=""width:240px; margin: auto;"">
                                <img src=""images/G_D_S_37.png"" style= ""width:200px""alt=""img"">
                            </div>
                        </div>","47","","0","images/G_D_S_37.png","","","","calm","1","37","G","D","S","",""
"","","","","","html-slider-response","145","311622","0.0-137.0","tb9rd582tu","7","NaN","<div style=""width:500px;"">
                            <p style=""font-size:50px; font-weight:bold;""
                            >calm</p>
                            <div style=""width:240px; margin: auto;"">
                                <img src=""images/B_L_S_44.png"" style= ""width:200px""alt=""img"">
                            </div>
                        </div>","18","","0","images/B_L_S_44.png","","","","calm","2","44","B","L","S","",""
"","","","","","html-slider-response","146","312863","0.0-138.0","tb9rd582tu","7","NaN","<div style=""width:500px;"">
                            <p style=""font-size:50px; font-weight:bold;""
                            >calm</p>
                            <div style=""width:240px; margin: auto;"">
                                <img src=""images/B_D_S_05.png"" style= ""width:200px""alt=""img"">
                            </div>
                        </div>","-74","","0","images/B_D_S_05.png","","","","calm","1","05","B","D","S","",""
"","","","","","html-slider-response","147","314038","0.0-139.0","tb9rd582tu","7","NaN","<div style=""width:500px;"">
                            <p style=""font-size:50px; font-weight:bold;""
                            >calm</p>
                            <div style=""width:240px; margin: auto;"">
                                <img src=""images/G_L_S_30.png"" style= ""width:200px""alt=""img"">
                            </div>
                        </div>","58","","0","images/G_L_S_30.png","","","","calm","1","30","G","L","S","",""
"","","","","","html-slider-response","148","315319","0.0-140.0","tb9rd582tu","7","NaN","<div style=""width:500px;"">
                            <p style=""font-size:50px; font-weight:bold;""
                            >calm</p>
                            <div style=""width:240px; margin: auto;"">
                                <img src=""images/B_D_U_07.png"" style= ""width:200px""alt=""img"">
                            </div>
                        </div>","-53","","0","images/B_D_U_07.png","","","","calm","2","07","B","D","U","",""
"","","","","","html-slider-response","149","316497","0.0-141.0","tb9rd582tu","7","NaN","<div style=""width:500px;"">
                            <p style=""font-size:50px; font-weight:bold;""
                            >calm</p>
                            <div style=""width:240px; margin: auto;"">
                                <img src=""images/Y_L_S_10.png"" style= ""width:200px""alt=""img"">
                            </div>
                        </div>","49","","0","images/Y_L_S_10.png","","","","calm","1","10","Y","L","S","",""
"","","","","","html-slider-response","150","317728","0.0-142.0","tb9rd582tu","7","NaN","<div style=""width:500px;"">
                            <p style=""font-size:50px; font-weight:bold;""
                            >calm</p>
                            <div style=""width:240px; margin: auto;"">
                                <img src=""images/Y_D_U_15.png"" style= ""width:200px""alt=""img"">
                            </div>
                        </div>","-87","","0","images/Y_D_U_15.png","","","","calm","1","15","Y","D","U","",""
"","","","","","html-slider-response","151","319030","0.0-143.0","tb9rd582tu","7","NaN","<div style=""width:500px;"">
                            <p style=""font-size:50px; font-weight:bold;""
                            >calm</p>
                            <div style=""width:240px; margin: auto;"">
                                <img src=""images/Y_L_S_10.png"" style= ""width:200px""alt=""img"">
                            </div>
                        </div>","78","","0","images/Y_L_S_10.png","","","","calm","2","10","Y","L","S","",""
"","","","","","html-slider-response","152","320335","0.0-144.0","tb9rd582tu","7","NaN","<div style=""width:500px;"">
                            <p style=""font-size:50px; font-weight:bold;""
                            >calm</p>
                            <div style=""width:240px; margin: auto;"">
                                <img src=""images/R_L_U_26.png"" style= ""width:200px""alt=""img"">
                            </div>
                        </div>","-200","","0","images/R_L_U_26.png","","","","calm","1","26","R","L","U","",""
"","","","","","html-slider-response","153","321697","0.0-145.0","tb9rd582tu","7","NaN","<div style=""width:500px;"">
                            <p style=""font-size:50px; font-weight:bold;""
                            >calm</p>
                            <div style=""width:240px; margin: auto;"">
                                <img src=""images/Y_L_U_12.png"" style= ""width:200px""alt=""img"">
                            </div>
                        </div>","15","","0","images/Y_L_U_12.png","","","","calm","1","12","Y","L","U","",""
"","","","","","html-slider-response","154","322897","0.0-146.0","tb9rd582tu","7","NaN","<div style=""width:500px;"">
                            <p style=""font-size:50px; font-weight:bold;""
                            >calm</p>
                            <div style=""width:240px; margin: auto;"">
                                <img src=""images/R_D_U_28.png"" style= ""width:200px""alt=""img"">
                            </div>
                        </div>","3","","0","images/R_D_U_28.png","","","","calm","2","28","R","D","U","",""
"","","","","","html-slider-response","155","324032","0.0-147.0","tb9rd582tu","7","NaN","<div style=""width:500px;"">
                            <p style=""font-size:50px; font-weight:bold;""
                            >calm</p>
                            <div style=""width:240px; margin: auto;"">
                                <img src=""images/B_L_U_02.png"" style= ""width:200px""alt=""img"">
                            </div>
                        </div>","34","","0","images/B_L_U_02.png","","","","calm","2","02","B","L","U","",""
"","","","","","html-button-response","156","325847","0.0-148.0","tb9rd582tu","7","1313","<p>Great Job! You've finished block 4.<br></br> You have 4 block(s) left to go.<br></br></p>","0","","","","","","","","","","","","","",""
"","","","","","html-button-response","157","326694","0.0-149.0","tb9rd582tu","7","845","<p>In this block of trials, you will be asked to rate how much you associate each map with:</p > <p style = 'font-size:150%; font-weight: bold'>serious</p><br></br>","0","","","","","","","","","","","","","",""
"","","","","","html-slider-response","158","327823","0.0-150.0","tb9rd582tu","7","NaN","<div style=""width:500px;"">
                            <p style=""font-size:50px; font-weight:bold;""
                            >serious</p>
                            <div style=""width:240px; margin: auto;"">
                                <img src=""images/R_D_U_28.png"" style= ""width:200px""alt=""img"">
                            </div>
                        </div>","200","","0","images/R_D_U_28.png","","","","serious","2","28","R","D","U","",""
"","","","","","html-slider-response","159","329682","0.0-151.0","tb9rd582tu","7","NaN","<div style=""width:500px;"">
                            <p style=""font-size:50px; font-weight:bold;""
                            >serious</p>
                            <div style=""width:240px; margin: auto;"">
                                <img src=""images/R_L_S_23.png"" style= ""width:200px""alt=""img"">
                            </div>
                        </div>","-43","","0","images/R_L_S_23.png","","","","serious","1","23","R","L","S","",""
"","","","","","html-slider-response","160","331088","0.0-152.0","tb9rd582tu","7","NaN","<div style=""width:500px;"">
                            <p style=""font-size:50px; font-weight:bold;""
                            >serious</p>
                            <div style=""width:240px; margin: auto;"">
                                <img src=""images/G_D_U_41.png"" style= ""width:200px""alt=""img"">
                            </div>
                        </div>","192","","0","images/G_D_U_41.png","","","","serious","2","41","G","D","U","",""
"","","","","","html-slider-response","161","332513","0.0-153.0","tb9rd582tu","7","NaN","<div style=""width:500px;"">
                            <p style=""font-size:50px; font-weight:bold;""
                            >serious</p>
                            <div style=""width:240px; margin: auto;"">
                                <img src=""images/B_D_S_05.png"" style= ""width:200px""alt=""img"">
                            </div>
                        </div>","130","","0","images/B_D_S_05.png","","","","serious","2","05","B","D","S","",""
"","","","","","html-slider-response","162","333865","0.0-154.0","tb9rd582tu","7","NaN","<div style=""width:500px;"">
                            <p style=""font-size:50px; font-weight:bold;""
                            >serious</p>
                            <div style=""width:240px; margin: auto;"">
                                <img src=""images/B_D_U_07.png"" style= ""width:200px""alt=""img"">
                            </div>
                        </div>","154","","0","images/B_D_U_07.png","","","","serious","2","07","B","D","U","",""
"","","","","","html-slider-response","163","335265","0.0-155.0","tb9rd582tu","7","NaN","<div style=""width:500px;"">
                            <p style=""font-size:50px; font-weight:bold;""
                            >serious</p>
                            <div style=""width:240px; margin: auto;"">
                                <img src=""images/R_D_S_27.png"" style= ""width:200px""alt=""img"">
                            </div>
                        </div>","-30","","0","images/R_D_S_27.png","","","","serious","1","27","R","D","S","",""
"","","","","","html-slider-response","164","336712","0.0-156.0","tb9rd582tu","7","NaN","<div style=""width:500px;"">
                            <p style=""font-size:50px; font-weight:bold;""
                            >serious</p>
                            <div style=""width:240px; margin: auto;"">
                                <img src=""images/R_L_U_26.png"" style= ""width:200px""alt=""img"">
                            </div>
                        </div>","30","","0","images/R_L_U_26.png","","","","serious","2","26","R","L","U","",""
"","","","","","html-slider-response","165","337882","0.0-157.0","tb9rd582tu","7","NaN","<div style=""width:500px;"">
                            <p style=""font-size:50px; font-weight:bold;""
                            >serious</p>
                            <div style=""width:240px; margin: auto;"">
                                <img src=""images/B_L_U_02.png"" style= ""width:200px""alt=""img"">
                            </div>
                        </div>","14","","0","images/B_L_U_02.png","","","","serious","2","02","B","L","U","",""
"","","","","","html-slider-response","166","338976","0.0-158.0","tb9rd582tu","7","NaN","<div style=""width:500px;"">
                            <p style=""font-size:50px; font-weight:bold;""
                            >serious</p>
                            <div style=""width:240px; margin: auto;"">
                                <img src=""images/Y_D_U_15.png"" style= ""width:200px""alt=""img"">
                            </div>
                        </div>","32","","0","images/Y_D_U_15.png","","","","serious","1","15","Y","D","U","",""
"","","","","","html-slider-response","167","340807","0.0-159.0","tb9rd582tu","7","NaN","<div style=""width:500px;"">
                            <p style=""font-size:50px; font-weight:bold;""
                            >serious</p>
                            <div style=""width:240px; margin: auto;"">
                                <img src=""images/R_L_S_23.png"" style= ""width:200px""alt=""img"">
                            </div>
                        </div>","14","","0","images/R_L_S_23.png","","","","serious","2","23","R","L","S","",""
"","","","","","html-slider-response","168","342752","0.0-160.0","tb9rd582tu","7","NaN","<div style=""width:500px;"">
                            <p style=""font-size:50px; font-weight:bold;""
                            >serious</p>
                            <div style=""width:240px; margin: auto;"">
                                <img src=""images/Y_D_U_15.png"" style= ""width:200px""alt=""img"">
                            </div>
                        </div>","130","","0","images/Y_D_U_15.png","","","","serious","2","15","Y","D","U","",""
"","","","","","html-slider-response","169","344167","0.0-161.0","tb9rd582tu","7","NaN","<div style=""width:500px;"">
                            <p style=""font-size:50px; font-weight:bold;""
                            >serious</p>
                            <div style=""width:240px; margin: auto;"">
                                <img src=""images/G_D_S_37.png"" style= ""width:200px""alt=""img"">
                            </div>
                        </div>","-38","","0","images/G_D_S_37.png","","","","serious","1","37","G","D","S","",""
"","","","","","html-slider-response","170","345513","0.0-162.0","tb9rd582tu","7","NaN","<div style=""width:500px;"">
                            <p style=""font-size:50px; font-weight:bold;""
                            >serious</p>
                            <div style=""width:240px; margin: auto;"">
                                <img src=""images/Y_L_U_12.png"" style= ""width:200px""alt=""img"">
                            </div>
                        </div>","74","","0","images/Y_L_U_12.png","","","","serious","2","12","Y","L","U","",""
"","","","","","html-slider-response","171","347217","0.0-163.0","tb9rd582tu","7","NaN","<div style=""width:500px;"">
                            <p style=""font-size:50px; font-weight:bold;""
                            >serious</p>
                            <div style=""width:240px; margin: auto;"">
                                <img src=""images/Y_D_S_13.png"" style= ""width:200px""alt=""img"">
                            </div>
                        </div>","155","","0","images/Y_D_S_13.png","","","","serious","2","13","Y","D","S","",""
"","","","","","html-slider-response","172","348640","0.0-164.0","tb9rd582tu","7","NaN","<div style=""width:500px;"">
                            <p style=""font-size:50px; font-weight:bold;""
                            >serious</p>
                            <div style=""width:240px; margin: auto;"">
                                <img src=""images/Y_L_S_10.png"" style= ""width:200px""alt=""img"">
                            </div>
                        </div>","-42","","0","images/Y_L_S_10.png","","","","serious","2","10","Y","L","S","",""
"","","","","","html-slider-response","173","350104","0.0-165.0","tb9rd582tu","7","NaN","<div style=""width:500px;"">
                            <p style=""font-size:50px; font-weight:bold;""
                            >serious</p>
                            <div style=""width:240px; margin: auto;"">
                                <img src=""images/G_D_S_37.png"" style= ""width:200px""alt=""img"">
                            </div>
                        </div>","138","","0","images/G_D_S_37.png","","","","serious","2","37","G","D","S","",""
"","","","","","html-slider-response","174","351530","0.0-166.0","tb9rd582tu","7","NaN","<div style=""width:500px;"">
                            <p style=""font-size:50px; font-weight:bold;""
                            >serious</p>
                            <div style=""width:240px; margin: auto;"">
                                <img src=""images/G_L_S_30.png"" style= ""width:200px""alt=""img"">
                            </div>
                        </div>","-111","","0","images/G_L_S_30.png","","","","serious","2","30","G","L","S","",""
"","","","","","html-slider-response","175","352872","0.0-167.0","tb9rd582tu","7","NaN","<div style=""width:500px;"">
                            <p style=""font-size:50px; font-weight:bold;""
                            >serious</p>
                            <div style=""width:240px; margin: auto;"">
                                <img src=""images/G_L_U_33.png"" style= ""width:200px""alt=""img"">
                            </div>
                        </div>","-117","","0","images/G_L_U_33.png","","","","serious","1","33","G","L","U","",""
"","","","","","html-slider-response","176","354272","0.0-168.0","tb9rd582tu","7","NaN","<div style=""width:500px;"">
                            <p style=""font-size:50px; font-weight:bold;""
                            >serious</p>
                            <div style=""width:240px; margin: auto;"">
                                <img src=""images/G_L_S_30.png"" style= ""width:200px""alt=""img"">
                            </div>
                        </div>","-116","","0","images/G_L_S_30.png","","","","serious","1","30","G","L","S","",""
"","","","","","html-slider-response","177","355865","0.0-169.0","tb9rd582tu","7","NaN","<div style=""width:500px;"">
                            <p style=""font-size:50px; font-weight:bold;""
                            >serious</p>
                            <div style=""width:240px; margin: auto;"">
                                <img src=""images/B_L_S_44.png"" style= ""width:200px""alt=""img"">
                            </div>
                        </div>","18","","0","images/B_L_S_44.png","","","","serious","2","44","B","L","S","",""
"","","","","","html-slider-response","178","357200","0.0-170.0","tb9rd582tu","7","NaN","<div style=""width:500px;"">
                            <p style=""font-size:50px; font-weight:bold;""
                            >serious</p>
                            <div style=""width:240px; margin: auto;"">
                                <img src=""images/B_D_U_07.png"" style= ""width:200px""alt=""img"">
                            </div>
                        </div>","200","","0","images/B_D_U_07.png","","","","serious","1","07","B","D","U","",""
"","","","","","html-slider-response","179","358808","0.0-171.0","tb9rd582tu","7","NaN","<div style=""width:500px;"">
                            <p style=""font-size:50px; font-weight:bold;""
                            >serious</p>
                            <div style=""width:240px; margin: auto;"">
                                <img src=""images/Y_D_S_13.png"" style= ""width:200px""alt=""img"">
                            </div>
                        </div>","120","","0","images/Y_D_S_13.png","","","","serious","1","13","Y","D","S","",""
"","","","","","html-slider-response","180","360183","0.0-172.0","tb9rd582tu","7","NaN","<div style=""width:500px;"">
                            <p style=""font-size:50px; font-weight:bold;""
                            >serious</p>
                            <div style=""width:240px; margin: auto;"">
                                <img src=""images/R_D_S_27.png"" style= ""width:200px""alt=""img"">
                            </div>
                        </div>","-18","","0","images/R_D_S_27.png","","","","serious","2","27","R","D","S","",""
"","","","","","html-slider-response","181","361408","0.0-173.0","tb9rd582tu","7","NaN","<div style=""width:500px;"">
                            <p style=""font-size:50px; font-weight:bold;""
                            >serious</p>
                            <div style=""width:240px; margin: auto;"">
                                <img src=""images/R_L_U_26.png"" style= ""width:200px""alt=""img"">
                            </div>
                        </div>","50","","0","images/R_L_U_26.png","","","","serious","1","26","R","L","U","",""
"","","","","","html-slider-response","182","362714","0.0-174.0","tb9rd582tu","7","NaN","<div style=""width:500px;"">
                            <p style=""font-size:50px; font-weight:bold;""
                            >serious</p>
                            <div style=""width:240px; margin: auto;"">
                                <img src=""images/B_L_U_02.png"" style= ""width:200px""alt=""img"">
                            </div>
                        </div>","-81","","0","images/B_L_U_02.png","","","","serious","1","02","B","L","U","",""
"","","","","","html-slider-response","183","364248","0.0-175.0","tb9rd582tu","7","NaN","<div style=""width:500px;"">
                            <p style=""font-size:50px; font-weight:bold;""
                            >serious</p>
                            <div style=""width:240px; margin: auto;"">
                                <img src=""images/B_D_S_05.png"" style= ""width:200px""alt=""img"">
                            </div>
                        </div>","73","","0","images/B_D_S_05.png","","","","serious","1","05","B","D","S","",""
"","","","","","html-slider-response","184","365632","0.0-176.0","tb9rd582tu","7","NaN","<div style=""width:500px;"">
                            <p style=""font-size:50px; font-weight:bold;""
                            >serious</p>
                            <div style=""width:240px; margin: auto;"">
                                <img src=""images/Y_L_S_10.png"" style= ""width:200px""alt=""img"">
                            </div>
                        </div>","-26","","0","images/Y_L_S_10.png","","","","serious","1","10","Y","L","S","",""
"","","","","","html-slider-response","185","367001","0.0-177.0","tb9rd582tu","7","NaN","<div style=""width:500px;"">
                            <p style=""font-size:50px; font-weight:bold;""
                            >serious</p>
                            <div style=""width:240px; margin: auto;"">
                                <img src=""images/B_L_S_44.png"" style= ""width:200px""alt=""img"">
                            </div>
                        </div>","14","","0","images/B_L_S_44.png","","","","serious","1","44","B","L","S","",""
"","","","","","html-slider-response","186","368513","0.0-178.0","tb9rd582tu","7","NaN","<div style=""width:500px;"">
                            <p style=""font-size:50px; font-weight:bold;""
                            >serious</p>
                            <div style=""width:240px; margin: auto;"">
                                <img src=""images/G_D_U_41.png"" style= ""width:200px""alt=""img"">
                            </div>
