"success","timeout","failed_images","failed_audio","failed_video","trial_type","trial_index","time_elapsed","internal_node_id","subject_id","condition_num","rt","stimulus","response","question_order","slider_start","image_path","practiceTrial","practiceTrialNum","correct","concept","repetition","map_id","hue","lightness","saturation","ishihara_plate","correct_response"
"true","false","[]","[]","[]","preload","0","1018","0.0-0.0","tnxfe33xem","8","","","","","","","","","","","","","","","","",""
"","","","","","html-button-response","1","8270","0.0-1.0","tnxfe33xem","8","7252","Welcome to our experiment!<p>At the bottom of this screen, you will see a button that says ""Begin Experiment"".<br>Please only click that button when you are ready to complete the 25 minute experiment in one sitting.</p><p> Once you click that button, it will not be possible to restart the experiment.","0","","","","","","","","","","","","","",""
"true","","","","","fullscreen","2","13114","0.0-2.0","tnxfe33xem","8","3840","","","","","","","","","","","","","","","",""
"","","","","","survey-multi-select","3","23183","0.0-3.0","tnxfe33xem","8","10065","","{""Consent"":[""<strong>I consent</strong>""]}","[0]","","","","","","","","","","","","",""
"","","","","","html-button-response","4","24464","0.0-4.0","tnxfe33xem","8","1274","Welcome! <p> This experiment involves two parts: demographic information, followed by the experimental task.<p> It will take about 25 minutes to complete both parts.","0","","","","","","","","","","","","","",""
"","","","","","survey-text","5","46774","0.0-5.0","tnxfe33xem","8","22298","","{""Age"":""19"",""Gender"":""Male"",""Race/ethnicity"":""White"",""Languages"":""English, Sign Language, some Spanish ""}","","","","","","","","","","","","","",""
"","","","","","html-slider-response","6","71564","0.0-6.0","tnxfe33xem","8","24789","
                            <div style='text-align:left; font-size:20px; line-height:25px; width: 1400px;'>
                                During this experiment you will be asked to rate how much you associate maps with                    different concepts.<br> Below, you can see some examples of the maps you will be asked to rate. Next to the maps
                    is the list of concepts.<br>You will be asked                    to rate how much you associate each map with each concept on a scale from 'not at all' to 'very much' like the
                    one below. <br><br>
                    Now, please look at the list of concepts and maps. For each concept, think about the map you associate 'very
                    much' with the concept.<br>                     When you see that map during the experiment, please rate it near the 'very much' endpoint of the
                    scale.<br>Now, please think about which map you associate 'not at all'                     with each concept. When you see that map during the experiment, please rate it near the 'not at all' endpoint
                    of the scale.<br>
                    Please use the full range of the scale. That is, if a map is somewhat associated with the concept, you would
                    click partway between the middle point and right side of the scale.                    You will be asked to rate each map for a given concept before moving on to the next concept.<br><br>Press the
                    'Continue' button for instructions on how to use the slider.                    <br><br>
                </div>

                <div style=""width: 500px; margin: 0 auto;"">
                    <!-- Centered text paragraphs -->
                    <div style=""text-align: center; width: 500px;"">
                        <p style=""font-size:25px; line-height:18px;"">calm</p>
                        <p style=""font-size:25px; line-height:18px;"">exciting</p>
                        <p style=""font-size:25px;line-height:18px;"">positive</p>
                        <p style=""font-size:25px;line-height:18px;"">negative</p>
                        <p style=""font-size:25px;line-height:18px;"">serious</p>
                        <p style=""font-size:25px;line-height:18px;"">playful</p>
                        <p style=""font-size:25px;line-height:18px;"">trustworthy</p>
                        <p style=""font-size:25px;line-height:18px;"">disturbing</p>
                    </div>

                    <!-- Grid section -->
                   <div style=""display: flex; justify-content: center; padding-top: 15px;"">
                    <div style=""display: grid; grid-template-columns: repeat(8, 80px); grid-gap: 5px; width: auto;"">
                        <img src=""images/R_L_S_26.png"" alt=""map"" style=""width: 100%;""><img src=""images/G_L_U_37.png"" alt=""map"" style=""width: 100%;""><img src=""images/R_L_U_27.png"" alt=""map"" style=""width: 100%;""><img src=""images/Y_D_S_15.png"" alt=""map"" style=""width: 100%;""><img src=""images/Y_D_U_23.png"" alt=""map"" style=""width: 100%;""><img src=""images/G_L_S_33.png"" alt=""map"" style=""width: 100%;""><img src=""images/Y_L_U_13.png"" alt=""map"" style=""width: 100%;""><img src=""images/B_L_U_05.png"" alt=""map"" style=""width: 100%;""><img src=""images/B_D_S_07.png"" alt=""map"" style=""width: 100%;""><img src=""images/R_D_S_28.png"" alt=""map"" style=""width: 100%;""><img src=""images/B_L_S_02.png"" alt=""map"" style=""width: 100%;""><img src=""images/Y_L_S_12.png"" alt=""map"" style=""width: 100%;""><img src=""images/B_D_U_10.png"" alt=""map"" style=""width: 100%;""><img src=""images/G_D_S_41.png"" alt=""map"" style=""width: 100%;""><img src=""images/G_D_U_44.png"" alt=""map"" style=""width: 100%;""><img src=""images/R_D_U_30.png"" alt=""map"" style=""width: 100%;"">
                    </div>
                </div>

                    <!-- Clear floats -->
                    <div style=""clear: both;""></div>
                </div>
                            ","-34","","0","maps_anchoring.png","true","","","","","","","","","",""
"","","","","","html-button-response","7","72731","0.0-7.0","tnxfe33xem","8","1166","<div style=""width:800px;""><p style=""text-align:left"">To move the slider, click and drag your cursor to the location of the scale where you would like to make your rating and then let go. When you let go of the slider, your response will be recorded and the next trial will begin. <br>
                    We are interested in your initial impressions of each map for the given concept, so please go with your first intuition. <br>
                    Before you begin the experiment, there will be four training trials for you to practice using the scale. <br>
                     When you are ready to start the training trials, please click ""Continue"".</p><br></div>","0","","","","","","","","","","","","","",""
"","","","","","html-slider-response","8","76550","0.0-8.0-0.0","tnxfe33xem","8","NaN","<div style=""width:500px;"">
                                    <p style=""font-size:25px;"">Please move the slider all the way to the <br> right endpoint of the scale</p>

                                    </div>
                                </div>","200","","0","","true","0","true","","","","","","","",""
"","","","","","html-button-response","9","78139","0.0-8.0-1.0","tnxfe33xem","8","1086","<p align='center'><b>Good job!</b> Click on 'Continue' to proceed.</p>","0","","","","","","","","","","","","","",""
"","","","","","html-slider-response","10","80526","0.0-9.0-0.0","tnxfe33xem","8","NaN","<div style=""width:500px;"">
                                    <p style=""font-size:25px;"">Please move the slider all the way to the <br> left endpoint of the scale</p>

                                    </div>
                                </div>","-200","","0","","true","1","true","","","","","","","",""
"","","","","","html-button-response","11","81995","0.0-9.0-1.0","tnxfe33xem","8","967","<p align='center'><b>Good job!</b> Click on 'Continue' to proceed.</p>","0","","","","","","","","","","","","","",""
"","","","","","html-slider-response","12","87981","0.0-10.0-0.0","tnxfe33xem","8","NaN","<div style=""width:500px;"">
                                    <p style=""font-size:25px;"">Please move the slider halfway between the center and right endpoint of the scale</p>

                                    </div>
                                </div>","102","","0","","true","2","true","","","","","","","",""
"","","","","","html-button-response","13","89499","0.0-10.0-1.0","tnxfe33xem","8","1016","<p align='center'><b>Good job!</b> Click on 'Continue' to proceed.</p>","0","","","","","","","","","","","","","",""
"","","","","","html-slider-response","14","92102","0.0-11.0-0.0","tnxfe33xem","8","NaN","<div style=""width:500px;"">
                                    <p style=""font-size:25px;"">Please move the slider halfway between the center and left endpoint of the scale</p>

                                    </div>
                                </div>","-110","","0","","true","3","true","","","","","","","",""
"","","","","","html-button-response","15","93475","0.0-11.0-1.0","tnxfe33xem","8","871","<p align='center'><b>Good job!</b> Click on 'Continue' to proceed.</p>","0","","","","","","","","","","","","","",""
"","","","","","html-button-response","16","95295","0.0-12.0","tnxfe33xem","8","1819","<p>Great job! You've completed the practice trials. Now you will begin the main task.</p>","0","","","","","","","","","","","","","",""
"","","","","","html-button-response","17","98747","0.0-13.0","tnxfe33xem","8","3451","<p>In this block of trials, you will be asked to rate how much you associate each map with:</p > <p style = 'font-size:150%; font-weight: bold'>serious</p><br></br>","0","","","","","","","","","","","","","",""
"","","","","","html-slider-response","18","106636","0.0-14.0","tnxfe33xem","8","NaN","<div style=""width:500px;"">
                            <p style=""font-size:50px; font-weight:bold;""
                            >serious</p>
                            <div style=""width:240px; margin: auto;"">
                                <img src=""images/G_D_U_44.png"" style= ""width:200px""alt=""img"">
                            </div>
                        </div>","-136","","0","images/G_D_U_44.png","","","","serious","1","44","G","D","U","",""
"","","","","","html-slider-response","19","108409","0.0-15.0","tnxfe33xem","8","NaN","<div style=""width:500px;"">
                            <p style=""font-size:50px; font-weight:bold;""
                            >serious</p>
                            <div style=""width:240px; margin: auto;"">
                                <img src=""images/R_L_U_27.png"" style= ""width:200px""alt=""img"">
                            </div>
                        </div>","-9","","0","images/R_L_U_27.png","","","","serious","1","27","R","L","U","",""
"","","","","","html-slider-response","20","110916","0.0-16.0","tnxfe33xem","8","NaN","<div style=""width:500px;"">
                            <p style=""font-size:50px; font-weight:bold;""
                            >serious</p>
                            <div style=""width:240px; margin: auto;"">
                                <img src=""images/B_L_U_05.png"" style= ""width:200px""alt=""img"">
                            </div>
                        </div>","-142","","0","images/B_L_U_05.png","","","","serious","1","05","B","L","U","",""
"","","","","","html-slider-response","21","114276","0.0-17.0","tnxfe33xem","8","NaN","<div style=""width:500px;"">
                            <p style=""font-size:50px; font-weight:bold;""
                            >serious</p>
                            <div style=""width:240px; margin: auto;"">
                                <img src=""images/R_L_S_26.png"" style= ""width:200px""alt=""img"">
                            </div>
                        </div>","-138","","0","images/R_L_S_26.png","","","","serious","1","26","R","L","S","",""
"","","","","","html-slider-response","22","117061","0.0-18.0","tnxfe33xem","8","NaN","<div style=""width:500px;"">
                            <p style=""font-size:50px; font-weight:bold;""
                            >serious</p>
                            <div style=""width:240px; margin: auto;"">
                                <img src=""images/B_L_S_02.png"" style= ""width:200px""alt=""img"">
                            </div>
                        </div>","-132","","0","images/B_L_S_02.png","","","","serious","1","02","B","L","S","",""
"","","","","","html-slider-response","23","120328","0.0-19.0","tnxfe33xem","8","NaN","<div style=""width:500px;"">
                            <p style=""font-size:50px; font-weight:bold;""
                            >serious</p>
                            <div style=""width:240px; margin: auto;"">
                                <img src=""images/Y_D_S_15.png"" style= ""width:200px""alt=""img"">
                            </div>
                        </div>","83","","0","images/Y_D_S_15.png","","","","serious","1","15","Y","D","S","",""
"","","","","","html-slider-response","24","122703","0.0-20.0","tnxfe33xem","8","NaN","<div style=""width:500px;"">
                            <p style=""font-size:50px; font-weight:bold;""
                            >serious</p>
                            <div style=""width:240px; margin: auto;"">
                                <img src=""images/B_L_U_05.png"" style= ""width:200px""alt=""img"">
                            </div>
                        </div>","-122","","0","images/B_L_U_05.png","","","","serious","2","05","B","L","U","",""
"","","","","","html-slider-response","25","127656","0.0-21.0","tnxfe33xem","8","NaN","<div style=""width:500px;"">
                            <p style=""font-size:50px; font-weight:bold;""
                            >serious</p>
                            <div style=""width:240px; margin: auto;"">
                                <img src=""images/R_D_S_28.png"" style= ""width:200px""alt=""img"">
                            </div>
                        </div>","-200","","0","images/R_D_S_28.png","","","","serious","1","28","R","D","S","",""
"","","","","","html-slider-response","26","131567","0.0-22.0","tnxfe33xem","8","NaN","<div style=""width:500px;"">
                            <p style=""font-size:50px; font-weight:bold;""
                            >serious</p>
                            <div style=""width:240px; margin: auto;"">
                                <img src=""images/R_D_U_30.png"" style= ""width:200px""alt=""img"">
                            </div>
                        </div>","-15","","0","images/R_D_U_30.png","","","","serious","1","30","R","D","U","",""
"","","","","","html-slider-response","27","134169","0.0-23.0","tnxfe33xem","8","NaN","<div style=""width:500px;"">
                            <p style=""font-size:50px; font-weight:bold;""
                            >serious</p>
                            <div style=""width:240px; margin: auto;"">
                                <img src=""images/Y_L_U_13.png"" style= ""width:200px""alt=""img"">
                            </div>
                        </div>","102","","0","images/Y_L_U_13.png","","","","serious","2","13","Y","L","U","",""
"","","","","","html-slider-response","28","136944","0.0-24.0","tnxfe33xem","8","NaN","<div style=""width:500px;"">
                            <p style=""font-size:50px; font-weight:bold;""
                            >serious</p>
                            <div style=""width:240px; margin: auto;"">
                                <img src=""images/G_D_S_41.png"" style= ""width:200px""alt=""img"">
                            </div>
                        </div>","-83","","0","images/G_D_S_41.png","","","","serious","1","41","G","D","S","",""
"","","","","","html-slider-response","29","139726","0.0-25.0","tnxfe33xem","8","NaN","<div style=""width:500px;"">
                            <p style=""font-size:50px; font-weight:bold;""
                            >serious</p>
                            <div style=""width:240px; margin: auto;"">
                                <img src=""images/R_D_S_28.png"" style= ""width:200px""alt=""img"">
                            </div>
                        </div>","-147","","0","images/R_D_S_28.png","","","","serious","2","28","R","D","S","",""
"","","","","","html-slider-response","30","142650","0.0-26.0","tnxfe33xem","8","NaN","<div style=""width:500px;"">
                            <p style=""font-size:50px; font-weight:bold;""
                            >serious</p>
                            <div style=""width:240px; margin: auto;"">
                                <img src=""images/Y_D_U_23.png"" style= ""width:200px""alt=""img"">
                            </div>
                        </div>","200","","0","images/Y_D_U_23.png","","","","serious","1","23","Y","D","U","",""
"","","","","","html-slider-response","31","145823","0.0-27.0","tnxfe33xem","8","NaN","<div style=""width:500px;"">
                            <p style=""font-size:50px; font-weight:bold;""
                            >serious</p>
                            <div style=""width:240px; margin: auto;"">
                                <img src=""images/R_D_U_30.png"" style= ""width:200px""alt=""img"">
                            </div>
                        </div>","-43","","0","images/R_D_U_30.png","","","","serious","2","30","R","D","U","",""
"","","","","","html-slider-response","32","148183","0.0-28.0","tnxfe33xem","8","NaN","<div style=""width:500px;"">
                            <p style=""font-size:50px; font-weight:bold;""
                            >serious</p>
                            <div style=""width:240px; margin: auto;"">
                                <img src=""images/G_L_U_37.png"" style= ""width:200px""alt=""img"">
                            </div>
                        </div>","-200","","0","images/G_L_U_37.png","","","","serious","1","37","G","L","U","",""
"","","","","","html-slider-response","33","150185","0.0-29.0","tnxfe33xem","8","NaN","<div style=""width:500px;"">
                            <p style=""font-size:50px; font-weight:bold;""
                            >serious</p>
                            <div style=""width:240px; margin: auto;"">
                                <img src=""images/B_L_S_02.png"" style= ""width:200px""alt=""img"">
                            </div>
                        </div>","-200","","0","images/B_L_S_02.png","","","","serious","2","02","B","L","S","",""
"","","","","","html-slider-response","34","153264","0.0-30.0","tnxfe33xem","8","NaN","<div style=""width:500px;"">
                            <p style=""font-size:50px; font-weight:bold;""
                            >serious</p>
                            <div style=""width:240px; margin: auto;"">
                                <img src=""images/B_D_S_07.png"" style= ""width:200px""alt=""img"">
                            </div>
                        </div>","-106","","0","images/B_D_S_07.png","","","","serious","1","07","B","D","S","",""
"","","","","","html-slider-response","35","155107","0.0-31.0","tnxfe33xem","8","NaN","<div style=""width:500px;"">
                            <p style=""font-size:50px; font-weight:bold;""
                            >serious</p>
                            <div style=""width:240px; margin: auto;"">
                                <img src=""images/G_L_U_37.png"" style= ""width:200px""alt=""img"">
                            </div>
                        </div>","-200","","0","images/G_L_U_37.png","","","","serious","2","37","G","L","U","",""
"","","","","","html-slider-response","36","157515","0.0-32.0","tnxfe33xem","8","NaN","<div style=""width:500px;"">
                            <p style=""font-size:50px; font-weight:bold;""
                            >serious</p>
                            <div style=""width:240px; margin: auto;"">
                                <img src=""images/Y_L_U_13.png"" style= ""width:200px""alt=""img"">
                            </div>
                        </div>","36","","0","images/Y_L_U_13.png","","","","serious","1","13","Y","L","U","",""
"","","","","","html-slider-response","37","160046","0.0-33.0","tnxfe33xem","8","NaN","<div style=""width:500px;"">
                            <p style=""font-size:50px; font-weight:bold;""
                            >serious</p>
                            <div style=""width:240px; margin: auto;"">
                                <img src=""images/B_D_U_10.png"" style= ""width:200px""alt=""img"">
                            </div>
                        </div>","-52","","0","images/B_D_U_10.png","","","","serious","2","10","B","D","U","",""
"","","","","","html-slider-response","38","162094","0.0-34.0","tnxfe33xem","8","NaN","<div style=""width:500px;"">
                            <p style=""font-size:50px; font-weight:bold;""
                            >serious</p>
                            <div style=""width:240px; margin: auto;"">
                                <img src=""images/Y_D_U_23.png"" style= ""width:200px""alt=""img"">
                            </div>
                        </div>","200","","0","images/Y_D_U_23.png","","","","serious","2","23","Y","D","U","",""
"","","","","","html-slider-response","39","164127","0.0-35.0","tnxfe33xem","8","NaN","<div style=""width:500px;"">
                            <p style=""font-size:50px; font-weight:bold;""
                            >serious</p>
                            <div style=""width:240px; margin: auto;"">
                                <img src=""images/R_L_U_27.png"" style= ""width:200px""alt=""img"">
                            </div>
                        </div>","-200","","0","images/R_L_U_27.png","","","","serious","2","27","R","L","U","",""
"","","","","","html-slider-response","40","165949","0.0-36.0","tnxfe33xem","8","NaN","<div style=""width:500px;"">
                            <p style=""font-size:50px; font-weight:bold;""
                            >serious</p>
                            <div style=""width:240px; margin: auto;"">
                                <img src=""images/R_L_S_26.png"" style= ""width:200px""alt=""img"">
                            </div>
                        </div>","-200","","0","images/R_L_S_26.png","","","","serious","2","26","R","L","S","",""
"","","","","","html-slider-response","41","168327","0.0-37.0","tnxfe33xem","8","NaN","<div style=""width:500px;"">
                            <p style=""font-size:50px; font-weight:bold;""
                            >serious</p>
                            <div style=""width:240px; margin: auto;"">
                                <img src=""images/G_D_U_44.png"" style= ""width:200px""alt=""img"">
                            </div>
                        </div>","-25","","0","images/G_D_U_44.png","","","","serious","2","44","G","D","U","",""
"","","","","","html-slider-response","42","171666","0.0-38.0","tnxfe33xem","8","NaN","<div style=""width:500px;"">
                            <p style=""font-size:50px; font-weight:bold;""
                            >serious</p>
                            <div style=""width:240px; margin: auto;"">
                                <img src=""images/G_L_S_33.png"" style= ""width:200px""alt=""img"">
                            </div>
                        </div>","-123","","0","images/G_L_S_33.png","","","","serious","1","33","G","L","S","",""
"","","","","","html-slider-response","43","174543","0.0-39.0","tnxfe33xem","8","NaN","<div style=""width:500px;"">
                            <p style=""font-size:50px; font-weight:bold;""
                            >serious</p>
                            <div style=""width:240px; margin: auto;"">
                                <img src=""images/G_L_S_33.png"" style= ""width:200px""alt=""img"">
                            </div>
                        </div>","-200","","0","images/G_L_S_33.png","","","","serious","2","33","G","L","S","",""
"","","","","","html-slider-response","44","179874","0.0-40.0","tnxfe33xem","8","NaN","<div style=""width:500px;"">
                            <p style=""font-size:50px; font-weight:bold;""
                            >serious</p>
                            <div style=""width:240px; margin: auto;"">
                                <img src=""images/G_D_S_41.png"" style= ""width:200px""alt=""img"">
                            </div>
                        </div>","-25","","0","images/G_D_S_41.png","","","","serious","2","41","G","D","S","",""
"","","","","","html-slider-response","45","183042","0.0-41.0","tnxfe33xem","8","NaN","<div style=""width:500px;"">
                            <p style=""font-size:50px; font-weight:bold;""
                            >serious</p>
                            <div style=""width:240px; margin: auto;"">
                                <img src=""images/B_D_S_07.png"" style= ""width:200px""alt=""img"">
                            </div>
                        </div>","-75","","0","images/B_D_S_07.png","","","","serious","2","07","B","D","S","",""
"","","","","","html-slider-response","46","185778","0.0-42.0","tnxfe33xem","8","NaN","<div style=""width:500px;"">
                            <p style=""font-size:50px; font-weight:bold;""
                            >serious</p>
                            <div style=""width:240px; margin: auto;"">
                                <img src=""images/Y_D_S_15.png"" style= ""width:200px""alt=""img"">
                            </div>
                        </div>","200","","0","images/Y_D_S_15.png","","","","serious","2","15","Y","D","S","",""
"","","","","","html-slider-response","47","188576","0.0-43.0","tnxfe33xem","8","NaN","<div style=""width:500px;"">
                            <p style=""font-size:50px; font-weight:bold;""
                            >serious</p>
                            <div style=""width:240px; margin: auto;"">
                                <img src=""images/Y_L_S_12.png"" style= ""width:200px""alt=""img"">
                            </div>
                        </div>","21","","0","images/Y_L_S_12.png","","","","serious","2","12","Y","L","S","",""
"","","","","","html-slider-response","48","191494","0.0-44.0","tnxfe33xem","8","NaN","<div style=""width:500px;"">
                            <p style=""font-size:50px; font-weight:bold;""
                            >serious</p>
                            <div style=""width:240px; margin: auto;"">
                                <img src=""images/Y_L_S_12.png"" style= ""width:200px""alt=""img"">
                            </div>
                        </div>","15","","0","images/Y_L_S_12.png","","","","serious","1","12","Y","L","S","",""
"","","","","","html-slider-response","49","193869","0.0-45.0","tnxfe33xem","8","NaN","<div style=""width:500px;"">
                            <p style=""font-size:50px; font-weight:bold;""
                            >serious</p>
                            <div style=""width:240px; margin: auto;"">
                                <img src=""images/B_D_U_10.png"" style= ""width:200px""alt=""img"">
                            </div>
                        </div>","-34","","0","images/B_D_U_10.png","","","","serious","1","10","B","D","U","",""
"","","","","","html-button-response","50","198121","0.0-46.0","tnxfe33xem","8","3749","<p>Great Job! You've finished block 1.<br></br> You have 7 block(s) left to go.<br></br></p>","0","","","","","","","","","","","","","",""
"","","","","","html-button-response","51","200332","0.0-47.0","tnxfe33xem","8","2211","<p>In this block of trials, you will be asked to rate how much you associate each map with:</p > <p style = 'font-size:150%; font-weight: bold'>disturbing</p><br></br>","0","","","","","","","","","","","","","",""
"","","","","","html-slider-response","52","206424","0.0-48.0","tnxfe33xem","8","NaN","<div style=""width:500px;"">
                            <p style=""font-size:50px; font-weight:bold;""
                            >disturbing</p>
                            <div style=""width:240px; margin: auto;"">
                                <img src=""images/Y_L_U_13.png"" style= ""width:200px""alt=""img"">
                            </div>
                        </div>","66","","0","images/Y_L_U_13.png","","","","disturbing","2","13","Y","L","U","",""
"","","","","","html-slider-response","53","210510","0.0-49.0","tnxfe33xem","8","NaN","<div style=""width:500px;"">
                            <p style=""font-size:50px; font-weight:bold;""
                            >disturbing</p>
                            <div style=""width:240px; margin: auto;"">
                                <img src=""images/G_D_U_44.png"" style= ""width:200px""alt=""img"">
                            </div>
                        </div>","-200","","0","images/G_D_U_44.png","","","","disturbing","1","44","G","D","U","",""
"","","","","","html-slider-response","54","212601","0.0-50.0","tnxfe33xem","8","NaN","<div style=""width:500px;"">
                            <p style=""font-size:50px; font-weight:bold;""
                            >disturbing</p>
                            <div style=""width:240px; margin: auto;"">
                                <img src=""images/B_L_S_02.png"" style= ""width:200px""alt=""img"">
                            </div>
                        </div>","-200","","0","images/B_L_S_02.png","","","","disturbing","2","02","B","L","S","",""
"","","","","","html-slider-response","55","214986","0.0-51.0","tnxfe33xem","8","NaN","<div style=""width:500px;"">
                            <p style=""font-size:50px; font-weight:bold;""
                            >disturbing</p>
                            <div style=""width:240px; margin: auto;"">
                                <img src=""images/G_D_S_41.png"" style= ""width:200px""alt=""img"">
                            </div>
                        </div>","-200","","0","images/G_D_S_41.png","","","","disturbing","1","41","G","D","S","",""
"","","","","","html-slider-response","56","219017","0.0-52.0","tnxfe33xem","8","NaN","<div style=""width:500px;"">
                            <p style=""font-size:50px; font-weight:bold;""
                            >disturbing</p>
                            <div style=""width:240px; margin: auto;"">
                                <img src=""images/G_L_U_37.png"" style= ""width:200px""alt=""img"">
                            </div>
                        </div>","-200","","0","images/G_L_U_37.png","","","","disturbing","1","37","G","L","U","",""
"","","","","","html-slider-response","57","221465","0.0-53.0","tnxfe33xem","8","NaN","<div style=""width:500px;"">
                            <p style=""font-size:50px; font-weight:bold;""
                            >disturbing</p>
                            <div style=""width:240px; margin: auto;"">
                                <img src=""images/R_L_U_27.png"" style= ""width:200px""alt=""img"">
                            </div>
                        </div>","-200","","0","images/R_L_U_27.png","","","","disturbing","2","27","R","L","U","",""
"","","","","","html-slider-response","58","224964","0.0-54.0","tnxfe33xem","8","NaN","<div style=""width:500px;"">
                            <p style=""font-size:50px; font-weight:bold;""
                            >disturbing</p>
                            <div style=""width:240px; margin: auto;"">
                                <img src=""images/G_L_S_33.png"" style= ""width:200px""alt=""img"">
                            </div>
                        </div>","24","","0","images/G_L_S_33.png","","","","disturbing","1","33","G","L","S","",""
"","","","","","html-slider-response","59","227761","0.0-55.0","tnxfe33xem","8","NaN","<div style=""width:500px;"">
                            <p style=""font-size:50px; font-weight:bold;""
                            >disturbing</p>
                            <div style=""width:240px; margin: auto;"">
                                <img src=""images/B_L_U_05.png"" style= ""width:200px""alt=""img"">
                            </div>
                        </div>","-200","","0","images/B_L_U_05.png","","","","disturbing","1","05","B","L","U","",""
"","","","","","html-slider-response","60","230162","0.0-56.0","tnxfe33xem","8","NaN","<div style=""width:500px;"">
                            <p style=""font-size:50px; font-weight:bold;""
                            >disturbing</p>
                            <div style=""width:240px; margin: auto;"">
                                <img src=""images/R_L_S_26.png"" style= ""width:200px""alt=""img"">
                            </div>
                        </div>","-200","","0","images/R_L_S_26.png","","","","disturbing","2","26","R","L","S","",""
"","","","","","html-slider-response","61","234043","0.0-57.0","tnxfe33xem","8","NaN","<div style=""width:500px;"">
                            <p style=""font-size:50px; font-weight:bold;""
                            >disturbing</p>
                            <div style=""width:240px; margin: auto;"">
                                <img src=""images/R_D_S_28.png"" style= ""width:200px""alt=""img"">
                            </div>
                        </div>","-23","","0","images/R_D_S_28.png","","","","disturbing","2","28","R","D","S","",""
"","","","","","html-slider-response","62","238441","0.0-58.0","tnxfe33xem","8","NaN","<div style=""width:500px;"">
                            <p style=""font-size:50px; font-weight:bold;""
                            >disturbing</p>
                            <div style=""width:240px; margin: auto;"">
                                <img src=""images/R_D_S_28.png"" style= ""width:200px""alt=""img"">
                            </div>
                        </div>","-108","","0","images/R_D_S_28.png","","","","disturbing","1","28","R","D","S","",""
"","","","","","html-slider-response","63","240561","0.0-59.0","tnxfe33xem","8","NaN","<div style=""width:500px;"">
                            <p style=""font-size:50px; font-weight:bold;""
                            >disturbing</p>
                            <div style=""width:240px; margin: auto;"">
                                <img src=""images/G_D_U_44.png"" style= ""width:200px""alt=""img"">
                            </div>
                        </div>","-200","","0","images/G_D_U_44.png","","","","disturbing","2","44","G","D","U","",""
"","","","","","html-slider-response","64","243550","0.0-60.0","tnxfe33xem","8","NaN","<div style=""width:500px;"">
                            <p style=""font-size:50px; font-weight:bold;""
                            >disturbing</p>
                            <div style=""width:240px; margin: auto;"">
                                <img src=""images/B_L_S_02.png"" style= ""width:200px""alt=""img"">
                            </div>
                        </div>","-200","","0","images/B_L_S_02.png","","","","disturbing","1","02","B","L","S","",""
"","","","","","html-slider-response","65","246960","0.0-61.0","tnxfe33xem","8","NaN","<div style=""width:500px;"">
                            <p style=""font-size:50px; font-weight:bold;""
                            >disturbing</p>
                            <div style=""width:240px; margin: auto;"">
                                <img src=""images/Y_D_S_15.png"" style= ""width:200px""alt=""img"">
                            </div>
                        </div>","77","","0","images/Y_D_S_15.png","","","","disturbing","1","15","Y","D","S","",""
"","","","","","html-slider-response","66","249703","0.0-62.0","tnxfe33xem","8","NaN","<div style=""width:500px;"">
                            <p style=""font-size:50px; font-weight:bold;""
                            >disturbing</p>
                            <div style=""width:240px; margin: auto;"">
                                <img src=""images/B_D_U_10.png"" style= ""width:200px""alt=""img"">
                            </div>
                        </div>","-200","","0","images/B_D_U_10.png","","","","disturbing","2","10","B","D","U","",""
"","","","","","html-slider-response","67","252668","0.0-63.0","tnxfe33xem","8","NaN","<div style=""width:500px;"">
                            <p style=""font-size:50px; font-weight:bold;""
                            >disturbing</p>
                            <div style=""width:240px; margin: auto;"">
                                <img src=""images/Y_D_U_23.png"" style= ""width:200px""alt=""img"">
                            </div>
                        </div>","5","","0","images/Y_D_U_23.png","","","","disturbing","2","23","Y","D","U","",""
"","","","","","html-slider-response","68","256057","0.0-64.0","tnxfe33xem","8","NaN","<div style=""width:500px;"">
                            <p style=""font-size:50px; font-weight:bold;""
                            >disturbing</p>
                            <div style=""width:240px; margin: auto;"">
                                <img src=""images/Y_L_S_12.png"" style= ""width:200px""alt=""img"">
                            </div>
                        </div>","106","","0","images/Y_L_S_12.png","","","","disturbing","1","12","Y","L","S","",""
"","","","","","html-slider-response","69","258847","0.0-65.0","tnxfe33xem","8","NaN","<div style=""width:500px;"">
                            <p style=""font-size:50px; font-weight:bold;""
                            >disturbing</p>
                            <div style=""width:240px; margin: auto;"">
                                <img src=""images/R_D_U_30.png"" style= ""width:200px""alt=""img"">
                            </div>
                        </div>","32","","0","images/R_D_U_30.png","","","","disturbing","2","30","R","D","U","",""
"","","","","","html-slider-response","70","261209","0.0-66.0","tnxfe33xem","8","NaN","<div style=""width:500px;"">
                            <p style=""font-size:50px; font-weight:bold;""
                            >disturbing</p>
                            <div style=""width:240px; margin: auto;"">
                                <img src=""images/Y_L_U_13.png"" style= ""width:200px""alt=""img"">
                            </div>
                        </div>","200","","0","images/Y_L_U_13.png","","","","disturbing","1","13","Y","L","U","",""
"","","","","","html-slider-response","71","264443","0.0-67.0","tnxfe33xem","8","NaN","<div style=""width:500px;"">
                            <p style=""font-size:50px; font-weight:bold;""
                            >disturbing</p>
                            <div style=""width:240px; margin: auto;"">
                                <img src=""images/R_D_U_30.png"" style= ""width:200px""alt=""img"">
                            </div>
                        </div>","30","","0","images/R_D_U_30.png","","","","disturbing","1","30","R","D","U","",""
"","","","","","html-slider-response","72","267892","0.0-68.0","tnxfe33xem","8","NaN","<div style=""width:500px;"">
                            <p style=""font-size:50px; font-weight:bold;""
                            >disturbing</p>
                            <div style=""width:240px; margin: auto;"">
                                <img src=""images/Y_D_U_23.png"" style= ""width:200px""alt=""img"">
                            </div>
                        </div>","160","","0","images/Y_D_U_23.png","","","","disturbing","1","23","Y","D","U","",""
"","","","","","html-slider-response","73","269721","0.0-69.0","tnxfe33xem","8","NaN","<div style=""width:500px;"">
                            <p style=""font-size:50px; font-weight:bold;""
                            >disturbing</p>
                            <div style=""width:240px; margin: auto;"">
                                <img src=""images/B_L_U_05.png"" style= ""width:200px""alt=""img"">
                            </div>
                        </div>","-200","","0","images/B_L_U_05.png","","","","disturbing","2","05","B","L","U","",""
"","","","","","html-slider-response","74","272219","0.0-70.0","tnxfe33xem","8","NaN","<div style=""width:500px;"">
                            <p style=""font-size:50px; font-weight:bold;""
                            >disturbing</p>
                            <div style=""width:240px; margin: auto;"">
                                <img src=""images/Y_D_S_15.png"" style= ""width:200px""alt=""img"">
                            </div>
                        </div>","147","","0","images/Y_D_S_15.png","","","","disturbing","2","15","Y","D","S","",""
"","","","","","html-slider-response","75","275287","0.0-71.0","tnxfe33xem","8","NaN","<div style=""width:500px;"">
                            <p style=""font-size:50px; font-weight:bold;""
                            >disturbing</p>
                            <div style=""width:240px; margin: auto;"">
                                <img src=""images/G_L_U_37.png"" style= ""width:200px""alt=""img"">
                            </div>
                        </div>","-200","","0","images/G_L_U_37.png","","","","disturbing","2","37","G","L","U","",""
"","","","","","html-slider-response","76","278609","0.0-72.0","tnxfe33xem","8","NaN","<div style=""width:500px;"">
                            <p style=""font-size:50px; font-weight:bold;""
                            >disturbing</p>
                            <div style=""width:240px; margin: auto;"">
                                <img src=""images/B_D_S_07.png"" style= ""width:200px""alt=""img"">
                            </div>
                        </div>","-82","","0","images/B_D_S_07.png","","","","disturbing","1","07","B","D","S","",""
"","","","","","html-slider-response","77","282236","0.0-73.0","tnxfe33xem","8","NaN","<div style=""width:500px;"">
                            <p style=""font-size:50px; font-weight:bold;""
                            >disturbing</p>
                            <div style=""width:240px; margin: auto;"">
                                <img src=""images/G_L_S_33.png"" style= ""width:200px""alt=""img"">
                            </div>
                        </div>","27","","0","images/G_L_S_33.png","","","","disturbing","2","33","G","L","S","",""
"","","","","","html-slider-response","78","284612","0.0-74.0","tnxfe33xem","8","NaN","<div style=""width:500px;"">
                            <p style=""font-size:50px; font-weight:bold;""
                            >disturbing</p>
                            <div style=""width:240px; margin: auto;"">
                                <img src=""images/B_D_S_07.png"" style= ""width:200px""alt=""img"">
                            </div>
                        </div>","-163","","0","images/B_D_S_07.png","","","","disturbing","2","07","B","D","S","",""
"","","","","","html-slider-response","79","288834","0.0-75.0","tnxfe33xem","8","NaN","<div style=""width:500px;"">
                            <p style=""font-size:50px; font-weight:bold;""
                            >disturbing</p>
                            <div style=""width:240px; margin: auto;"">
                                <img src=""images/R_L_U_27.png"" style= ""width:200px""alt=""img"">
                            </div>
                        </div>","-101","","0","images/R_L_U_27.png","","","","disturbing","1","27","R","L","U","",""
"","","","","","html-slider-response","80","291465","0.0-76.0","tnxfe33xem","8","NaN","<div style=""width:500px;"">
                            <p style=""font-size:50px; font-weight:bold;""
                            >disturbing</p>
                            <div style=""width:240px; margin: auto;"">
                                <img src=""images/R_L_S_26.png"" style= ""width:200px""alt=""img"">
                            </div>
                        </div>","-94","","0","images/R_L_S_26.png","","","","disturbing","1","26","R","L","S","",""
"","","","","","html-slider-response","81","293969","0.0-77.0","tnxfe33xem","8","NaN","<div style=""width:500px;"">
                            <p style=""font-size:50px; font-weight:bold;""
                            >disturbing</p>
                            <div style=""width:240px; margin: auto;"">
                                <img src=""images/G_D_S_41.png"" style= ""width:200px""alt=""img"">
                            </div>
                        </div>","-22","","0","images/G_D_S_41.png","","","","disturbing","2","41","G","D","S","",""
"","","","","","html-slider-response","82","296179","0.0-78.0","tnxfe33xem","8","NaN","<div style=""width:500px;"">
                            <p style=""font-size:50px; font-weight:bold;""
                            >disturbing</p>
                            <div style=""width:240px; margin: auto;"">
                                <img src=""images/B_D_U_10.png"" style= ""width:200px""alt=""img"">
                            </div>
                        </div>","-186","","0","images/B_D_U_10.png","","","","disturbing","1","10","B","D","U","",""
"","","","","","html-slider-response","83","305390","0.0-79.0","tnxfe33xem","8","NaN","<div style=""width:500px;"">
                            <p style=""font-size:50px; font-weight:bold;""
                            >disturbing</p>
                            <div style=""width:240px; margin: auto;"">
                                <img src=""images/Y_L_S_12.png"" style= ""width:200px""alt=""img"">
                            </div>
                        </div>","88","","0","images/Y_L_S_12.png","","","","disturbing","2","12","Y","L","S","",""
"","","","","","html-button-response","84","306876","0.0-80.0","tnxfe33xem","8","985","<p>Great Job! You've finished block 2.<br></br> You have 6 block(s) left to go.<br></br></p>","0","","","","","","","","","","","","","",""
"","","","","","html-button-response","85","307973","0.0-81.0","tnxfe33xem","8","1095","<p>In this block of trials, you will be asked to rate how much you associate each map with:</p > <p style = 'font-size:150%; font-weight: bold'>negative</p><br></br>","0","","","","","","","","","","","","","",""
"","","","","","html-slider-response","86","311400","0.0-82.0","tnxfe33xem","8","NaN","<div style=""width:500px;"">
                            <p style=""font-size:50px; font-weight:bold;""
                            >negative</p>
                            <div style=""width:240px; margin: auto;"">
                                <img src=""images/R_D_U_30.png"" style= ""width:200px""alt=""img"">
                            </div>
                        </div>","-44","","0","images/R_D_U_30.png","","","","negative","1","30","R","D","U","",""
"","","","","","html-slider-response","87","314191","0.0-83.0","tnxfe33xem","8","NaN","<div style=""width:500px;"">
                            <p style=""font-size:50px; font-weight:bold;""
                            >negative</p>
                            <div style=""width:240px; margin: auto;"">
                                <img src=""images/B_D_U_10.png"" style= ""width:200px""alt=""img"">
                            </div>
                        </div>","-200","","0","images/B_D_U_10.png","","","","negative","2","10","B","D","U","",""
"","","","","","html-slider-response","88","316147","0.0-84.0","tnxfe33xem","8","NaN","<div style=""width:500px;"">
                            <p style=""font-size:50px; font-weight:bold;""
                            >negative</p>
                            <div style=""width:240px; margin: auto;"">
                                <img src=""images/B_D_U_10.png"" style= ""width:200px""alt=""img"">
                            </div>
                        </div>","-200","","0","images/B_D_U_10.png","","","","negative","1","10","B","D","U","",""
"","","","","","html-slider-response","89","318620","0.0-85.0","tnxfe33xem","8","NaN","<div style=""width:500px;"">
                            <p style=""font-size:50px; font-weight:bold;""
                            >negative</p>
                            <div style=""width:240px; margin: auto;"">
                                <img src=""images/Y_L_S_12.png"" style= ""width:200px""alt=""img"">
                            </div>
                        </div>","122","","0","images/Y_L_S_12.png","","","","negative","1","12","Y","L","S","",""
"","","","","","html-slider-response","90","320791","0.0-86.0","tnxfe33xem","8","NaN","<div style=""width:500px;"">
                            <p style=""font-size:50px; font-weight:bold;""
                            >negative</p>
                            <div style=""width:240px; margin: auto;"">
                                <img src=""images/B_L_U_05.png"" style= ""width:200px""alt=""img"">
                            </div>
                        </div>","-200","","0","images/B_L_U_05.png","","","","negative","2","05","B","L","U","",""
"","","","","","html-slider-response","91","325294","0.0-87.0","tnxfe33xem","8","NaN","<div style=""width:500px;"">
                            <p style=""font-size:50px; font-weight:bold;""
                            >negative</p>
                            <div style=""width:240px; margin: auto;"">
                                <img src=""images/G_D_S_41.png"" style= ""width:200px""alt=""img"">
                            </div>
                        </div>","38","","0","images/G_D_S_41.png","","","","negative","1","41","G","D","S","",""
"","","","","","html-slider-response","92","327708","0.0-88.0","tnxfe33xem","8","NaN","<div style=""width:500px;"">
                            <p style=""font-size:50px; font-weight:bold;""
                            >negative</p>
                            <div style=""width:240px; margin: auto;"">
                                <img src=""images/Y_D_S_15.png"" style= ""width:200px""alt=""img"">
                            </div>
                        </div>","168","","0","images/Y_D_S_15.png","","","","negative","1","15","Y","D","S","",""
"","","","","","html-slider-response","93","329812","0.0-89.0","tnxfe33xem","8","NaN","<div style=""width:500px;"">
                            <p style=""font-size:50px; font-weight:bold;""
                            >negative</p>
                            <div style=""width:240px; margin: auto;"">
                                <img src=""images/B_L_U_05.png"" style= ""width:200px""alt=""img"">
                            </div>
                        </div>","-200","","0","images/B_L_U_05.png","","","","negative","1","05","B","L","U","",""
"","","","","","html-slider-response","94","332014","0.0-90.0","tnxfe33xem","8","NaN","<div style=""width:500px;"">
                            <p style=""font-size:50px; font-weight:bold;""
                            >negative</p>
                            <div style=""width:240px; margin: auto;"">
                                <img src=""images/Y_D_U_23.png"" style= ""width:200px""alt=""img"">
                            </div>
                        </div>","200","","0","images/Y_D_U_23.png","","","","negative","1","23","Y","D","U","",""
"","","","","","html-slider-response","95","334241","0.0-91.0","tnxfe33xem","8","NaN","<div style=""width:500px;"">
                            <p style=""font-size:50px; font-weight:bold;""
                            >negative</p>
                            <div style=""width:240px; margin: auto;"">
                                <img src=""images/G_D_S_41.png"" style= ""width:200px""alt=""img"">
                            </div>
                        </div>","-52","","0","images/G_D_S_41.png","","","","negative","2","41","G","D","S","",""
"","","","","","html-slider-response","96","340474","0.0-92.0","tnxfe33xem","8","NaN","<div style=""width:500px;"">
                            <p style=""font-size:50px; font-weight:bold;""
                            >negative</p>
                            <div style=""width:240px; margin: auto;"">
                                <img src=""images/G_L_S_33.png"" style= ""width:200px""alt=""img"">
                            </div>
                        </div>","-170","","0","images/G_L_S_33.png","","","","negative","2","33","G","L","S","",""
"","","","","","html-slider-response","97","342891","0.0-93.0","tnxfe33xem","8","NaN","<div style=""width:500px;"">
                            <p style=""font-size:50px; font-weight:bold;""
                            >negative</p>
                            <div style=""width:240px; margin: auto;"">
                                <img src=""images/G_D_U_44.png"" style= ""width:200px""alt=""img"">
                            </div>
                        </div>","-46","","0","images/G_D_U_44.png","","","","negative","2","44","G","D","U","",""
"","","","","","html-slider-response","98","347144","0.0-94.0","tnxfe33xem","8","NaN","<div style=""width:500px;"">
                            <p style=""font-size:50px; font-weight:bold;""
                            >negative</p>
                            <div style=""width:240px; margin: auto;"">
                                <img src=""images/G_D_U_44.png"" style= ""width:200px""alt=""img"">
                            </div>
                        </div>","4","","0","images/G_D_U_44.png","","","","negative","1","44","G","D","U","",""
"","","","","","html-slider-response","99","349012","0.0-95.0","tnxfe33xem","8","NaN","<div style=""width:500px;"">
                            <p style=""font-size:50px; font-weight:bold;""
                            >negative</p>
                            <div style=""width:240px; margin: auto;"">
                                <img src=""images/G_L_U_37.png"" style= ""width:200px""alt=""img"">
                            </div>
                        </div>","-200","","0","images/G_L_U_37.png","","","","negative","2","37","G","L","U","",""
"","","","","","html-slider-response","100","351008","0.0-96.0","tnxfe33xem","8","NaN","<div style=""width:500px;"">
                            <p style=""font-size:50px; font-weight:bold;""
                            >negative</p>
                            <div style=""width:240px; margin: auto;"">
                                <img src=""images/G_L_U_37.png"" style= ""width:200px""alt=""img"">
                            </div>
                        </div>","-200","","0","images/G_L_U_37.png","","","","negative","1","37","G","L","U","",""
"","","","","","html-slider-response","101","354385","0.0-97.0","tnxfe33xem","8","NaN","<div style=""width:500px;"">
                            <p style=""font-size:50px; font-weight:bold;""
                            >negative</p>
                            <div style=""width:240px; margin: auto;"">
                                <img src=""images/R_D_S_28.png"" style= ""width:200px""alt=""img"">
                            </div>
                        </div>","-141","","0","images/R_D_S_28.png","","","","negative","2","28","R","D","S","",""
"","","","","","html-slider-response","102","357788","0.0-98.0","tnxfe33xem","8","NaN","<div style=""width:500px;"">
                            <p style=""font-size:50px; font-weight:bold;""
                            >negative</p>
                            <div style=""width:240px; margin: auto;"">
                                <img src=""images/B_D_S_07.png"" style= ""width:200px""alt=""img"">
                            </div>
                        </div>","-200","","0","images/B_D_S_07.png","","","","negative","2","07","B","D","S","",""
"","","","","","html-slider-response","103","360872","0.0-99.0","tnxfe33xem","8","NaN","<div style=""width:500px;"">
                            <p style=""font-size:50px; font-weight:bold;""
                            >negative</p>
                            <div style=""width:240px; margin: auto;"">
                                <img src=""images/R_D_S_28.png"" style= ""width:200px""alt=""img"">
                            </div>
                        </div>","-149","","0","images/R_D_S_28.png","","","","negative","1","28","R","D","S","",""
"","","","","","html-slider-response","104","364497","0.0-100.0","tnxfe33xem","8","NaN","<div style=""width:500px;"">
                            <p style=""font-size:50px; font-weight:bold;""
                            >negative</p>
                            <div style=""width:240px; margin: auto;"">
                                <img src=""images/R_L_U_27.png"" style= ""width:200px""alt=""img"">
                            </div>
                        </div>","-200","","0","images/R_L_U_27.png","","","","negative","2","27","R","L","U","",""
"","","","","","html-slider-response","105","366443","0.0-101.0","tnxfe33xem","8","NaN","<div style=""width:500px;"">
                            <p style=""font-size:50px; font-weight:bold;""
                            >negative</p>
                            <div style=""width:240px; margin: auto;"">
                                <img src=""images/B_L_S_02.png"" style= ""width:200px""alt=""img"">
                            </div>
                        </div>","-200","","0","images/B_L_S_02.png","","","","negative","1","02","B","L","S","",""
"","","","","","html-slider-response","106","369099","0.0-102.0","tnxfe33xem","8","NaN","<div style=""width:500px;"">
                            <p style=""font-size:50px; font-weight:bold;""
                            >negative</p>
                            <div style=""width:240px; margin: auto;"">
                                <img src=""images/R_L_S_26.png"" style= ""width:200px""alt=""img"">
                            </div>
                        </div>","-200","","0","images/R_L_S_26.png","","","","negative","1","26","R","L","S","",""
"","","","","","html-slider-response","107","372263","0.0-103.0","tnxfe33xem","8","NaN","<div style=""width:500px;"">
                            <p style=""font-size:50px; font-weight:bold;""
                            >negative</p>
                            <div style=""width:240px; margin: auto;"">
                                <img src=""images/B_L_S_02.png"" style= ""width:200px""alt=""img"">
                            </div>
                        </div>","-200","","0","images/B_L_S_02.png","","","","negative","2","02","B","L","S","",""
"","","","","","html-slider-response","108","376866","0.0-104.0","tnxfe33xem","8","NaN","<div style=""width:500px;"">
                            <p style=""font-size:50px; font-weight:bold;""
                            >negative</p>
                            <div style=""width:240px; margin: auto;"">
                                <img src=""images/G_L_S_33.png"" style= ""width:200px""alt=""img"">
                            </div>
                        </div>","-200","","0","images/G_L_S_33.png","","","","negative","1","33","G","L","S","",""
"","","","","","html-slider-response","109","378837","0.0-105.0","tnxfe33xem","8","NaN","<div style=""width:500px;"">
                            <p style=""font-size:50px; font-weight:bold;""
                            >negative</p>
                            <div style=""width:240px; margin: auto;"">
                                <img src=""images/R_L_U_27.png"" style= ""width:200px""alt=""img"">
                            </div>
                        </div>","-200","","0","images/R_L_U_27.png","","","","negative","1","27","R","L","U","",""
"","","","","","html-slider-response","110","381191","0.0-106.0","tnxfe33xem","8","NaN","<div style=""width:500px;"">
                            <p style=""font-size:50px; font-weight:bold;""
                            >negative</p>
                            <div style=""width:240px; margin: auto;"">
                                <img src=""images/R_D_U_30.png"" style= ""width:200px""alt=""img"">
                            </div>
                        </div>","8","","0","images/R_D_U_30.png","","","","negative","2","30","R","D","U","",""
"","","","","","html-slider-response","111","383123","0.0-107.0","tnxfe33xem","8","NaN","<div style=""width:500px;"">
                            <p style=""font-size:50px; font-weight:bold;""
                            >negative</p>
                            <div style=""width:240px; margin: auto;"">
                                <img src=""images/R_L_S_26.png"" style= ""width:200px""alt=""img"">
                            </div>
                        </div>","-200","","0","images/R_L_S_26.png","","","","negative","2","26","R","L","S","",""
"","","","","","html-slider-response","112","386231","0.0-108.0","tnxfe33xem","8","NaN","<div style=""width:500px;"">
                            <p style=""font-size:50px; font-weight:bold;""
                            >negative</p>
                            <div style=""width:240px; margin: auto;"">
                                <img src=""images/B_D_S_07.png"" style= ""width:200px""alt=""img"">
                            </div>
                        </div>","-162","","0","images/B_D_S_07.png","","","","negative","1","07","B","D","S","",""
"","","","","","html-slider-response","113","387827","0.0-109.0","tnxfe33xem","8","NaN","<div style=""width:500px;"">
                            <p style=""font-size:50px; font-weight:bold;""
                            >negative</p>
                            <div style=""width:240px; margin: auto;"">
                                <img src=""images/Y_D_S_15.png"" style= ""width:200px""alt=""img"">
                            </div>
                        </div>","21","","0","images/Y_D_S_15.png","","","","negative","2","15","Y","D","S","",""
"","","","","","html-slider-response","114","391682","0.0-110.0","tnxfe33xem","8","NaN","<div style=""width:500px;"">
                            <p style=""font-size:50px; font-weight:bold;""
                            >negative</p>
                            <div style=""width:240px; margin: auto;"">
                                <img src=""images/Y_D_U_23.png"" style= ""width:200px""alt=""img"">
                            </div>
                        </div>","5","","0","images/Y_D_U_23.png","","","","negative","2","23","Y","D","U","",""
"","","","","","html-slider-response","115","393853","0.0-111.0","tnxfe33xem","8","NaN","<div style=""width:500px;"">
                            <p style=""font-size:50px; font-weight:bold;""
                            >negative</p>
                            <div style=""width:240px; margin: auto;"">
                                <img src=""images/Y_L_U_13.png"" style= ""width:200px""alt=""img"">
                            </div>
                        </div>","110","","0","images/Y_L_U_13.png","","","","negative","1","13","Y","L","U","",""
"","","","","","html-slider-response","116","396556","0.0-112.0","tnxfe33xem","8","NaN","<div style=""width:500px;"">
                            <p style=""font-size:50px; font-weight:bold;""
                            >negative</p>
                            <div style=""width:240px; margin: auto;"">
                                <img src=""images/Y_L_S_12.png"" style= ""width:200px""alt=""img"">
                            </div>
                        </div>","38","","0","images/Y_L_S_12.png","","","","negative","2","12","Y","L","S","",""
"","","","","","html-slider-response","117","400340","0.0-113.0","tnxfe33xem","8","NaN","<div style=""width:500px;"">
                            <p style=""font-size:50px; font-weight:bold;""
                            >negative</p>
                            <div style=""width:240px; margin: auto;"">
                                <img src=""images/Y_L_U_13.png"" style= ""width:200px""alt=""img"">
                            </div>
                        </div>","3","","0","images/Y_L_U_13.png","","","","negative","2","13","Y","L","U","",""
"","","","","","html-button-response","118","402181","0.0-114.0","tnxfe33xem","8","1340","<p>Great Job! You've finished block 3.<br></br> You have 5 block(s) left to go.<br></br></p>","0","","","","","","","","","","","","","",""
"","","","","","html-button-response","119","403436","0.0-115.0","tnxfe33xem","8","1254","<p>In this block of trials, you will be asked to rate how much you associate each map with:</p > <p style = 'font-size:150%; font-weight: bold'>positive</p><br></br>","0","","","","","","","","","","","","","",""
"","","","","","html-slider-response","120","405754","0.0-116.0","tnxfe33xem","8","NaN","<div style=""width:500px;"">
                            <p style=""font-size:50px; font-weight:bold;""
                            >positive</p>
                            <div style=""width:240px; margin: auto;"">
                                <img src=""images/Y_L_S_12.png"" style= ""width:200px""alt=""img"">
                            </div>
                        </div>","-94","","0","images/Y_L_S_12.png","","","","positive","2","12","Y","L","S","",""
"","","","","","html-slider-response","121","409474","0.0-117.0","tnxfe33xem","8","NaN","<div style=""width:500px;"">
                            <p style=""font-size:50px; font-weight:bold;""
                            >positive</p>
                            <div style=""width:240px; margin: auto;"">
                                <img src=""images/G_D_S_41.png"" style= ""width:200px""alt=""img"">
                            </div>
                        </div>","-29","","0","images/G_D_S_41.png","","","","positive","2","41","G","D","S","",""
"","","","","","html-slider-response","122","412548","0.0-118.0","tnxfe33xem","8","NaN","<div style=""width:500px;"">
                            <p style=""font-size:50px; font-weight:bold;""
                            >positive</p>
                            <div style=""width:240px; margin: auto;"">
                                <img src=""images/G_D_U_44.png"" style= ""width:200px""alt=""img"">
                            </div>
                        </div>","-14","","0","images/G_D_U_44.png","","","","positive","2","44","G","D","U","",""
"","","","","","html-slider-response","123","414592","0.0-119.0","tnxfe33xem","8","NaN","<div style=""width:500px;"">
                            <p style=""font-size:50px; font-weight:bold;""
                            >positive</p>
                            <div style=""width:240px; margin: auto;"">
                                <img src=""images/R_L_U_27.png"" style= ""width:200px""alt=""img"">
                            </div>
                        </div>","46","","0","images/R_L_U_27.png","","","","positive","2","27","R","L","U","",""
"","","","","","html-slider-response","124","418893","0.0-120.0","tnxfe33xem","8","NaN","<div style=""width:500px;"">
                            <p style=""font-size:50px; font-weight:bold;""
                            >positive</p>
                            <div style=""width:240px; margin: auto;"">
                                <img src=""images/B_L_U_05.png"" style= ""width:200px""alt=""img"">
                            </div>
                        </div>","102","","0","images/B_L_U_05.png","","","","positive","1","05","B","L","U","",""
"","","","","","html-slider-response","125","421524","0.0-121.0","tnxfe33xem","8","NaN","<div style=""width:500px;"">
                            <p style=""font-size:50px; font-weight:bold;""
                            >positive</p>
                            <div style=""width:240px; margin: auto;"">
                                <img src=""images/R_L_S_26.png"" style= ""width:200px""alt=""img"">
                            </div>
                        </div>","139","","0","images/R_L_S_26.png","","","","positive","1","26","R","L","S","",""
"","","","","","html-slider-response","126","423670","0.0-122.0","tnxfe33xem","8","NaN","<div style=""width:500px;"">
                            <p style=""font-size:50px; font-weight:bold;""
                            >positive</p>
                            <div style=""width:240px; margin: auto;"">
                                <img src=""images/G_L_U_37.png"" style= ""width:200px""alt=""img"">
                            </div>
                        </div>","200","","0","images/G_L_U_37.png","","","","positive","1","37","G","L","U","",""
"","","","","","html-slider-response","127","427787","0.0-123.0","tnxfe33xem","8","NaN","<div style=""width:500px;"">
                            <p style=""font-size:50px; font-weight:bold;""
                            >positive</p>
                            <div style=""width:240px; margin: auto;"">
                                <img src=""images/R_D_S_28.png"" style= ""width:200px""alt=""img"">
                            </div>
                        </div>","1","","0","images/R_D_S_28.png","","","","positive","1","28","R","D","S","",""
"","","","","","html-slider-response","128","430434","0.0-124.0","tnxfe33xem","8","NaN","<div style=""width:500px;"">
                            <p style=""font-size:50px; font-weight:bold;""
                            >positive</p>
                            <div style=""width:240px; margin: auto;"">
                                <img src=""images/R_D_U_30.png"" style= ""width:200px""alt=""img"">
                            </div>
                        </div>","-155","","0","images/R_D_U_30.png","","","","positive","2","30","R","D","U","",""
"","","","","","html-slider-response","129","432015","0.0-125.0","tnxfe33xem","8","NaN","<div style=""width:500px;"">
                            <p style=""font-size:50px; font-weight:bold;""
                            >positive</p>
                            <div style=""width:240px; margin: auto;"">
                                <img src=""images/B_L_S_02.png"" style= ""width:200px""alt=""img"">
                            </div>
                        </div>","145","","0","images/B_L_S_02.png","","","","positive","1","02","B","L","S","",""
"","","","","","html-slider-response","130","434774","0.0-126.0","tnxfe33xem","8","NaN","<div style=""width:500px;"">
                            <p style=""font-size:50px; font-weight:bold;""
                            >positive</p>
                            <div style=""width:240px; margin: auto;"">
                                <img src=""images/R_L_S_26.png"" style= ""width:200px""alt=""img"">
                            </div>
                        </div>","200","","0","images/R_L_S_26.png","","","","positive","2","26","R","L","S","",""
"","","","","","html-slider-response","131","437700","0.0-127.0","tnxfe33xem","8","NaN","<div style=""width:500px;"">
                            <p style=""font-size:50px; font-weight:bold;""
                            >positive</p>
                            <div style=""width:240px; margin: auto;"">
                                <img src=""images/R_D_S_28.png"" style= ""width:200px""alt=""img"">
                            </div>
                        </div>","-22","","0","images/R_D_S_28.png","","","","positive","2","28","R","D","S","",""
"","","","","","html-slider-response","132","439407","0.0-128.0","tnxfe33xem","8","NaN","<div style=""width:500px;"">
                            <p style=""font-size:50px; font-weight:bold;""
                            >positive</p>
                            <div style=""width:240px; margin: auto;"">
                                <img src=""images/B_L_U_05.png"" style= ""width:200px""alt=""img"">
                            </div>
                        </div>","200","","0","images/B_L_U_05.png","","","","positive","2","05","B","L","U","",""
"","","","","","html-slider-response","133","441506","0.0-129.0","tnxfe33xem","8","NaN","<div style=""width:500px;"">
                            <p style=""font-size:50px; font-weight:bold;""
                            >positive</p>
                            <div style=""width:240px; margin: auto;"">
                                <img src=""images/Y_L_U_13.png"" style= ""width:200px""alt=""img"">
                            </div>
                        </div>","-200","","0","images/Y_L_U_13.png","","","","positive","1","13","Y","L","U","",""
"","","","","","html-slider-response","134","444695","0.0-130.0","tnxfe33xem","8","NaN","<div style=""width:500px;"">
                            <p style=""font-size:50px; font-weight:bold;""
                            >positive</p>
                            <div style=""width:240px; margin: auto;"">
                                <img src=""images/R_L_U_27.png"" style= ""width:200px""alt=""img"">
                            </div>
                        </div>","10","","0","images/R_L_U_27.png","","","","positive","1","27","R","L","U","",""
"","","","","","html-slider-response","135","446211","0.0-131.0","tnxfe33xem","8","NaN","<div style=""width:500px;"">
                            <p style=""font-size:50px; font-weight:bold;""
                            >positive</p>
                            <div style=""width:240px; margin: auto;"">
                                <img src=""images/B_L_S_02.png"" style= ""width:200px""alt=""img"">
                            </div>
                        </div>","200","","0","images/B_L_S_02.png","","","","positive","2","02","B","L","S","",""
"","","","","","html-slider-response","136","447897","0.0-132.0","tnxfe33xem","8","NaN","<div style=""width:500px;"">
                            <p style=""font-size:50px; font-weight:bold;""
                            >positive</p>
                            <div style=""width:240px; margin: auto;"">
                                <img src=""images/Y_D_S_15.png"" style= ""width:200px""alt=""img"">
                            </div>
                        </div>","-200","","0","images/Y_D_S_15.png","","","","positive","2","15","Y","D","S","",""
"","","","","","html-slider-response","137","449916","0.0-133.0","tnxfe33xem","8","NaN","<div style=""width:500px;"">
                            <p style=""font-size:50px; font-weight:bold;""
                            >positive</p>
                            <div style=""width:240px; margin: auto;"">
                                <img src=""images/Y_L_S_12.png"" style= ""width:200px""alt=""img"">
                            </div>
                        </div>","-75","","0","images/Y_L_S_12.png","","","","positive","1","12","Y","L","S","",""
"","","","","","html-slider-response","138","453144","0.0-134.0","tnxfe33xem","8","NaN","<div style=""width:500px;"">
                            <p style=""font-size:50px; font-weight:bold;""
                            >positive</p>
                            <div style=""width:240px; margin: auto;"">
                                <img src=""images/G_D_S_41.png"" style= ""width:200px""alt=""img"">
                            </div>
                        </div>","-31","","0","images/G_D_S_41.png","","","","positive","1","41","G","D","S","",""
"","","","","","html-slider-response","139","459811","0.0-135.0","tnxfe33xem","8","NaN","<div style=""width:500px;"">
                            <p style=""font-size:50px; font-weight:bold;""
                            >positive</p>
                            <div style=""width:240px; margin: auto;"">
                                <img src=""images/G_D_U_44.png"" style= ""width:200px""alt=""img"">
                            </div>
                        </div>","-143","","0","images/G_D_U_44.png","","","","positive","1","44","G","D","U","",""
"","","","","","html-slider-response","140","463190","0.0-136.0","tnxfe33xem","8","NaN","<div style=""width:500px;"">
                            <p style=""font-size:50px; font-weight:bold;""
                            >positive</p>
                            <div style=""width:240px; margin: auto;"">
                                <img src=""images/G_L_S_33.png"" style= ""width:200px""alt=""img"">
                            </div>
                        </div>","98","","0","images/G_L_S_33.png","","","","positive","1","33","G","L","S","",""
"","","","","","html-slider-response","141","468881","0.0-137.0","tnxfe33xem","8","NaN","<div style=""width:500px;"">
                            <p style=""font-size:50px; font-weight:bold;""
                            >positive</p>
                            <div style=""width:240px; margin: auto;"">
                                <img src=""images/Y_L_U_13.png"" style= ""width:200px""alt=""img"">
                            </div>
                        </div>","-103","","0","images/Y_L_U_13.png","","","","positive","2","13","Y","L","U","",""
"","","","","","html-slider-response","142","472330","0.0-138.0","tnxfe33xem","8","NaN","<div style=""width:500px;"">
                            <p style=""font-size:50px; font-weight:bold;""
                            >positive</p>
                            <div style=""width:240px; margin: auto;"">
                                <img src=""images/G_L_U_37.png"" style= ""width:200px""alt=""img"">
                            </div>
                        </div>","66","","0","images/G_L_U_37.png","","","","positive","2","37","G","L","U","",""
"","","","","","html-slider-response","143","474229","0.0-139.0","tnxfe33xem","8","NaN","<div style=""width:500px;"">
                            <p style=""font-size:50px; font-weight:bold;""
                            >positive</p>
                            <div style=""width:240px; margin: auto;"">
                                <img src=""images/Y_D_S_15.png"" style= ""width:200px""alt=""img"">
                            </div>
                        </div>","-200","","0","images/Y_D_S_15.png","","","","positive","1","15","Y","D","S","",""
"","","","","","html-slider-response","144","476822","0.0-140.0","tnxfe33xem","8","NaN","<div style=""width:500px;"">
                            <p style=""font-size:50px; font-weight:bold;""
                            >positive</p>
                            <div style=""width:240px; margin: auto;"">
                                <img src=""images/B_D_S_07.png"" style= ""width:200px""alt=""img"">
                            </div>
                        </div>","67","","0","images/B_D_S_07.png","","","","positive","1","07","B","D","S","",""
"","","","","","html-slider-response","145","480923","0.0-141.0","tnxfe33xem","8","NaN","<div style=""width:500px;"">
                            <p style=""font-size:50px; font-weight:bold;""
                            >positive</p>
                            <div style=""width:240px; margin: auto;"">
                                <img src=""images/R_D_U_30.png"" style= ""width:200px""alt=""img"">
                            </div>
                        </div>","-132","","0","images/R_D_U_30.png","","","","positive","1","30","R","D","U","",""
"","","","","","html-slider-response","146","482813","0.0-142.0","tnxfe33xem","8","NaN","<div style=""width:500px;"">
                            <p style=""font-size:50px; font-weight:bold;""
                            >positive</p>
                            <div style=""width:240px; margin: auto;"">
                                <img src=""images/Y_D_U_23.png"" style= ""width:200px""alt=""img"">
                            </div>
                        </div>","-200","","0","images/Y_D_U_23.png","","","","positive","2","23","Y","D","U","",""
"","","","","","html-slider-response","147","485661","0.0-143.0","tnxfe33xem","8","NaN","<div style=""width:500px;"">
                            <p style=""font-size:50px; font-weight:bold;""
                            >positive</p>
                            <div style=""width:240px; margin: auto;"">
                                <img src=""images/B_D_U_10.png"" style= ""width:200px""alt=""img"">
                            </div>
                        </div>","-23","","0","images/B_D_U_10.png","","","","positive","1","10","B","D","U","",""
"","","","","","html-slider-response","148","489348","0.0-144.0","tnxfe33xem","8","NaN","<div style=""width:500px;"">
                            <p style=""font-size:50px; font-weight:bold;""
                            >positive</p>
                            <div style=""width:240px; margin: auto;"">
                                <img src=""images/G_L_S_33.png"" style= ""width:200px""alt=""img"">
                            </div>
                        </div>","-61","","0","images/G_L_S_33.png","","","","positive","2","33","G","L","S","",""
"","","","","","html-slider-response","149","491031","0.0-145.0","tnxfe33xem","8","NaN","<div style=""width:500px;"">
                            <p style=""font-size:50px; font-weight:bold;""
                            >positive</p>
                            <div style=""width:240px; margin: auto;"">
                                <img src=""images/Y_D_U_23.png"" style= ""width:200px""alt=""img"">
                            </div>
                        </div>","-200","","0","images/Y_D_U_23.png","","","","positive","1","23","Y","D","U","",""
"","","","","","html-slider-response","150","493296","0.0-146.0","tnxfe33xem","8","NaN","<div style=""width:500px;"">
                            <p style=""font-size:50px; font-weight:bold;""
                            >positive</p>
                            <div style=""width:240px; margin: auto;"">
                                <img src=""images/B_D_S_07.png"" style= ""width:200px""alt=""img"">
                            </div>
                        </div>","77","","0","images/B_D_S_07.png","","","","positive","2","07","B","D","S","",""
"","","","","","html-slider-response","151","496094","0.0-147.0","tnxfe33xem","8","NaN","<div style=""width:500px;"">
                            <p style=""font-size:50px; font-weight:bold;""
                            >positive</p>
                            <div style=""width:240px; margin: auto;"">
                                <img src=""images/B_D_U_10.png"" style= ""width:200px""alt=""img"">
                            </div>
                        </div>","-72","","0","images/B_D_U_10.png","","","","positive","2","10","B","D","U","",""
"","","","","","html-button-response","152","497937","0.0-148.0","tnxfe33xem","8","1339","<p>Great Job! You've finished block 4.<br></br> You have 4 block(s) left to go.<br></br></p>","0","","","","","","","","","","","","","",""
"","","","","","html-button-response","153","498843","0.0-149.0","tnxfe33xem","8","905","<p>In this block of trials, you will be asked to rate how much you associate each map with:</p > <p style = 'font-size:150%; font-weight: bold'>playful</p><br></br>","0","","","","","","","","","","","","","",""
"","","","","","html-slider-response","154","500664","0.0-150.0","tnxfe33xem","8","NaN","<div style=""width:500px;"">
                            <p style=""font-size:50px; font-weight:bold;""
                            >playful</p>
                            <div style=""width:240px; margin: auto;"">
                                <img src=""images/R_L_S_26.png"" style= ""width:200px""alt=""img"">
                            </div>
                        </div>","200","","0","images/R_L_S_26.png","","","","playful","2","26","R","L","S","",""
"","","","","","html-slider-response","155","502644","0.0-151.0","tnxfe33xem","8","NaN","<div style=""width:500px;"">
                            <p style=""font-size:50px; font-weight:bold;""
                            >playful</p>
                            <div style=""width:240px; margin: auto;"">
                                <img src=""images/Y_D_U_23.png"" style= ""width:200px""alt=""img"">
                            </div>
                        </div>","-200","","0","images/Y_D_U_23.png","","","","playful","1","23","Y","D","U","",""
"","","","","","html-slider-response","156","504233","0.0-152.0","tnxfe33xem","8","NaN","<div style=""width:500px;"">
                            <p style=""font-size:50px; font-weight:bold;""
                            >playful</p>
                            <div style=""width:240px; margin: auto;"">
                                <img src=""images/B_L_S_02.png"" style= ""width:200px""alt=""img"">
                            </div>
                        </div>","200","","0","images/B_L_S_02.png","","","","playful","1","02","B","L","S","",""
"","","","","","html-slider-response","157","506706","0.0-153.0","tnxfe33xem","8","NaN","<div style=""width:500px;"">
                            <p style=""font-size:50px; font-weight:bold;""
                            >playful</p>
                            <div style=""width:240px; margin: auto;"">
                                <img src=""images/Y_L_U_13.png"" style= ""width:200px""alt=""img"">
                            </div>
                        </div>","-108","","0","images/Y_L_U_13.png","","","","playful","2","13","Y","L","U","",""
"","","","","","html-slider-response","158","509233","0.0-154.0","tnxfe33xem","8","NaN","<div style=""width:500px;"">
                            <p style=""font-size:50px; font-weight:bold;""
                            >playful</p>
                            <div style=""width:240px; margin: auto;"">
                                <img src=""images/G_D_S_41.png"" style= ""width:200px""alt=""img"">
                            </div>
                        </div>","58","","0","images/G_D_S_41.png","","","","playful","2","41","G","D","S","",""
"","","","","","html-slider-response","159","511210","0.0-155.0","tnxfe33xem","8","NaN","<div style=""width:500px;"">
                            <p style=""font-size:50px; font-weight:bold;""
                            >playful</p>
                            <div style=""width:240px; margin: auto;"">
                                <img src=""images/R_D_U_30.png"" style= ""width:200px""alt=""img"">
                            </div>
                        </div>","-200","","0","images/R_D_U_30.png","","","","playful","1","30","R","D","U","",""
"","","","","","html-slider-response","160","512984","0.0-156.0","tnxfe33xem","8","NaN","<div style=""width:500px;"">
                            <p style=""font-size:50px; font-weight:bold;""
                            >playful</p>
                            <div style=""width:240px; margin: auto;"">
                                <img src=""images/Y_D_U_23.png"" style= ""width:200px""alt=""img"">
                            </div>
                        </div>","-200","","0","images/Y_D_U_23.png","","","","playful","2","23","Y","D","U","",""
"","","","","","html-slider-response","161","514630","0.0-157.0","tnxfe33xem","8","NaN","<div style=""width:500px;"">
                            <p style=""font-size:50px; font-weight:bold;""
                            >playful</p>
                            <div style=""width:240px; margin: auto;"">
                                <img src=""images/B_D_U_10.png"" style= ""width:200px""alt=""img"">
                            </div>
                        </div>","-200","","0","images/B_D_U_10.png","","","","playful","2","10","B","D","U","",""
"","","","","","html-slider-response","162","517467","0.0-158.0","tnxfe33xem","8","NaN","<div style=""width:500px;"">
                            <p style=""font-size:50px; font-weight:bold;""
                            >playful</p>
                            <div style=""width:240px; margin: auto;"">
                                <img src=""images/G_L_U_37.png"" style= ""width:200px""alt=""img"">
                            </div>
                        </div>","71","","0","images/G_L_U_37.png","","","","playful","2","37","G","L","U","",""
"","","","","","html-slider-response","163","519406","0.0-159.0","tnxfe33xem","8","NaN","<div style=""width:500px;"">
                            <p style=""font-size:50px; font-weight:bold;""
                            >playful</p>
                            <div style=""width:240px; margin: auto;"">
                                <img src=""images/R_D_U_30.png"" style= ""width:200px""alt=""img"">
                            </div>
                        </div>","-200","","0","images/R_D_U_30.png","","","","playful","2","30","R","D","U","",""
"","","","","","html-slider-response","164","523460","0.0-160.0","tnxfe33xem","8","NaN","<div style=""width:500px;"">
                            <p style=""font-size:50px; font-weight:bold;""
                            >playful</p>
                            <div style=""width:240px; margin: auto;"">
                                <img src=""images/G_L_S_33.png"" style= ""width:200px""alt=""img"">
                            </div>
                        </div>","9","","0","images/G_L_S_33.png","","","","playful","1","33","G","L","S","",""
"","","","","","html-slider-response","165","525660","0.0-161.0","tnxfe33xem","8","NaN","<div style=""width:500px;"">
                            <p style=""font-size:50px; font-weight:bold;""
                            >playful</p>
                            <div style=""width:240px; margin: auto;"">
                                <img src=""images/G_L_S_33.png"" style= ""width:200px""alt=""img"">
                            </div>
                        </div>","18","","0","images/G_L_S_33.png","","","","playful","2","33","G","L","S","",""
"","","","","","html-slider-response","166","527243","0.0-162.0","tnxfe33xem","8","NaN","<div style=""width:500px;"">
                            <p style=""font-size:50px; font-weight:bold;""
                            >playful</p>
                            <div style=""width:240px; margin: auto;"">
                                <img src=""images/R_L_U_27.png"" style= ""width:200px""alt=""img"">
                            </div>
                        </div>","200","","0","images/R_L_U_27.png","","","","playful","2","27","R","L","U","",""
"","","","","","html-slider-response","167","529532","0.0-163.0","tnxfe33xem","8","NaN","<div style=""width:500px;"">
                            <p style=""font-size:50px; font-weight:bold;""
                            >playful</p>
                            <div style=""width:240px; margin: auto;"">
                                <img src=""images/G_D_U_44.png"" style= ""width:200px""alt=""img"">
                            </div>
                        </div>","-114","","0","images/G_D_U_44.png","","","","playful","1","44","G","D","U","",""
"","","","","","html-slider-response","168","531328","0.0-164.0","tnxfe33xem","8","NaN","<div style=""width:500px;"">
                            <p style=""font-size:50px; font-weight:bold;""
                            >playful</p>
                            <div style=""width:240px; margin: auto;"">
                                <img src=""images/Y_L_U_13.png"" style= ""width:200px""alt=""img"">
                            </div>
                        </div>","-200","","0","images/Y_L_U_13.png","","","","playful","1","13","Y","L","U","",""
"","","","","","html-slider-response","169","533036","0.0-165.0","tnxfe33xem","8","NaN","<div style=""width:500px;"">
                            <p style=""font-size:50px; font-weight:bold;""
                            >playful</p>
                            <div style=""width:240px; margin: auto;"">
                                <img src=""images/B_L_S_02.png"" style= ""width:200px""alt=""img"">
                            </div>
                        </div>","200","","0","images/B_L_S_02.png","","","","playful","2","02","B","L","S","",""
"","","","","","html-slider-response","170","535214","0.0-166.0","tnxfe33xem","8","NaN","<div style=""width:500px;"">
                            <p style=""font-size:50px; font-weight:bold;""
                            >playful</p>
                            <div style=""width:240px; margin: auto;"">
                                <img src=""images/Y_D_S_15.png"" style= ""width:200px""alt=""img"">
                            </div>
                        </div>","-200","","0","images/Y_D_S_15.png","","","","playful","2","15","Y","D","S","",""
"","","","","","html-slider-response","171","537528","0.0-167.0","tnxfe33xem","8","NaN","<div style=""width:500px;"">
                            <p style=""font-size:50px; font-weight:bold;""
                            >playful</p>
                            <div style=""width:240px; margin: auto;"">
                                <img src=""images/R_L_S_26.png"" style= ""width:200px""alt=""img"">
                            </div>
                        </div>","200","","0","images/R_L_S_26.png","","","","playful","1","26","R","L","S","",""
"","","","","","html-slider-response","172","539181","0.0-168.0","tnxfe33xem","8","NaN","<div style=""width:500px;"">
                            <p style=""font-size:50px; font-weight:bold;""
                            >playful</p>
                            <div style=""width:240px; margin: auto;"">
                                <img src=""images/G_D_U_44.png"" style= ""width:200px""alt=""img"">
                            </div>
                        </div>","-200","","0","images/G_D_U_44.png","","","","playful","2","44","G","D","U","",""
"","","","","","html-slider-response","173","542456","0.0-169.0","tnxfe33xem","8","NaN","<div style=""width:500px;"">
                            <p style=""font-size:50px; font-weight:bold;""
                            >playful</p>
                            <div style=""width:240px; margin: auto;"">
                                <img src=""images/R_D_S_28.png"" style= ""width:200px""alt=""img"">
                            </div>
                        </div>","-64","","0","images/R_D_S_28.png","","","","playful","1","28","R","D","S","",""
"","","","","","html-slider-response","174","544636","0.0-170.0","tnxfe33xem","8","NaN","<div style=""width:500px;"">
                            <p style=""font-size:50px; font-weight:bold;""
                            >playful</p>
                            <div style=""width:240px; margin: auto;"">
                                <img src=""images/B_D_S_07.png"" style= ""width:200px""alt=""img"">
                            </div>
                        </div>","54","","0","images/B_D_S_07.png","","","","playful","1","07","B","D","S","",""
"","","","","","html-slider-response","175","546246","0.0-171.0","tnxfe33xem","8","NaN","<div style=""width:500px;"">
                            <p style=""font-size:50px; font-weight:bold;""
                            >playful</p>
                            <div style=""width:240px; margin: auto;"">
                                <img src=""images/Y_L_S_12.png"" style= ""width:200px""alt=""img"">
                            </div>
                        </div>","-200","","0","images/Y_L_S_12.png","","","","playful","2","12","Y","L","S","",""
"","","","","","html-slider-response","176","548329","0.0-172.0","tnxfe33xem","8","NaN","<div style=""width:500px;"">
                            <p style=""font-size:50px; font-weight:bold;""
                            >playful</p>
                            <div style=""width:240px; margin: auto;"">
                                <img src=""images/Y_L_S_12.png"" style= ""width:200px""alt=""img"">
                            </div>
                        </div>","-200","","0","images/Y_L_S_12.png","","","","playful","1","12","Y","L","S","",""
"","","","","","html-slider-response","177","553989","0.0-173.0","tnxfe33xem","8","NaN","<div style=""width:500px;"">
                            <p style=""font-size:50px; font-weight:bold;""
                            >playful</p>
                            <div style=""width:240px; margin: auto;"">
                                <img src=""images/R_D_S_28.png"" style= ""width:200px""alt=""img"">
                            </div>
                        </div>","-30","","0","images/R_D_S_28.png","","","","playful","2","28","R","D","S","",""
"","","","","","html-slider-response","178","555690","0.0-174.0","tnxfe33xem","8","NaN","<div style=""width:500px;"">
                            <p style=""font-size:50px; font-weight:bold;""
                            >playful</p>
                            <div style=""width:240px; margin: auto;"">
                                <img src=""images/B_L_U_05.png"" style= ""width:200px""alt=""img"">
                            </div>
                        </div>","200","","0","images/B_L_U_05.png","","","","playful","2","05","B","L","U","",""
"","","","","","html-slider-response","179","557302","0.0-175.0","tnxfe33xem","8","NaN","<div style=""width:500px;"">
                            <p style=""font-size:50px; font-weight:bold;""
                            >playful</p>
                            <div style=""width:240px; margin: auto;"">
                                <img src=""images/B_L_U_05.png"" style= ""width:200px""alt=""img"">
                            </div>
                        </div>","200","","0","images/B_L_U_05.png","","","","playful","1","05","B","L","U","",""
"","","","","","html-slider-response","180","560148","0.0-176.0","tnxfe33xem","8","NaN","<div style=""width:500px;"">
                            <p style=""font-size:50px; font-weight:bold;""
                            >playful</p>
                            <div style=""width:240px; margin: auto;"">
                                <img src=""images/B_D_S_07.png"" style= ""width:200px""alt=""img"">
                            </div>
                        </div>","70","","0","images/B_D_S_07.png","","","","playful","2","07","B","D","S","",""
"","","","","","html-slider-response","181","563477","0.0-177.0","tnxfe33xem","8","NaN","<div style=""width:500px;"">
                            <p style=""font-size:50px; font-weight:bold;""
                            >playful</p>
                            <div style=""width:240px; margin: auto;"">
                                <img src=""images/G_D_S_41.png"" style= ""width:200px""alt=""img"">
                            </div>
                        </div>","2","","0","images/G_D_S_41.png","","","","playful","1","41","G","D","S","",""
"","","","","","html-slider-response","182","564876","0.0-178.0","tnxfe33xem","8","NaN","<div style=""width:500px;"">
                            <p style=""font-size:50px; font-weight:bold;""
                            >playful</p>
                            <div style=""width:240px; margin: auto;"">
                                <img src=""images/Y_D_S_15.png"" style= ""width:200px""alt=""img"">
                            </div>
                        </div>","-200","","0","images/Y_D_S_15.png","","","","playful","1","15","Y","D","S","",""
"","","","","","html-slider-response","183","568043","0.0-179.0","tnxfe33xem","8","NaN","<div style=""width:500px;"">
                            <p style=""font-size:50px; font-weight:bold;""
                            >playful</p>
                            <div style=""width:240px; margin: auto;"">
                                <img src=""images/B_D_U_10.png"" style= ""width:200px""alt=""img"">
                            </div>
                        </div>","-65","","0","images/B_D_U_10.png","","","","playful","1","10","B","D","U","",""
"","","","","","html-slider-response","184","571147","0.0-180.0","tnxfe33xem","8","NaN","<div style=""width:500px;"">
                            <p style=""font-size:50px; font-weight:bold;""
                            >playful</p>
                            <div style=""width:240px; margin: auto;"">
