"success","timeout","failed_images","failed_audio","failed_video","trial_type","trial_index","time_elapsed","internal_node_id","subject_id","condition_num","rt","stimulus","response","question_order","slider_start","image_path","practiceTrial","practiceTrialNum","correct","concept","repetition","map_id","hue","lightness","saturation","ishihara_plate","correct_response"
"true","false","[]","[]","[]","preload","0","332","0.0-0.0","tubj6ev5ur","2","","","","","","","","","","","","","","","","",""
"","","","","","html-button-response","1","11894","0.0-1.0","tubj6ev5ur","2","11559","Welcome to our experiment!<p>At the bottom of this screen, you will see a button that says ""Begin Experiment"".<br>Please only click that button when you are ready to complete the 25 minute experiment in one sitting.</p><p> Once you click that button, it will not be possible to restart the experiment.","0","","","","","","","","","","","","","",""
"true","","","","","fullscreen","2","14282","0.0-2.0","tubj6ev5ur","2","1384","","","","","","","","","","","","","","","",""
"","","","","","survey-multi-select","3","27127","0.0-3.0","tubj6ev5ur","2","12840","","{""Consent"":[""<strong>I consent</strong>""]}","[0]","","","","","","","","","","","","",""
"","","","","","html-button-response","4","29020","0.0-4.0","tubj6ev5ur","2","1891","Welcome! <p> This experiment involves two parts: demographic information, followed by the experimental task.<p> It will take about 25 minutes to complete both parts.","0","","","","","","","","","","","","","",""
"","","","","","survey-text","5","36525","0.0-5.0","tubj6ev5ur","2","7498","","{""Age"":""18"",""Gender"":""Female"",""Race/ethnicity"":""White"",""Languages"":""English""}","","","","","","","","","","","","","",""
"","","","","","html-slider-response","6","65163","0.0-6.0","tubj6ev5ur","2","28636","
                            <div style='text-align:left; font-size:20px; line-height:25px; width: 1400px;'>
                                During this experiment you will be asked to rate how much you associate maps with                    different concepts.<br> Below, you can see some examples of the maps you will be asked to rate. Next to the maps
                    is the list of concepts.<br>You will be asked                    to rate how much you associate each map with each concept on a scale from 'not at all' to 'very much' like the
                    one below. <br><br>
                    Now, please look at the list of concepts and maps. For each concept, think about the map you associate 'very
                    much' with the concept.<br>                     When you see that map during the experiment, please rate it near the 'very much' endpoint of the
                    scale.<br>Now, please think about which map you associate 'not at all'                     with each concept. When you see that map during the experiment, please rate it near the 'not at all' endpoint
                    of the scale.<br>
                    Please use the full range of the scale. That is, if a map is somewhat associated with the concept, you would
                    click partway between the middle point and right side of the scale.                    You will be asked to rate each map for a given concept before moving on to the next concept.<br><br>Press the
                    'Continue' button for instructions on how to use the slider.                    <br><br>
                </div>

                <div style=""width: 500px; margin: 0 auto;"">
                    <!-- Centered text paragraphs -->
                    <div style=""text-align: center; width: 500px;"">
                        <p style=""font-size:25px; line-height:18px;"">calm</p>
                        <p style=""font-size:25px; line-height:18px;"">exciting</p>
                        <p style=""font-size:25px;line-height:18px;"">positive</p>
                        <p style=""font-size:25px;line-height:18px;"">negative</p>
                        <p style=""font-size:25px;line-height:18px;"">serious</p>
                        <p style=""font-size:25px;line-height:18px;"">playful</p>
                        <p style=""font-size:25px;line-height:18px;"">trustworthy</p>
                        <p style=""font-size:25px;line-height:18px;"">disturbing</p>
                    </div>

                    <!-- Grid section -->
                   <div style=""display: flex; justify-content: center; padding-top: 15px;"">
                    <div style=""display: grid; grid-template-columns: repeat(8, 80px); grid-gap: 5px; width: auto;"">
                        <img src=""images/B_D_S_33.png"" alt=""map"" style=""width: 100%;""><img src=""images/B_D_U_37.png"" alt=""map"" style=""width: 100%;""><img src=""images/R_L_S_07.png"" alt=""map"" style=""width: 100%;""><img src=""images/G_L_S_15.png"" alt=""map"" style=""width: 100%;""><img src=""images/G_D_U_27.png"" alt=""map"" style=""width: 100%;""><img src=""images/B_L_S_28.png"" alt=""map"" style=""width: 100%;""><img src=""images/Y_L_S_41.png"" alt=""map"" style=""width: 100%;""><img src=""images/B_L_U_30.png"" alt=""map"" style=""width: 100%;""><img src=""images/G_D_S_26.png"" alt=""map"" style=""width: 100%;""><img src=""images/R_D_U_13.png"" alt=""map"" style=""width: 100%;""><img src=""images/G_L_U_23.png"" alt=""map"" style=""width: 100%;""><img src=""images/R_D_S_12.png"" alt=""map"" style=""width: 100%;""><img src=""images/Y_L_U_44.png"" alt=""map"" style=""width: 100%;""><img src=""images/R_L_U_10.png"" alt=""map"" style=""width: 100%;""><img src=""images/Y_D_U_05.png"" alt=""map"" style=""width: 100%;""><img src=""images/Y_D_S_02.png"" alt=""map"" style=""width: 100%;"">
                    </div>
                </div>

                    <!-- Clear floats -->
                    <div style=""clear: both;""></div>
                </div>
                            ","58","","0","maps_anchoring.png","true","","","","","","","","","",""
"","","","","","html-button-response","7","73915","0.0-7.0","tubj6ev5ur","2","8751","<div style=""width:800px;""><p style=""text-align:left"">To move the slider, click and drag your cursor to the location of the scale where you would like to make your rating and then let go. When you let go of the slider, your response will be recorded and the next trial will begin. <br>
                    We are interested in your initial impressions of each map for the given concept, so please go with your first intuition. <br>
                    Before you begin the experiment, there will be four training trials for you to practice using the scale. <br>
                     When you are ready to start the training trials, please click ""Continue"".</p><br></div>","0","","","","","","","","","","","","","",""
"","","","","","html-slider-response","8","76577","0.0-8.0-0.0","tubj6ev5ur","2","NaN","<div style=""width:500px;"">
                                    <p style=""font-size:25px;"">Please move the slider all the way to the <br> right endpoint of the scale</p>

                                    </div>
                                </div>","200","","0","","true","0","true","","","","","","","",""
"","","","","","html-button-response","9","78027","0.0-8.0-1.0","tubj6ev5ur","2","948","<p align='center'><b>Good job!</b> Click on 'Continue' to proceed.</p>","0","","","","","","","","","","","","","",""
"","","","","","html-slider-response","10","79995","0.0-9.0-0.0","tubj6ev5ur","2","NaN","<div style=""width:500px;"">
                                    <p style=""font-size:25px;"">Please move the slider all the way to the <br> left endpoint of the scale</p>

                                    </div>
                                </div>","-200","","0","","true","1","true","","","","","","","",""
"","","","","","html-button-response","11","81191","0.0-9.0-1.0","tubj6ev5ur","2","695","<p align='center'><b>Good job!</b> Click on 'Continue' to proceed.</p>","0","","","","","","","","","","","","","",""
"","","","","","html-slider-response","12","82886","0.0-10.0-0.0","tubj6ev5ur","2","NaN","<div style=""width:500px;"">
                                    <p style=""font-size:25px;"">Please move the slider halfway between the center and right endpoint of the scale</p>

                                    </div>
                                </div>","2","","0","","true","2","false","","","","","","","",""
"","","","","","html-button-response","13","84520","0.0-10.0-1.0","tubj6ev5ur","2","1132","<p align='center'><b>Not quite!</b> The slider was not placed near the instructed located. Click on 'Continue' to try again. </p>","0","","","","","","","","","","","","","",""
"","","","","","html-slider-response","14","86610","0.0-10.1-0.1","tubj6ev5ur","2","NaN","<div style=""width:500px;"">
                                    <p style=""font-size:25px;"">Please move the slider halfway between the center and right endpoint of the scale</p>

                                    </div>
                                </div>","103","","0","","true","2","true","","","","","","","",""
"","","","","","html-button-response","15","87786","0.0-10.1-1.1","tubj6ev5ur","2","674","<p align='center'><b>Good job!</b> Click on 'Continue' to proceed.</p>","0","","","","","","","","","","","","","",""
"","","","","","html-slider-response","16","90425","0.0-11.0-0.0","tubj6ev5ur","2","NaN","<div style=""width:500px;"">
                                    <p style=""font-size:25px;"">Please move the slider halfway between the center and left endpoint of the scale</p>

                                    </div>
                                </div>","-106","","0","","true","3","true","","","","","","","",""
"","","","","","html-button-response","17","93105","0.0-11.0-1.0","tubj6ev5ur","2","2177","<p align='center'><b>Good job!</b> Click on 'Continue' to proceed.</p>","0","","","","","","","","","","","","","",""
"","","","","","html-button-response","18","94128","0.0-12.0","tubj6ev5ur","2","1022","<p>Great job! You've completed the practice trials. Now you will begin the main task.</p>","0","","","","","","","","","","","","","",""
"","","","","","html-button-response","19","96100","0.0-13.0","tubj6ev5ur","2","1971","<p>In this block of trials, you will be asked to rate how much you associate each map with:</p > <p style = 'font-size:150%; font-weight: bold'>exciting</p><br></br>","0","","","","","","","","","","","","","",""
"","","","","","html-slider-response","20","98243","0.0-14.0","tubj6ev5ur","2","NaN","<div style=""width:500px;"">
                            <p style=""font-size:50px; font-weight:bold;""
                            >exciting</p>
                            <div style=""width:240px; margin: auto;"">
                                <img src=""images/G_D_U_27.png"" style= ""width:200px""alt=""img"">
                            </div>
                        </div>","-120","","0","images/G_D_U_27.png","","","","exciting","2","27","G","D","U","",""
"","","","","","html-slider-response","21","100233","0.0-15.0","tubj6ev5ur","2","NaN","<div style=""width:500px;"">
                            <p style=""font-size:50px; font-weight:bold;""
                            >exciting</p>
                            <div style=""width:240px; margin: auto;"">
                                <img src=""images/R_D_U_13.png"" style= ""width:200px""alt=""img"">
                            </div>
                        </div>","100","","0","images/R_D_U_13.png","","","","exciting","1","13","R","D","U","",""
"","","","","","html-slider-response","22","102428","0.0-16.0","tubj6ev5ur","2","NaN","<div style=""width:500px;"">
                            <p style=""font-size:50px; font-weight:bold;""
                            >exciting</p>
                            <div style=""width:240px; margin: auto;"">
                                <img src=""images/B_L_S_28.png"" style= ""width:200px""alt=""img"">
                            </div>
                        </div>","157","","0","images/B_L_S_28.png","","","","exciting","2","28","B","L","S","",""
"","","","","","html-slider-response","23","104673","0.0-17.0","tubj6ev5ur","2","NaN","<div style=""width:500px;"">
                            <p style=""font-size:50px; font-weight:bold;""
                            >exciting</p>
                            <div style=""width:240px; margin: auto;"">
                                <img src=""images/Y_L_S_41.png"" style= ""width:200px""alt=""img"">
                            </div>
                        </div>","140","","0","images/Y_L_S_41.png","","","","exciting","1","41","Y","L","S","",""
"","","","","","html-slider-response","24","107283","0.0-18.0","tubj6ev5ur","2","NaN","<div style=""width:500px;"">
                            <p style=""font-size:50px; font-weight:bold;""
                            >exciting</p>
                            <div style=""width:240px; margin: auto;"">
                                <img src=""images/R_D_S_12.png"" style= ""width:200px""alt=""img"">
                            </div>
                        </div>","87","","0","images/R_D_S_12.png","","","","exciting","1","12","R","D","S","",""
"","","","","","html-slider-response","25","109319","0.0-19.0","tubj6ev5ur","2","NaN","<div style=""width:500px;"">
                            <p style=""font-size:50px; font-weight:bold;""
                            >exciting</p>
                            <div style=""width:240px; margin: auto;"">
                                <img src=""images/B_D_U_37.png"" style= ""width:200px""alt=""img"">
                            </div>
                        </div>","-58","","0","images/B_D_U_37.png","","","","exciting","2","37","B","D","U","",""
"","","","","","html-slider-response","26","111787","0.0-20.0","tubj6ev5ur","2","NaN","<div style=""width:500px;"">
                            <p style=""font-size:50px; font-weight:bold;""
                            >exciting</p>
                            <div style=""width:240px; margin: auto;"">
                                <img src=""images/Y_D_U_05.png"" style= ""width:200px""alt=""img"">
                            </div>
                        </div>","-174","","0","images/Y_D_U_05.png","","","","exciting","1","05","Y","D","U","",""
"","","","","","html-slider-response","27","115493","0.0-21.0","tubj6ev5ur","2","NaN","<div style=""width:500px;"">
                            <p style=""font-size:50px; font-weight:bold;""
                            >exciting</p>
                            <div style=""width:240px; margin: auto;"">
                                <img src=""images/B_L_S_28.png"" style= ""width:200px""alt=""img"">
                            </div>
                        </div>","134","","0","images/B_L_S_28.png","","","","exciting","1","28","B","L","S","",""
"","","","","","html-slider-response","28","117417","0.0-22.0","tubj6ev5ur","2","NaN","<div style=""width:500px;"">
                            <p style=""font-size:50px; font-weight:bold;""
                            >exciting</p>
                            <div style=""width:240px; margin: auto;"">
                                <img src=""images/R_L_U_10.png"" style= ""width:200px""alt=""img"">
                            </div>
                        </div>","40","","0","images/R_L_U_10.png","","","","exciting","1","10","R","L","U","",""
"","","","","","html-slider-response","29","119557","0.0-23.0","tubj6ev5ur","2","NaN","<div style=""width:500px;"">
                            <p style=""font-size:50px; font-weight:bold;""
                            >exciting</p>
                            <div style=""width:240px; margin: auto;"">
                                <img src=""images/B_D_S_33.png"" style= ""width:200px""alt=""img"">
                            </div>
                        </div>","90","","0","images/B_D_S_33.png","","","","exciting","2","33","B","D","S","",""
"","","","","","html-slider-response","30","121889","0.0-24.0","tubj6ev5ur","2","NaN","<div style=""width:500px;"">
                            <p style=""font-size:50px; font-weight:bold;""
                            >exciting</p>
                            <div style=""width:240px; margin: auto;"">
                                <img src=""images/R_L_S_07.png"" style= ""width:200px""alt=""img"">
                            </div>
                        </div>","165","","0","images/R_L_S_07.png","","","","exciting","1","07","R","L","S","",""
"","","","","","html-slider-response","31","124030","0.0-25.0","tubj6ev5ur","2","NaN","<div style=""width:500px;"">
                            <p style=""font-size:50px; font-weight:bold;""
                            >exciting</p>
                            <div style=""width:240px; margin: auto;"">
                                <img src=""images/R_L_S_07.png"" style= ""width:200px""alt=""img"">
                            </div>
                        </div>","174","","0","images/R_L_S_07.png","","","","exciting","2","07","R","L","S","",""
"","","","","","html-slider-response","32","126035","0.0-26.0","tubj6ev5ur","2","NaN","<div style=""width:500px;"">
                            <p style=""font-size:50px; font-weight:bold;""
                            >exciting</p>
                            <div style=""width:240px; margin: auto;"">
                                <img src=""images/Y_L_U_44.png"" style= ""width:200px""alt=""img"">
                            </div>
                        </div>","-62","","0","images/Y_L_U_44.png","","","","exciting","1","44","Y","L","U","",""
"","","","","","html-slider-response","33","127759","0.0-27.0","tubj6ev5ur","2","NaN","<div style=""width:500px;"">
                            <p style=""font-size:50px; font-weight:bold;""
                            >exciting</p>
                            <div style=""width:240px; margin: auto;"">
                                <img src=""images/G_D_U_27.png"" style= ""width:200px""alt=""img"">
                            </div>
                        </div>","-126","","0","images/G_D_U_27.png","","","","exciting","1","27","G","D","U","",""
"","","","","","html-slider-response","34","130811","0.0-28.0","tubj6ev5ur","2","NaN","<div style=""width:500px;"">
                            <p style=""font-size:50px; font-weight:bold;""
                            >exciting</p>
                            <div style=""width:240px; margin: auto;"">
                                <img src=""images/B_L_U_30.png"" style= ""width:200px""alt=""img"">
                            </div>
                        </div>","-58","","0","images/B_L_U_30.png","","","","exciting","2","30","B","L","U","",""
"","","","","","html-slider-response","35","132783","0.0-29.0","tubj6ev5ur","2","NaN","<div style=""width:500px;"">
                            <p style=""font-size:50px; font-weight:bold;""
                            >exciting</p>
                            <div style=""width:240px; margin: auto;"">
                                <img src=""images/Y_L_U_44.png"" style= ""width:200px""alt=""img"">
                            </div>
                        </div>","-100","","0","images/Y_L_U_44.png","","","","exciting","2","44","Y","L","U","",""
"","","","","","html-slider-response","36","135251","0.0-30.0","tubj6ev5ur","2","NaN","<div style=""width:500px;"">
                            <p style=""font-size:50px; font-weight:bold;""
                            >exciting</p>
                            <div style=""width:240px; margin: auto;"">
                                <img src=""images/Y_D_S_02.png"" style= ""width:200px""alt=""img"">
                            </div>
                        </div>","-146","","0","images/Y_D_S_02.png","","","","exciting","1","02","Y","D","S","",""
"","","","","","html-slider-response","37","137782","0.0-31.0","tubj6ev5ur","2","NaN","<div style=""width:500px;"">
                            <p style=""font-size:50px; font-weight:bold;""
                            >exciting</p>
                            <div style=""width:240px; margin: auto;"">
                                <img src=""images/G_L_U_23.png"" style= ""width:200px""alt=""img"">
                            </div>
                        </div>","46","","0","images/G_L_U_23.png","","","","exciting","1","23","G","L","U","",""
"","","","","","html-slider-response","38","140058","0.0-32.0","tubj6ev5ur","2","NaN","<div style=""width:500px;"">
                            <p style=""font-size:50px; font-weight:bold;""
                            >exciting</p>
                            <div style=""width:240px; margin: auto;"">
                                <img src=""images/Y_D_S_02.png"" style= ""width:200px""alt=""img"">
                            </div>
                        </div>","-156","","0","images/Y_D_S_02.png","","","","exciting","2","02","Y","D","S","",""
"","","","","","html-slider-response","39","142286","0.0-33.0","tubj6ev5ur","2","NaN","<div style=""width:500px;"">
                            <p style=""font-size:50px; font-weight:bold;""
                            >exciting</p>
                            <div style=""width:240px; margin: auto;"">
                                <img src=""images/R_D_S_12.png"" style= ""width:200px""alt=""img"">
                            </div>
                        </div>","111","","0","images/R_D_S_12.png","","","","exciting","2","12","R","D","S","",""
"","","","","","html-slider-response","40","144130","0.0-34.0","tubj6ev5ur","2","NaN","<div style=""width:500px;"">
                            <p style=""font-size:50px; font-weight:bold;""
                            >exciting</p>
                            <div style=""width:240px; margin: auto;"">
                                <img src=""images/B_D_U_37.png"" style= ""width:200px""alt=""img"">
                            </div>
                        </div>","-60","","0","images/B_D_U_37.png","","","","exciting","1","37","B","D","U","",""
"","","","","","html-slider-response","41","145761","0.0-35.0","tubj6ev5ur","2","NaN","<div style=""width:500px;"">
                            <p style=""font-size:50px; font-weight:bold;""
                            >exciting</p>
                            <div style=""width:240px; margin: auto;"">
                                <img src=""images/G_D_S_26.png"" style= ""width:200px""alt=""img"">
                            </div>
                        </div>","70","","0","images/G_D_S_26.png","","","","exciting","2","26","G","D","S","",""
"","","","","","html-slider-response","42","148019","0.0-36.0","tubj6ev5ur","2","NaN","<div style=""width:500px;"">
                            <p style=""font-size:50px; font-weight:bold;""
                            >exciting</p>
                            <div style=""width:240px; margin: auto;"">
                                <img src=""images/Y_D_U_05.png"" style= ""width:200px""alt=""img"">
                            </div>
                        </div>","-156","","0","images/Y_D_U_05.png","","","","exciting","2","05","Y","D","U","",""
"","","","","","html-slider-response","43","149775","0.0-37.0","tubj6ev5ur","2","NaN","<div style=""width:500px;"">
                            <p style=""font-size:50px; font-weight:bold;""
                            >exciting</p>
                            <div style=""width:240px; margin: auto;"">
                                <img src=""images/R_L_U_10.png"" style= ""width:200px""alt=""img"">
                            </div>
                        </div>","54","","0","images/R_L_U_10.png","","","","exciting","2","10","R","L","U","",""
"","","","","","html-slider-response","44","151628","0.0-38.0","tubj6ev5ur","2","NaN","<div style=""width:500px;"">
                            <p style=""font-size:50px; font-weight:bold;""
                            >exciting</p>
                            <div style=""width:240px; margin: auto;"">
                                <img src=""images/G_L_S_15.png"" style= ""width:200px""alt=""img"">
                            </div>
                        </div>","106","","0","images/G_L_S_15.png","","","","exciting","2","15","G","L","S","",""
"","","","","","html-slider-response","45","153298","0.0-39.0","tubj6ev5ur","2","NaN","<div style=""width:500px;"">
                            <p style=""font-size:50px; font-weight:bold;""
                            >exciting</p>
                            <div style=""width:240px; margin: auto;"">
                                <img src=""images/G_D_S_26.png"" style= ""width:200px""alt=""img"">
                            </div>
                        </div>","55","","0","images/G_D_S_26.png","","","","exciting","1","26","G","D","S","",""
"","","","","","html-slider-response","46","154951","0.0-40.0","tubj6ev5ur","2","NaN","<div style=""width:500px;"">
                            <p style=""font-size:50px; font-weight:bold;""
                            >exciting</p>
                            <div style=""width:240px; margin: auto;"">
                                <img src=""images/G_L_S_15.png"" style= ""width:200px""alt=""img"">
                            </div>
                        </div>","87","","0","images/G_L_S_15.png","","","","exciting","1","15","G","L","S","",""
"","","","","","html-slider-response","47","156421","0.0-41.0","tubj6ev5ur","2","NaN","<div style=""width:500px;"">
                            <p style=""font-size:50px; font-weight:bold;""
                            >exciting</p>
                            <div style=""width:240px; margin: auto;"">
                                <img src=""images/G_L_U_23.png"" style= ""width:200px""alt=""img"">
                            </div>
                        </div>","79","","0","images/G_L_U_23.png","","","","exciting","2","23","G","L","U","",""
"","","","","","html-slider-response","48","159080","0.0-42.0","tubj6ev5ur","2","NaN","<div style=""width:500px;"">
                            <p style=""font-size:50px; font-weight:bold;""
                            >exciting</p>
                            <div style=""width:240px; margin: auto;"">
                                <img src=""images/B_D_S_33.png"" style= ""width:200px""alt=""img"">
                            </div>
                        </div>","80","","0","images/B_D_S_33.png","","","","exciting","1","33","B","D","S","",""
"","","","","","html-slider-response","49","161212","0.0-43.0","tubj6ev5ur","2","NaN","<div style=""width:500px;"">
                            <p style=""font-size:50px; font-weight:bold;""
                            >exciting</p>
                            <div style=""width:240px; margin: auto;"">
                                <img src=""images/B_L_U_30.png"" style= ""width:200px""alt=""img"">
                            </div>
                        </div>","-42","","0","images/B_L_U_30.png","","","","exciting","1","30","B","L","U","",""
"","","","","","html-slider-response","50","163352","0.0-44.0","tubj6ev5ur","2","NaN","<div style=""width:500px;"">
                            <p style=""font-size:50px; font-weight:bold;""
                            >exciting</p>
                            <div style=""width:240px; margin: auto;"">
                                <img src=""images/R_D_U_13.png"" style= ""width:200px""alt=""img"">
                            </div>
                        </div>","-86","","0","images/R_D_U_13.png","","","","exciting","2","13","R","D","U","",""
"","","","","","html-slider-response","51","165309","0.0-45.0","tubj6ev5ur","2","NaN","<div style=""width:500px;"">
                            <p style=""font-size:50px; font-weight:bold;""
                            >exciting</p>
                            <div style=""width:240px; margin: auto;"">
                                <img src=""images/Y_L_S_41.png"" style= ""width:200px""alt=""img"">
                            </div>
                        </div>","65","","0","images/Y_L_S_41.png","","","","exciting","2","41","Y","L","S","",""
"","","","","","html-button-response","52","167189","0.0-46.0","tubj6ev5ur","2","1378","<p>Great Job! You've finished block 1.<br></br> You have 7 block(s) left to go.<br></br></p>","0","","","","","","","","","","","","","",""
"","","","","","html-button-response","53","170743","0.0-47.0","tubj6ev5ur","2","3553","<p>In this block of trials, you will be asked to rate how much you associate each map with:</p > <p style = 'font-size:150%; font-weight: bold'>playful</p><br></br>","0","","","","","","","","","","","","","",""
"","","","","","html-slider-response","54","175563","0.0-48.0","tubj6ev5ur","2","NaN","<div style=""width:500px;"">
                            <p style=""font-size:50px; font-weight:bold;""
                            >playful</p>
                            <div style=""width:240px; margin: auto;"">
                                <img src=""images/Y_L_S_41.png"" style= ""width:200px""alt=""img"">
                            </div>
                        </div>","65","","0","images/Y_L_S_41.png","","","","playful","1","41","Y","L","S","",""
"","","","","","html-slider-response","55","177774","0.0-49.0","tubj6ev5ur","2","NaN","<div style=""width:500px;"">
                            <p style=""font-size:50px; font-weight:bold;""
                            >playful</p>
                            <div style=""width:240px; margin: auto;"">
                                <img src=""images/Y_D_S_02.png"" style= ""width:200px""alt=""img"">
                            </div>
                        </div>","-193","","0","images/Y_D_S_02.png","","","","playful","1","02","Y","D","S","",""
"","","","","","html-slider-response","56","179650","0.0-50.0","tubj6ev5ur","2","NaN","<div style=""width:500px;"">
                            <p style=""font-size:50px; font-weight:bold;""
                            >playful</p>
                            <div style=""width:240px; margin: auto;"">
                                <img src=""images/B_D_S_33.png"" style= ""width:200px""alt=""img"">
                            </div>
                        </div>","107","","0","images/B_D_S_33.png","","","","playful","1","33","B","D","S","",""
"","","","","","html-slider-response","57","181743","0.0-51.0","tubj6ev5ur","2","NaN","<div style=""width:500px;"">
                            <p style=""font-size:50px; font-weight:bold;""
                            >playful</p>
                            <div style=""width:240px; margin: auto;"">
                                <img src=""images/Y_D_S_02.png"" style= ""width:200px""alt=""img"">
                            </div>
                        </div>","-188","","0","images/Y_D_S_02.png","","","","playful","2","02","Y","D","S","",""
"","","","","","html-slider-response","58","183987","0.0-52.0","tubj6ev5ur","2","NaN","<div style=""width:500px;"">
                            <p style=""font-size:50px; font-weight:bold;""
                            >playful</p>
                            <div style=""width:240px; margin: auto;"">
                                <img src=""images/R_L_U_10.png"" style= ""width:200px""alt=""img"">
                            </div>
                        </div>","106","","0","images/R_L_U_10.png","","","","playful","2","10","R","L","U","",""
"","","","","","html-slider-response","59","186862","0.0-53.0","tubj6ev5ur","2","NaN","<div style=""width:500px;"">
                            <p style=""font-size:50px; font-weight:bold;""
                            >playful</p>
                            <div style=""width:240px; margin: auto;"">
                                <img src=""images/G_L_U_23.png"" style= ""width:200px""alt=""img"">
                            </div>
                        </div>","38","","0","images/G_L_U_23.png","","","","playful","2","23","G","L","U","",""
"","","","","","html-slider-response","60","188763","0.0-54.0","tubj6ev5ur","2","NaN","<div style=""width:500px;"">
                            <p style=""font-size:50px; font-weight:bold;""
                            >playful</p>
                            <div style=""width:240px; margin: auto;"">
                                <img src=""images/B_L_U_30.png"" style= ""width:200px""alt=""img"">
                            </div>
                        </div>","-90","","0","images/B_L_U_30.png","","","","playful","2","30","B","L","U","",""
"","","","","","html-slider-response","61","190960","0.0-55.0","tubj6ev5ur","2","NaN","<div style=""width:500px;"">
                            <p style=""font-size:50px; font-weight:bold;""
                            >playful</p>
                            <div style=""width:240px; margin: auto;"">
                                <img src=""images/R_D_S_12.png"" style= ""width:200px""alt=""img"">
                            </div>
                        </div>","140","","0","images/R_D_S_12.png","","","","playful","1","12","R","D","S","",""
"","","","","","html-slider-response","62","194122","0.0-56.0","tubj6ev5ur","2","NaN","<div style=""width:500px;"">
                            <p style=""font-size:50px; font-weight:bold;""
                            >playful</p>
                            <div style=""width:240px; margin: auto;"">
                                <img src=""images/R_D_S_12.png"" style= ""width:200px""alt=""img"">
                            </div>
                        </div>","112","","0","images/R_D_S_12.png","","","","playful","2","12","R","D","S","",""
"","","","","","html-slider-response","63","196286","0.0-57.0","tubj6ev5ur","2","NaN","<div style=""width:500px;"">
                            <p style=""font-size:50px; font-weight:bold;""
                            >playful</p>
                            <div style=""width:240px; margin: auto;"">
                                <img src=""images/Y_L_S_41.png"" style= ""width:200px""alt=""img"">
                            </div>
                        </div>","44","","0","images/Y_L_S_41.png","","","","playful","2","41","Y","L","S","",""
"","","","","","html-slider-response","64","198346","0.0-58.0","tubj6ev5ur","2","NaN","<div style=""width:500px;"">
                            <p style=""font-size:50px; font-weight:bold;""
                            >playful</p>
                            <div style=""width:240px; margin: auto;"">
                                <img src=""images/Y_D_U_05.png"" style= ""width:200px""alt=""img"">
                            </div>
                        </div>","-197","","0","images/Y_D_U_05.png","","","","playful","1","05","Y","D","U","",""
"","","","","","html-slider-response","65","200870","0.0-59.0","tubj6ev5ur","2","NaN","<div style=""width:500px;"">
                            <p style=""font-size:50px; font-weight:bold;""
                            >playful</p>
                            <div style=""width:240px; margin: auto;"">
                                <img src=""images/Y_L_U_44.png"" style= ""width:200px""alt=""img"">
                            </div>
                        </div>","-146","","0","images/Y_L_U_44.png","","","","playful","1","44","Y","L","U","",""
"","","","","","html-slider-response","66","202611","0.0-60.0","tubj6ev5ur","2","NaN","<div style=""width:500px;"">
                            <p style=""font-size:50px; font-weight:bold;""
                            >playful</p>
                            <div style=""width:240px; margin: auto;"">
                                <img src=""images/B_D_U_37.png"" style= ""width:200px""alt=""img"">
                            </div>
                        </div>","-84","","0","images/B_D_U_37.png","","","","playful","2","37","B","D","U","",""
"","","","","","html-slider-response","67","204840","0.0-61.0","tubj6ev5ur","2","NaN","<div style=""width:500px;"">
                            <p style=""font-size:50px; font-weight:bold;""
                            >playful</p>
                            <div style=""width:240px; margin: auto;"">
                                <img src=""images/R_L_S_07.png"" style= ""width:200px""alt=""img"">
                            </div>
                        </div>","200","","0","images/R_L_S_07.png","","","","playful","2","07","R","L","S","",""
"","","","","","html-slider-response","68","207075","0.0-62.0","tubj6ev5ur","2","NaN","<div style=""width:500px;"">
                            <p style=""font-size:50px; font-weight:bold;""
                            >playful</p>
                            <div style=""width:240px; margin: auto;"">
                                <img src=""images/Y_D_U_05.png"" style= ""width:200px""alt=""img"">
                            </div>
                        </div>","-200","","0","images/Y_D_U_05.png","","","","playful","2","05","Y","D","U","",""
"","","","","","html-slider-response","69","210214","0.0-63.0","tubj6ev5ur","2","NaN","<div style=""width:500px;"">
                            <p style=""font-size:50px; font-weight:bold;""
                            >playful</p>
                            <div style=""width:240px; margin: auto;"">
                                <img src=""images/B_L_S_28.png"" style= ""width:200px""alt=""img"">
                            </div>
                        </div>","78","","0","images/B_L_S_28.png","","","","playful","2","28","B","L","S","",""
"","","","","","html-slider-response","70","211988","0.0-64.0","tubj6ev5ur","2","NaN","<div style=""width:500px;"">
                            <p style=""font-size:50px; font-weight:bold;""
                            >playful</p>
                            <div style=""width:240px; margin: auto;"">
                                <img src=""images/G_D_U_27.png"" style= ""width:200px""alt=""img"">
                            </div>
                        </div>","-67","","0","images/G_D_U_27.png","","","","playful","1","27","G","D","U","",""
"","","","","","html-slider-response","71","216068","0.0-65.0","tubj6ev5ur","2","NaN","<div style=""width:500px;"">
                            <p style=""font-size:50px; font-weight:bold;""
                            >playful</p>
                            <div style=""width:240px; margin: auto;"">
                                <img src=""images/R_D_U_13.png"" style= ""width:200px""alt=""img"">
                            </div>
                        </div>","-200","","0","images/R_D_U_13.png","","","","playful","2","13","R","D","U","",""
"","","","","","html-slider-response","72","217937","0.0-66.0","tubj6ev5ur","2","NaN","<div style=""width:500px;"">
                            <p style=""font-size:50px; font-weight:bold;""
                            >playful</p>
                            <div style=""width:240px; margin: auto;"">
                                <img src=""images/B_L_S_28.png"" style= ""width:200px""alt=""img"">
                            </div>
                        </div>","100","","0","images/B_L_S_28.png","","","","playful","1","28","B","L","S","",""
"","","","","","html-slider-response","73","219542","0.0-67.0","tubj6ev5ur","2","NaN","<div style=""width:500px;"">
                            <p style=""font-size:50px; font-weight:bold;""
                            >playful</p>
                            <div style=""width:240px; margin: auto;"">
                                <img src=""images/G_D_U_27.png"" style= ""width:200px""alt=""img"">
                            </div>
                        </div>","-98","","0","images/G_D_U_27.png","","","","playful","2","27","G","D","U","",""
"","","","","","html-slider-response","74","221315","0.0-68.0","tubj6ev5ur","2","NaN","<div style=""width:500px;"">
                            <p style=""font-size:50px; font-weight:bold;""
                            >playful</p>
                            <div style=""width:240px; margin: auto;"">
                                <img src=""images/G_L_U_23.png"" style= ""width:200px""alt=""img"">
                            </div>
                        </div>","28","","0","images/G_L_U_23.png","","","","playful","1","23","G","L","U","",""
"","","","","","html-slider-response","75","224253","0.0-69.0","tubj6ev5ur","2","NaN","<div style=""width:500px;"">
                            <p style=""font-size:50px; font-weight:bold;""
                            >playful</p>
                            <div style=""width:240px; margin: auto;"">
                                <img src=""images/B_D_U_37.png"" style= ""width:200px""alt=""img"">
                            </div>
                        </div>","-98","","0","images/B_D_U_37.png","","","","playful","1","37","B","D","U","",""
"","","","","","html-slider-response","76","226569","0.0-70.0","tubj6ev5ur","2","NaN","<div style=""width:500px;"">
                            <p style=""font-size:50px; font-weight:bold;""
                            >playful</p>
                            <div style=""width:240px; margin: auto;"">
                                <img src=""images/G_D_S_26.png"" style= ""width:200px""alt=""img"">
                            </div>
                        </div>","-35","","0","images/G_D_S_26.png","","","","playful","2","26","G","D","S","",""
"","","","","","html-slider-response","77","228837","0.0-71.0","tubj6ev5ur","2","NaN","<div style=""width:500px;"">
                            <p style=""font-size:50px; font-weight:bold;""
                            >playful</p>
                            <div style=""width:240px; margin: auto;"">
                                <img src=""images/R_L_S_07.png"" style= ""width:200px""alt=""img"">
                            </div>
                        </div>","190","","0","images/R_L_S_07.png","","","","playful","1","07","R","L","S","",""
"","","","","","html-slider-response","78","230722","0.0-72.0","tubj6ev5ur","2","NaN","<div style=""width:500px;"">
                            <p style=""font-size:50px; font-weight:bold;""
                            >playful</p>
                            <div style=""width:240px; margin: auto;"">
                                <img src=""images/Y_L_U_44.png"" style= ""width:200px""alt=""img"">
                            </div>
                        </div>","-80","","0","images/Y_L_U_44.png","","","","playful","2","44","Y","L","U","",""
"","","","","","html-slider-response","79","232694","0.0-73.0","tubj6ev5ur","2","NaN","<div style=""width:500px;"">
                            <p style=""font-size:50px; font-weight:bold;""
                            >playful</p>
                            <div style=""width:240px; margin: auto;"">
                                <img src=""images/B_L_U_30.png"" style= ""width:200px""alt=""img"">
                            </div>
                        </div>","-85","","0","images/B_L_U_30.png","","","","playful","1","30","B","L","U","",""
"","","","","","html-slider-response","80","236308","0.0-74.0","tubj6ev5ur","2","NaN","<div style=""width:500px;"">
                            <p style=""font-size:50px; font-weight:bold;""
                            >playful</p>
                            <div style=""width:240px; margin: auto;"">
                                <img src=""images/G_L_S_15.png"" style= ""width:200px""alt=""img"">
                            </div>
                        </div>","158","","0","images/G_L_S_15.png","","","","playful","2","15","G","L","S","",""
"","","","","","html-slider-response","81","239452","0.0-75.0","tubj6ev5ur","2","NaN","<div style=""width:500px;"">
                            <p style=""font-size:50px; font-weight:bold;""
                            >playful</p>
                            <div style=""width:240px; margin: auto;"">
                                <img src=""images/B_D_S_33.png"" style= ""width:200px""alt=""img"">
                            </div>
                        </div>","122","","0","images/B_D_S_33.png","","","","playful","2","33","B","D","S","",""
"","","","","","html-slider-response","82","241679","0.0-76.0","tubj6ev5ur","2","NaN","<div style=""width:500px;"">
                            <p style=""font-size:50px; font-weight:bold;""
                            >playful</p>
                            <div style=""width:240px; margin: auto;"">
                                <img src=""images/R_L_U_10.png"" style= ""width:200px""alt=""img"">
                            </div>
                        </div>","-74","","0","images/R_L_U_10.png","","","","playful","1","10","R","L","U","",""
"","","","","","html-slider-response","83","243854","0.0-77.0","tubj6ev5ur","2","NaN","<div style=""width:500px;"">
                            <p style=""font-size:50px; font-weight:bold;""
                            >playful</p>
                            <div style=""width:240px; margin: auto;"">
                                <img src=""images/G_D_S_26.png"" style= ""width:200px""alt=""img"">
                            </div>
                        </div>","11","","0","images/G_D_S_26.png","","","","playful","1","26","G","D","S","",""
"","","","","","html-slider-response","84","245787","0.0-78.0","tubj6ev5ur","2","NaN","<div style=""width:500px;"">
                            <p style=""font-size:50px; font-weight:bold;""
                            >playful</p>
                            <div style=""width:240px; margin: auto;"">
                                <img src=""images/G_L_S_15.png"" style= ""width:200px""alt=""img"">
                            </div>
                        </div>","71","","0","images/G_L_S_15.png","","","","playful","1","15","G","L","S","",""
"","","","","","html-slider-response","85","249995","0.0-79.0","tubj6ev5ur","2","NaN","<div style=""width:500px;"">
                            <p style=""font-size:50px; font-weight:bold;""
                            >playful</p>
                            <div style=""width:240px; margin: auto;"">
                                <img src=""images/R_D_U_13.png"" style= ""width:200px""alt=""img"">
                            </div>
                        </div>","-174","","0","images/R_D_U_13.png","","","","playful","1","13","R","D","U","",""
"","","","","","html-button-response","86","251357","0.0-80.0","tubj6ev5ur","2","861","<p>Great Job! You've finished block 2.<br></br> You have 6 block(s) left to go.<br></br></p>","0","","","","","","","","","","","","","",""
"","","","","","html-button-response","87","252467","0.0-81.0","tubj6ev5ur","2","1109","<p>In this block of trials, you will be asked to rate how much you associate each map with:</p > <p style = 'font-size:150%; font-weight: bold'>disturbing</p><br></br>","0","","","","","","","","","","","","","",""
"","","","","","html-slider-response","88","255330","0.0-82.0","tubj6ev5ur","2","NaN","<div style=""width:500px;"">
                            <p style=""font-size:50px; font-weight:bold;""
                            >disturbing</p>
                            <div style=""width:240px; margin: auto;"">
                                <img src=""images/Y_D_S_02.png"" style= ""width:200px""alt=""img"">
                            </div>
                        </div>","153","","0","images/Y_D_S_02.png","","","","disturbing","2","02","Y","D","S","",""
"","","","","","html-slider-response","89","257958","0.0-83.0","tubj6ev5ur","2","NaN","<div style=""width:500px;"">
                            <p style=""font-size:50px; font-weight:bold;""
                            >disturbing</p>
                            <div style=""width:240px; margin: auto;"">
                                <img src=""images/B_L_S_28.png"" style= ""width:200px""alt=""img"">
                            </div>
                        </div>","-154","","0","images/B_L_S_28.png","","","","disturbing","2","28","B","L","S","",""
"","","","","","html-slider-response","90","260225","0.0-84.0","tubj6ev5ur","2","NaN","<div style=""width:500px;"">
                            <p style=""font-size:50px; font-weight:bold;""
                            >disturbing</p>
                            <div style=""width:240px; margin: auto;"">
                                <img src=""images/R_L_S_07.png"" style= ""width:200px""alt=""img"">
                            </div>
                        </div>","-169","","0","images/R_L_S_07.png","","","","disturbing","1","07","R","L","S","",""
"","","","","","html-slider-response","91","262729","0.0-85.0","tubj6ev5ur","2","NaN","<div style=""width:500px;"">
                            <p style=""font-size:50px; font-weight:bold;""
                            >disturbing</p>
                            <div style=""width:240px; margin: auto;"">
                                <img src=""images/R_L_U_10.png"" style= ""width:200px""alt=""img"">
                            </div>
                        </div>","45","","0","images/R_L_U_10.png","","","","disturbing","2","10","R","L","U","",""
"","","","","","html-slider-response","92","264786","0.0-86.0","tubj6ev5ur","2","NaN","<div style=""width:500px;"">
                            <p style=""font-size:50px; font-weight:bold;""
                            >disturbing</p>
                            <div style=""width:240px; margin: auto;"">
                                <img src=""images/G_L_U_23.png"" style= ""width:200px""alt=""img"">
                            </div>
                        </div>","-150","","0","images/G_L_U_23.png","","","","disturbing","2","23","G","L","U","",""
"","","","","","html-slider-response","93","267509","0.0-87.0","tubj6ev5ur","2","NaN","<div style=""width:500px;"">
                            <p style=""font-size:50px; font-weight:bold;""
                            >disturbing</p>
                            <div style=""width:240px; margin: auto;"">
                                <img src=""images/Y_D_U_05.png"" style= ""width:200px""alt=""img"">
                            </div>
                        </div>","154","","0","images/Y_D_U_05.png","","","","disturbing","2","05","Y","D","U","",""
"","","","","","html-slider-response","94","269163","0.0-88.0","tubj6ev5ur","2","NaN","<div style=""width:500px;"">
                            <p style=""font-size:50px; font-weight:bold;""
                            >disturbing</p>
                            <div style=""width:240px; margin: auto;"">
                                <img src=""images/G_D_U_27.png"" style= ""width:200px""alt=""img"">
                            </div>
                        </div>","42","","0","images/G_D_U_27.png","","","","disturbing","1","27","G","D","U","",""
"","","","","","html-slider-response","95","271608","0.0-89.0","tubj6ev5ur","2","NaN","<div style=""width:500px;"">
                            <p style=""font-size:50px; font-weight:bold;""
                            >disturbing</p>
                            <div style=""width:240px; margin: auto;"">
                                <img src=""images/Y_D_U_05.png"" style= ""width:200px""alt=""img"">
                            </div>
                        </div>","150","","0","images/Y_D_U_05.png","","","","disturbing","1","05","Y","D","U","",""
"","","","","","html-slider-response","96","273492","0.0-90.0","tubj6ev5ur","2","NaN","<div style=""width:500px;"">
                            <p style=""font-size:50px; font-weight:bold;""
                            >disturbing</p>
                            <div style=""width:240px; margin: auto;"">
                                <img src=""images/R_L_U_10.png"" style= ""width:200px""alt=""img"">
                            </div>
                        </div>","38","","0","images/R_L_U_10.png","","","","disturbing","1","10","R","L","U","",""
"","","","","","html-slider-response","97","275712","0.0-91.0","tubj6ev5ur","2","NaN","<div style=""width:500px;"">
                            <p style=""font-size:50px; font-weight:bold;""
                            >disturbing</p>
                            <div style=""width:240px; margin: auto;"">
                                <img src=""images/G_L_S_15.png"" style= ""width:200px""alt=""img"">
                            </div>
                        </div>","-82","","0","images/G_L_S_15.png","","","","disturbing","2","15","G","L","S","",""
"","","","","","html-slider-response","98","277779","0.0-92.0","tubj6ev5ur","2","NaN","<div style=""width:500px;"">
                            <p style=""font-size:50px; font-weight:bold;""
                            >disturbing</p>
                            <div style=""width:240px; margin: auto;"">
                                <img src=""images/B_L_U_30.png"" style= ""width:200px""alt=""img"">
                            </div>
                        </div>","-97","","0","images/B_L_U_30.png","","","","disturbing","1","30","B","L","U","",""
"","","","","","html-slider-response","99","281206","0.0-93.0","tubj6ev5ur","2","NaN","<div style=""width:500px;"">
                            <p style=""font-size:50px; font-weight:bold;""
                            >disturbing</p>
                            <div style=""width:240px; margin: auto;"">
                                <img src=""images/G_D_S_26.png"" style= ""width:200px""alt=""img"">
                            </div>
                        </div>","-104","","0","images/G_D_S_26.png","","","","disturbing","1","26","G","D","S","",""
"","","","","","html-slider-response","100","284958","0.0-94.0","tubj6ev5ur","2","NaN","<div style=""width:500px;"">
                            <p style=""font-size:50px; font-weight:bold;""
                            >disturbing</p>
                            <div style=""width:240px; margin: auto;"">
                                <img src=""images/Y_L_S_41.png"" style= ""width:200px""alt=""img"">
                            </div>
                        </div>","38","","0","images/Y_L_S_41.png","","","","disturbing","1","41","Y","L","S","",""
"","","","","","html-slider-response","101","287450","0.0-95.0","tubj6ev5ur","2","NaN","<div style=""width:500px;"">
                            <p style=""font-size:50px; font-weight:bold;""
                            >disturbing</p>
                            <div style=""width:240px; margin: auto;"">
                                <img src=""images/Y_L_U_44.png"" style= ""width:200px""alt=""img"">
                            </div>
                        </div>","93","","0","images/Y_L_U_44.png","","","","disturbing","1","44","Y","L","U","",""
"","","","","","html-slider-response","102","290691","0.0-96.0","tubj6ev5ur","2","NaN","<div style=""width:500px;"">
                            <p style=""font-size:50px; font-weight:bold;""
                            >disturbing</p>
                            <div style=""width:240px; margin: auto;"">
                                <img src=""images/B_L_S_28.png"" style= ""width:200px""alt=""img"">
                            </div>
                        </div>","-149","","0","images/B_L_S_28.png","","","","disturbing","1","28","B","L","S","",""
"","","","","","html-slider-response","103","298979","0.0-97.0","tubj6ev5ur","2","NaN","<div style=""width:500px;"">
                            <p style=""font-size:50px; font-weight:bold;""
                            >disturbing</p>
                            <div style=""width:240px; margin: auto;"">
                                <img src=""images/G_D_S_26.png"" style= ""width:200px""alt=""img"">
                            </div>
                        </div>","-98","","0","images/G_D_S_26.png","","","","disturbing","2","26","G","D","S","",""
"","","","","","html-slider-response","104","304178","0.0-98.0","tubj6ev5ur","2","NaN","<div style=""width:500px;"">
                            <p style=""font-size:50px; font-weight:bold;""
                            >disturbing</p>
                            <div style=""width:240px; margin: auto;"">
                                <img src=""images/R_D_U_13.png"" style= ""width:200px""alt=""img"">
                            </div>
                        </div>","161","","0","images/R_D_U_13.png","","","","disturbing","2","13","R","D","U","",""
"","","","","","html-slider-response","105","308538","0.0-99.0","tubj6ev5ur","2","NaN","<div style=""width:500px;"">
                            <p style=""font-size:50px; font-weight:bold;""
                            >disturbing</p>
                            <div style=""width:240px; margin: auto;"">
                                <img src=""images/R_D_S_12.png"" style= ""width:200px""alt=""img"">
                            </div>
                        </div>","22","","0","images/R_D_S_12.png","","","","disturbing","1","12","R","D","S","",""
"","","","","","html-slider-response","106","319439","0.0-100.0","tubj6ev5ur","2","NaN","<div style=""width:500px;"">
                            <p style=""font-size:50px; font-weight:bold;""
                            >disturbing</p>
                            <div style=""width:240px; margin: auto;"">
                                <img src=""images/B_D_U_37.png"" style= ""width:200px""alt=""img"">
                            </div>
                        </div>","-103","","0","images/B_D_U_37.png","","","","disturbing","1","37","B","D","U","",""
"","","","","","html-slider-response","107","322626","0.0-101.0","tubj6ev5ur","2","NaN","<div style=""width:500px;"">
                            <p style=""font-size:50px; font-weight:bold;""
                            >disturbing</p>
                            <div style=""width:240px; margin: auto;"">
                                <img src=""images/Y_D_S_02.png"" style= ""width:200px""alt=""img"">
                            </div>
                        </div>","194","","0","images/Y_D_S_02.png","","","","disturbing","1","02","Y","D","S","",""
"","","","","","html-slider-response","108","332131","0.0-102.0","tubj6ev5ur","2","NaN","<div style=""width:500px;"">
                            <p style=""font-size:50px; font-weight:bold;""
                            >disturbing</p>
                            <div style=""width:240px; margin: auto;"">
                                <img src=""images/Y_L_U_44.png"" style= ""width:200px""alt=""img"">
                            </div>
                        </div>","60","","0","images/Y_L_U_44.png","","","","disturbing","2","44","Y","L","U","",""
"","","","","","html-slider-response","109","334807","0.0-103.0","tubj6ev5ur","2","NaN","<div style=""width:500px;"">
                            <p style=""font-size:50px; font-weight:bold;""
                            >disturbing</p>
                            <div style=""width:240px; margin: auto;"">
                                <img src=""images/R_D_U_13.png"" style= ""width:200px""alt=""img"">
                            </div>
                        </div>","109","","0","images/R_D_U_13.png","","","","disturbing","1","13","R","D","U","",""
"","","","","","html-slider-response","110","337777","0.0-104.0","tubj6ev5ur","2","NaN","<div style=""width:500px;"">
                            <p style=""font-size:50px; font-weight:bold;""
                            >disturbing</p>
                            <div style=""width:240px; margin: auto;"">
                                <img src=""images/Y_L_S_41.png"" style= ""width:200px""alt=""img"">
                            </div>
                        </div>","42","","0","images/Y_L_S_41.png","","","","disturbing","2","41","Y","L","S","",""
"","","","","","html-slider-response","111","340651","0.0-105.0","tubj6ev5ur","2","NaN","<div style=""width:500px;"">
                            <p style=""font-size:50px; font-weight:bold;""
                            >disturbing</p>
                            <div style=""width:240px; margin: auto;"">
                                <img src=""images/B_D_U_37.png"" style= ""width:200px""alt=""img"">
                            </div>
                        </div>","-154","","0","images/B_D_U_37.png","","","","disturbing","2","37","B","D","U","",""
"","","","","","html-slider-response","112","343087","0.0-106.0","tubj6ev5ur","2","NaN","<div style=""width:500px;"">
                            <p style=""font-size:50px; font-weight:bold;""
                            >disturbing</p>
                            <div style=""width:240px; margin: auto;"">
                                <img src=""images/G_D_U_27.png"" style= ""width:200px""alt=""img"">
                            </div>
                        </div>","36","","0","images/G_D_U_27.png","","","","disturbing","2","27","G","D","U","",""
"","","","","","html-slider-response","113","346786","0.0-107.0","tubj6ev5ur","2","NaN","<div style=""width:500px;"">
                            <p style=""font-size:50px; font-weight:bold;""
                            >disturbing</p>
                            <div style=""width:240px; margin: auto;"">
                                <img src=""images/B_D_S_33.png"" style= ""width:200px""alt=""img"">
                            </div>
                        </div>","-28","","0","images/B_D_S_33.png","","","","disturbing","2","33","B","D","S","",""
"","","","","","html-slider-response","114","349900","0.0-108.0","tubj6ev5ur","2","NaN","<div style=""width:500px;"">
                            <p style=""font-size:50px; font-weight:bold;""
                            >disturbing</p>
                            <div style=""width:240px; margin: auto;"">
                                <img src=""images/R_L_S_07.png"" style= ""width:200px""alt=""img"">
                            </div>
                        </div>","-18","","0","images/R_L_S_07.png","","","","disturbing","2","07","R","L","S","",""
"","","","","","html-slider-response","115","351832","0.0-109.0","tubj6ev5ur","2","NaN","<div style=""width:500px;"">
                            <p style=""font-size:50px; font-weight:bold;""
                            >disturbing</p>
                            <div style=""width:240px; margin: auto;"">
                                <img src=""images/G_L_U_23.png"" style= ""width:200px""alt=""img"">
                            </div>
                        </div>","-63","","0","images/G_L_U_23.png","","","","disturbing","1","23","G","L","U","",""
"","","","","","html-slider-response","116","354037","0.0-110.0","tubj6ev5ur","2","NaN","<div style=""width:500px;"">
                            <p style=""font-size:50px; font-weight:bold;""
                            >disturbing</p>
                            <div style=""width:240px; margin: auto;"">
                                <img src=""images/B_D_S_33.png"" style= ""width:200px""alt=""img"">
                            </div>
                        </div>","-53","","0","images/B_D_S_33.png","","","","disturbing","1","33","B","D","S","",""
"","","","","","html-slider-response","117","355644","0.0-111.0","tubj6ev5ur","2","NaN","<div style=""width:500px;"">
                            <p style=""font-size:50px; font-weight:bold;""
                            >disturbing</p>
                            <div style=""width:240px; margin: auto;"">
                                <img src=""images/R_D_S_12.png"" style= ""width:200px""alt=""img"">
                            </div>
                        </div>","-70","","0","images/R_D_S_12.png","","","","disturbing","2","12","R","D","S","",""
"","","","","","html-slider-response","118","359428","0.0-112.0","tubj6ev5ur","2","NaN","<div style=""width:500px;"">
                            <p style=""font-size:50px; font-weight:bold;""
                            >disturbing</p>
                            <div style=""width:240px; margin: auto;"">
                                <img src=""images/B_L_U_30.png"" style= ""width:200px""alt=""img"">
                            </div>
                        </div>","-78","","0","images/B_L_U_30.png","","","","disturbing","2","30","B","L","U","",""
"","","","","","html-slider-response","119","361115","0.0-113.0","tubj6ev5ur","2","NaN","<div style=""width:500px;"">
                            <p style=""font-size:50px; font-weight:bold;""
                            >disturbing</p>
                            <div style=""width:240px; margin: auto;"">
                                <img src=""images/G_L_S_15.png"" style= ""width:200px""alt=""img"">
                            </div>
                        </div>","-106","","0","images/G_L_S_15.png","","","","disturbing","1","15","G","L","S","",""
"","","","","","html-button-response","120","362404","0.0-114.0","tubj6ev5ur","2","787","<p>Great Job! You've finished block 3.<br></br> You have 5 block(s) left to go.<br></br></p>","0","","","","","","","","","","","","","",""
"","","","","","html-button-response","121","363123","0.0-115.0","tubj6ev5ur","2","718","<p>In this block of trials, you will be asked to rate how much you associate each map with:</p > <p style = 'font-size:150%; font-weight: bold'>calm</p><br></br>","0","","","","","","","","","","","","","",""
"","","","","","html-slider-response","122","365043","0.0-116.0","tubj6ev5ur","2","NaN","<div style=""width:500px;"">
                            <p style=""font-size:50px; font-weight:bold;""
                            >calm</p>
                            <div style=""width:240px; margin: auto;"">
                                <img src=""images/Y_D_U_05.png"" style= ""width:200px""alt=""img"">
                            </div>
                        </div>","-178","","0","images/Y_D_U_05.png","","","","calm","2","05","Y","D","U","",""
"","","","","","html-slider-response","123","367254","0.0-117.0","tubj6ev5ur","2","NaN","<div style=""width:500px;"">
                            <p style=""font-size:50px; font-weight:bold;""
                            >calm</p>
                            <div style=""width:240px; margin: auto;"">
                                <img src=""images/Y_D_S_02.png"" style= ""width:200px""alt=""img"">
                            </div>
                        </div>","-183","","0","images/Y_D_S_02.png","","","","calm","2","02","Y","D","S","",""
"","","","","","html-slider-response","124","371011","0.0-118.0","tubj6ev5ur","2","NaN","<div style=""width:500px;"">
                            <p style=""font-size:50px; font-weight:bold;""
                            >calm</p>
                            <div style=""width:240px; margin: auto;"">
                                <img src=""images/B_D_S_33.png"" style= ""width:200px""alt=""img"">
                            </div>
                        </div>","9","","0","images/B_D_S_33.png","","","","calm","1","33","B","D","S","",""
"","","","","","html-slider-response","125","372632","0.0-119.0","tubj6ev5ur","2","NaN","<div style=""width:500px;"">
                            <p style=""font-size:50px; font-weight:bold;""
                            >calm</p>
                            <div style=""width:240px; margin: auto;"">
                                <img src=""images/B_D_S_33.png"" style= ""width:200px""alt=""img"">
                            </div>
                        </div>","12","","0","images/B_D_S_33.png","","","","calm","2","33","B","D","S","",""
"","","","","","html-slider-response","126","374794","0.0-120.0","tubj6ev5ur","2","NaN","<div style=""width:500px;"">
                            <p style=""font-size:50px; font-weight:bold;""
                            >calm</p>
                            <div style=""width:240px; margin: auto;"">
                                <img src=""images/Y_D_U_05.png"" style= ""width:200px""alt=""img"">
                            </div>
                        </div>","-194","","0","images/Y_D_U_05.png","","","","calm","1","05","Y","D","U","",""
"","","","","","html-slider-response","127","376823","0.0-121.0","tubj6ev5ur","2","NaN","<div style=""width:500px;"">
                            <p style=""font-size:50px; font-weight:bold;""
                            >calm</p>
                            <div style=""width:240px; margin: auto;"">
                                <img src=""images/R_D_S_12.png"" style= ""width:200px""alt=""img"">
                            </div>
                        </div>","-200","","0","images/R_D_S_12.png","","","","calm","2","12","R","D","S","",""
"","","","","","html-slider-response","128","378995","0.0-122.0","tubj6ev5ur","2","NaN","<div style=""width:500px;"">
                            <p style=""font-size:50px; font-weight:bold;""
                            >calm</p>
                            <div style=""width:240px; margin: auto;"">
                                <img src=""images/R_D_U_13.png"" style= ""width:200px""alt=""img"">
                            </div>
                        </div>","-200","","0","images/R_D_U_13.png","","","","calm","1","13","R","D","U","",""
"","","","","","html-slider-response","129","381521","0.0-123.0","tubj6ev5ur","2","NaN","<div style=""width:500px;"">
                            <p style=""font-size:50px; font-weight:bold;""
                            >calm</p>
                            <div style=""width:240px; margin: auto;"">
                                <img src=""images/G_L_U_23.png"" style= ""width:200px""alt=""img"">
                            </div>
                        </div>","91","","0","images/G_L_U_23.png","","","","calm","2","23","G","L","U","",""
"","","","","","html-slider-response","130","384457","0.0-124.0","tubj6ev5ur","2","NaN","<div style=""width:500px;"">
                            <p style=""font-size:50px; font-weight:bold;""
                            >calm</p>
                            <div style=""width:240px; margin: auto;"">
                                <img src=""images/R_L_S_07.png"" style= ""width:200px""alt=""img"">
                            </div>
                        </div>","-176","","0","images/R_L_S_07.png","","","","calm","2","07","R","L","S","",""
"","","","","","html-slider-response","131","388126","0.0-125.0","tubj6ev5ur","2","NaN","<div style=""width:500px;"">
                            <p style=""font-size:50px; font-weight:bold;""
                            >calm</p>
                            <div style=""width:240px; margin: auto;"">
                                <img src=""images/G_L_S_15.png"" style= ""width:200px""alt=""img"">
                            </div>
                        </div>","38","","0","images/G_L_S_15.png","","","","calm","2","15","G","L","S","",""
"","","","","","html-slider-response","132","391605","0.0-126.0","tubj6ev5ur","2","NaN","<div style=""width:500px;"">
                            <p style=""font-size:50px; font-weight:bold;""
                            >calm</p>
                            <div style=""width:240px; margin: auto;"">
                                <img src=""images/Y_L_S_41.png"" style= ""width:200px""alt=""img"">
                            </div>
                        </div>","-178","","0","images/Y_L_S_41.png","","","","calm","1","41","Y","L","S","",""
"","","","","","html-slider-response","133","397930","0.0-127.0","tubj6ev5ur","2","NaN","<div style=""width:500px;"">
                            <p style=""font-size:50px; font-weight:bold;""
                            >calm</p>
                            <div style=""width:240px; margin: auto;"">
                                <img src=""images/Y_D_S_02.png"" style= ""width:200px""alt=""img"">
                            </div>
                        </div>","-200","","0","images/Y_D_S_02.png","","","","calm","1","02","Y","D","S","",""
"","","","","","html-slider-response","134","402513","0.0-128.0","tubj6ev5ur","2","NaN","<div style=""width:500px;"">
                            <p style=""font-size:50px; font-weight:bold;""
                            >calm</p>
                            <div style=""width:240px; margin: auto;"">
                                <img src=""images/B_L_S_28.png"" style= ""width:200px""alt=""img"">
                            </div>
                        </div>","174","","0","images/B_L_S_28.png","","","","calm","1","28","B","L","S","",""
"","","","","","html-slider-response","135","407425","0.0-129.0","tubj6ev5ur","2","NaN","<div style=""width:500px;"">
                            <p style=""font-size:50px; font-weight:bold;""
                            >calm</p>
                            <div style=""width:240px; margin: auto;"">
                                <img src=""images/Y_L_U_44.png"" style= ""width:200px""alt=""img"">
                            </div>
                        </div>","-55","","0","images/Y_L_U_44.png","","","","calm","1","44","Y","L","U","",""
"","","","","","html-slider-response","136","410092","0.0-130.0","tubj6ev5ur","2","NaN","<div style=""width:500px;"">
                            <p style=""font-size:50px; font-weight:bold;""
                            >calm</p>
                            <div style=""width:240px; margin: auto;"">
                                <img src=""images/B_D_U_37.png"" style= ""width:200px""alt=""img"">
                            </div>
                        </div>","94","","0","images/B_D_U_37.png","","","","calm","1","37","B","D","U","",""
"","","","","","html-slider-response","137","415276","0.0-131.0","tubj6ev5ur","2","NaN","<div style=""width:500px;"">
                            <p style=""font-size:50px; font-weight:bold;""
                            >calm</p>
                            <div style=""width:240px; margin: auto;"">
                                <img src=""images/R_L_U_10.png"" style= ""width:200px""alt=""img"">
                            </div>
                        </div>","10","","0","images/R_L_U_10.png","","","","calm","1","10","R","L","U","",""
"","","","","","html-slider-response","138","419148","0.0-132.0","tubj6ev5ur","2","NaN","<div style=""width:500px;"">
                            <p style=""font-size:50px; font-weight:bold;""
                            >calm</p>
                            <div style=""width:240px; margin: auto;"">
                                <img src=""images/R_D_S_12.png"" style= ""width:200px""alt=""img"">
                            </div>
                        </div>","-200","","0","images/R_D_S_12.png","","","","calm","1","12","R","D","S","",""
"","","","","","html-slider-response","139","422779","0.0-133.0","tubj6ev5ur","2","NaN","<div style=""width:500px;"">
                            <p style=""font-size:50px; font-weight:bold;""
                            >calm</p>
                            <div style=""width:240px; margin: auto;"">
                                <img src=""images/G_D_U_27.png"" style= ""width:200px""alt=""img"">
                            </div>
                        </div>","-198","","0","images/G_D_U_27.png","","","","calm","2","27","G","D","U","",""
"","","","","","html-slider-response","140","425799","0.0-134.0","tubj6ev5ur","2","NaN","<div style=""width:500px;"">
                            <p style=""font-size:50px; font-weight:bold;""
                            >calm</p>
                            <div style=""width:240px; margin: auto;"">
                                <img src=""images/G_D_U_27.png"" style= ""width:200px""alt=""img"">
                            </div>
                        </div>","-190","","0","images/G_D_U_27.png","","","","calm","1","27","G","D","U","",""
"","","","","","html-slider-response","141","428146","0.0-135.0","tubj6ev5ur","2","NaN","<div style=""width:500px;"">
                            <p style=""font-size:50px; font-weight:bold;""
                            >calm</p>
                            <div style=""width:240px; margin: auto;"">
                                <img src=""images/G_D_S_26.png"" style= ""width:200px""alt=""img"">
                            </div>
                        </div>","-179","","0","images/G_D_S_26.png","","","","calm","2","26","G","D","S","",""
"","","","","","html-slider-response","142","430679","0.0-136.0","tubj6ev5ur","2","NaN","<div style=""width:500px;"">
                            <p style=""font-size:50px; font-weight:bold;""
                            >calm</p>
                            <div style=""width:240px; margin: auto;"">
                                <img src=""images/B_L_U_30.png"" style= ""width:200px""alt=""img"">
                            </div>
                        </div>","108","","0","images/B_L_U_30.png","","","","calm","2","30","B","L","U","",""
"","","","","","html-slider-response","143","433075","0.0-137.0","tubj6ev5ur","2","NaN","<div style=""width:500px;"">
                            <p style=""font-size:50px; font-weight:bold;""
                            >calm</p>
                            <div style=""width:240px; margin: auto;"">
                                <img src=""images/G_L_S_15.png"" style= ""width:200px""alt=""img"">
                            </div>
                        </div>","92","","0","images/G_L_S_15.png","","","","calm","1","15","G","L","S","",""
"","","","","","html-slider-response","144","438664","0.0-138.0","tubj6ev5ur","2","NaN","<div style=""width:500px;"">
                            <p style=""font-size:50px; font-weight:bold;""
                            >calm</p>
                            <div style=""width:240px; margin: auto;"">
                                <img src=""images/B_L_S_28.png"" style= ""width:200px""alt=""img"">
                            </div>
                        </div>","179","","0","images/B_L_S_28.png","","","","calm","2","28","B","L","S","",""
"","","","","","html-slider-response","145","442017","0.0-139.0","tubj6ev5ur","2","NaN","<div style=""width:500px;"">
                            <p style=""font-size:50px; font-weight:bold;""
                            >calm</p>
                            <div style=""width:240px; margin: auto;"">
                                <img src=""images/R_D_U_13.png"" style= ""width:200px""alt=""img"">
                            </div>
                        </div>","-200","","0","images/R_D_U_13.png","","","","calm","2","13","R","D","U","",""
"","","","","","html-slider-response","146","444500","0.0-140.0","tubj6ev5ur","2","NaN","<div style=""width:500px;"">
                            <p style=""font-size:50px; font-weight:bold;""
                            >calm</p>
                            <div style=""width:240px; margin: auto;"">
                                <img src=""images/R_L_U_10.png"" style= ""width:200px""alt=""img"">
                            </div>
                        </div>","-152","","0","images/R_L_U_10.png","","","","calm","2","10","R","L","U","",""
"","","","","","html-slider-response","147","447225","0.0-141.0","tubj6ev5ur","2","NaN","<div style=""width:500px;"">
                            <p style=""font-size:50px; font-weight:bold;""
                            >calm</p>
                            <div style=""width:240px; margin: auto;"">
                                <img src=""images/Y_L_U_44.png"" style= ""width:200px""alt=""img"">
                            </div>
                        </div>","-21","","0","images/Y_L_U_44.png","","","","calm","2","44","Y","L","U","",""
"","","","","","html-slider-response","148","450060","0.0-142.0","tubj6ev5ur","2","NaN","<div style=""width:500px;"">
                            <p style=""font-size:50px; font-weight:bold;""
                            >calm</p>
                            <div style=""width:240px; margin: auto;"">
                                <img src=""images/B_L_U_30.png"" style= ""width:200px""alt=""img"">
                            </div>
                        </div>","185","","0","images/B_L_U_30.png","","","","calm","1","30","B","L","U","",""
"","","","","","html-slider-response","149","452400","0.0-143.0","tubj6ev5ur","2","NaN","<div style=""width:500px;"">
                            <p style=""font-size:50px; font-weight:bold;""
                            >calm</p>
                            <div style=""width:240px; margin: auto;"">
                                <img src=""images/G_D_S_26.png"" style= ""width:200px""alt=""img"">
                            </div>
                        </div>","-112","","0","images/G_D_S_26.png","","","","calm","1","26","G","D","S","",""
"","","","","","html-slider-response","150","454627","0.0-144.0","tubj6ev5ur","2","NaN","<div style=""width:500px;"">
                            <p style=""font-size:50px; font-weight:bold;""
                            >calm</p>
                            <div style=""width:240px; margin: auto;"">
                                <img src=""images/G_L_U_23.png"" style= ""width:200px""alt=""img"">
                            </div>
                        </div>","84","","0","images/G_L_U_23.png","","","","calm","1","23","G","L","U","",""
"","","","","","html-slider-response","151","458285","0.0-145.0","tubj6ev5ur","2","NaN","<div style=""width:500px;"">
                            <p style=""font-size:50px; font-weight:bold;""
                            >calm</p>
                            <div style=""width:240px; margin: auto;"">
                                <img src=""images/R_L_S_07.png"" style= ""width:200px""alt=""img"">
                            </div>
                        </div>","-183","","0","images/R_L_S_07.png","","","","calm","1","07","R","L","S","",""
"","","","","","html-slider-response","152","460538","0.0-146.0","tubj6ev5ur","2","NaN","<div style=""width:500px;"">
                            <p style=""font-size:50px; font-weight:bold;""
                            >calm</p>
                            <div style=""width:240px; margin: auto;"">
                                <img src=""images/B_D_U_37.png"" style= ""width:200px""alt=""img"">
                            </div>
                        </div>","69","","0","images/B_D_U_37.png","","","","calm","2","37","B","D","U","",""
"","","","","","html-slider-response","153","463309","0.0-147.0","tubj6ev5ur","2","NaN","<div style=""width:500px;"">
                            <p style=""font-size:50px; font-weight:bold;""
                            >calm</p>
                            <div style=""width:240px; margin: auto;"">
                                <img src=""images/Y_L_S_41.png"" style= ""width:200px""alt=""img"">
                            </div>
                        </div>","-115","","0","images/Y_L_S_41.png","","","","calm","2","41","Y","L","S","",""
"","","","","","html-button-response","154","464742","0.0-148.0","tubj6ev5ur","2","932","<p>Great Job! You've finished block 4.<br></br> You have 4 block(s) left to go.<br></br></p>","0","","","","","","","","","","","","","",""
"","","","","","html-button-response","155","465724","0.0-149.0","tubj6ev5ur","2","982","<p>In this block of trials, you will be asked to rate how much you associate each map with:</p > <p style = 'font-size:150%; font-weight: bold'>positive</p><br></br>","0","","","","","","","","","","","","","",""
"","","","","","html-slider-response","156","469321","0.0-150.0","tubj6ev5ur","2","NaN","<div style=""width:500px;"">
                            <p style=""font-size:50px; font-weight:bold;""
                            >positive</p>
                            <div style=""width:240px; margin: auto;"">
                                <img src=""images/B_D_S_33.png"" style= ""width:200px""alt=""img"">
                            </div>
                        </div>","26","","0","images/B_D_S_33.png","","","","positive","1","33","B","D","S","",""
"","","","","","html-slider-response","157","472028","0.0-151.0","tubj6ev5ur","2","NaN","<div style=""width:500px;"">
                            <p style=""font-size:50px; font-weight:bold;""
                            >positive</p>
                            <div style=""width:240px; margin: auto;"">
                                <img src=""images/R_L_S_07.png"" style= ""width:200px""alt=""img"">
                            </div>
                        </div>","76","","0","images/R_L_S_07.png","","","","positive","2","07","R","L","S","",""
"","","","","","html-slider-response","158","474791","0.0-152.0","tubj6ev5ur","2","NaN","<div style=""width:500px;"">
                            <p style=""font-size:50px; font-weight:bold;""
                            >positive</p>
                            <div style=""width:240px; margin: auto;"">
                                <img src=""images/R_L_U_10.png"" style= ""width:200px""alt=""img"">
                            </div>
                        </div>","-91","","0","images/R_L_U_10.png","","","","positive","1","10","R","L","U","",""
"","","","","","html-slider-response","159","476741","0.0-153.0","tubj6ev5ur","2","NaN","<div style=""width:500px;"">
                            <p style=""font-size:50px; font-weight:bold;""
                            >positive</p>
                            <div style=""width:240px; margin: auto;"">
                                <img src=""images/R_D_S_12.png"" style= ""width:200px""alt=""img"">
                            </div>
                        </div>","50","","0","images/R_D_S_12.png","","","","positive","2","12","R","D","S","",""
"","","","","","html-slider-response","160","478312","0.0-154.0","tubj6ev5ur","2","NaN","<div style=""width:500px;"">
                            <p style=""font-size:50px; font-weight:bold;""
                            >positive</p>
                            <div style=""width:240px; margin: auto;"">
                                <img src=""images/R_D_S_12.png"" style= ""width:200px""alt=""img"">
                            </div>
                        </div>","50","","0","images/R_D_S_12.png","","","","positive","1","12","R","D","S","",""
"","","","","","html-slider-response","161","483391","0.0-155.0","tubj6ev5ur","2","NaN","<div style=""width:500px;"">
                            <p style=""font-size:50px; font-weight:bold;""
                            >positive</p>
                            <div style=""width:240px; margin: auto;"">
                                <img src=""images/G_L_U_23.png"" style= ""width:200px""alt=""img"">
                            </div>
                        </div>","98","","0","images/G_L_U_23.png","","","","positive","2","23","G","L","U","",""
"","","","","","html-slider-response","162","485834","0.0-156.0","tubj6ev5ur","2","NaN","<div style=""width:500px;"">
                            <p style=""font-size:50px; font-weight:bold;""
                            >positive</p>
                            <div style=""width:240px; margin: auto;"">
                                <img src=""images/Y_D_S_02.png"" style= ""width:200px""alt=""img"">
                            </div>
                        </div>","-200","","0","images/Y_D_S_02.png","","","","positive","2","02","Y","D","S","",""
"","","","","","html-slider-response","163","488477","0.0-157.0","tubj6ev5ur","2","NaN","<div style=""width:500px;"">
                            <p style=""font-size:50px; font-weight:bold;""
                            >positive</p>
                            <div style=""width:240px; margin: auto;"">
                                <img src=""images/G_D_U_27.png"" style= ""width:200px""alt=""img"">
                            </div>
                        </div>","-74","","0","images/G_D_U_27.png","","","","positive","1","27","G","D","U","",""
"","","","","","html-slider-response","164","493836","0.0-158.0","tubj6ev5ur","2","NaN","<div style=""width:500px;"">
                            <p style=""font-size:50px; font-weight:bold;""
                            >positive</p>
                            <div style=""width:240px; margin: auto;"">
                                <img src=""images/G_D_S_26.png"" style= ""width:200px""alt=""img"">
                            </div>
                        </div>","103","","0","images/G_D_S_26.png","","","","positive","2","26","G","D","S","",""
"","","","","","html-slider-response","165","498300","0.0-159.0","tubj6ev5ur","2","NaN","<div style=""width:500px;"">
                            <p style=""font-size:50px; font-weight:bold;""
                            >positive</p>
                            <div style=""width:240px; margin: auto;"">
                                <img src=""images/B_D_U_37.png"" style= ""width:200px""alt=""img"">
                            </div>
                        </div>","16","","0","images/B_D_U_37.png","","","","positive","2","37","B","D","U","",""
"","","","","","html-slider-response","166","501342","0.0-160.0","tubj6ev5ur","2","NaN","<div style=""width:500px;"">
                            <p style=""font-size:50px; font-weight:bold;""
                            >positive</p>
                            <div style=""width:240px; margin: auto;"">
                                <img src=""images/G_L_S_15.png"" style= ""width:200px""alt=""img"">
                            </div>
                        </div>","110","","0","images/G_L_S_15.png","","","","positive","1","15","G","L","S","",""
"","","","","","html-slider-response","167","505295","0.0-161.0","tubj6ev5ur","2","NaN","<div style=""width:500px;"">
                            <p style=""font-size:50px; font-weight:bold;""
                            >positive</p>
                            <div style=""width:240px; margin: auto;"">
                                <img src=""images/B_L_U_30.png"" style= ""width:200px""alt=""img"">
                            </div>
                        </div>","49","","0","images/B_L_U_30.png","","","","positive","2","30","B","L","U","",""
"","","","","","html-slider-response","168","507586","0.0-162.0","tubj6ev5ur","2","NaN","<div style=""width:500px;"">
                            <p style=""font-size:50px; font-weight:bold;""
                            >positive</p>
                            <div style=""width:240px; margin: auto;"">
                                <img src=""images/R_D_U_13.png"" style= ""width:200px""alt=""img"">
                            </div>
                        </div>","-200","","0","images/R_D_U_13.png","","","","positive","1","13","R","D","U","",""
"","","","","","html-slider-response","169","510176","0.0-163.0","tubj6ev5ur","2","NaN","<div style=""width:500px;"">
                            <p style=""font-size:50px; font-weight:bold;""
                            >positive</p>
                            <div style=""width:240px; margin: auto;"">
                                <img src=""images/Y_L_S_41.png"" style= ""width:200px""alt=""img"">
                            </div>
                        </div>","-99","","0","images/Y_L_S_41.png","","","","positive","1","41","Y","L","S","",""
"","","","","","html-slider-response","170","511723","0.0-164.0","tubj6ev5ur","2","NaN","<div style=""width:500px;"">
                            <p style=""font-size:50px; font-weight:bold;""
                            >positive</p>
                            <div style=""width:240px; margin: auto;"">
                                <img src=""images/Y_D_U_05.png"" style= ""width:200px""alt=""img"">
                            </div>
                        </div>","-200","","0","images/Y_D_U_05.png","","","","positive","2","05","Y","D","U","",""
"","","","","","html-slider-response","171","515453","0.0-165.0","tubj6ev5ur","2","NaN","<div style=""width:500px;"">
                            <p style=""font-size:50px; font-weight:bold;""
                            >positive</p>
                            <div style=""width:240px; margin: auto;"">
                                <img src=""images/Y_L_U_44.png"" style= ""width:200px""alt=""img"">
                            </div>
                        </div>","-145","","0","images/Y_L_U_44.png","","","","positive","1","44","Y","L","U","",""
"","","","","","html-slider-response","172","516969","0.0-166.0","tubj6ev5ur","2","NaN","<div style=""width:500px;"">
                            <p style=""font-size:50px; font-weight:bold;""
                            >positive</p>
                            <div style=""width:240px; margin: auto;"">
                                <img src=""images/Y_D_U_05.png"" style= ""width:200px""alt=""img"">
                            </div>
                        </div>","-200","","0","images/Y_D_U_05.png","","","","positive","1","05","Y","D","U","",""
"","","","","","html-slider-response","173","518550","0.0-167.0","tubj6ev5ur","2","NaN","<div style=""width:500px;"">
                            <p style=""font-size:50px; font-weight:bold;""
                            >positive</p>
                            <div style=""width:240px; margin: auto;"">
                                <img src=""images/Y_L_U_44.png"" style= ""width:200px""alt=""img"">
                            </div>
                        </div>","-94","","0","images/Y_L_U_44.png","","","","positive","2","44","Y","L","U","",""
"","","","","","html-slider-response","174","520829","0.0-168.0","tubj6ev5ur","2","NaN","<div style=""width:500px;"">
                            <p style=""font-size:50px; font-weight:bold;""
                            >positive</p>
                            <div style=""width:240px; margin: auto;"">
                                <img src=""images/B_L_S_28.png"" style= ""width:200px""alt=""img"">
                            </div>
                        </div>","110","","0","images/B_L_S_28.png","","","","positive","2","28","B","L","S","",""
"","","","","","html-slider-response","175","522886","0.0-169.0","tubj6ev5ur","2","NaN","<div style=""width:500px;"">
                            <p style=""font-size:50px; font-weight:bold;""
                            >positive</p>
                            <div style=""width:240px; margin: auto;"">
                                <img src=""images/R_D_U_13.png"" style= ""width:200px""alt=""img"">
                            </div>
                        </div>","-200","","0","images/R_D_U_13.png","","","","positive","2","13","R","D","U","",""
"","","","","","html-slider-response","176","525481","0.0-170.0","tubj6ev5ur","2","NaN","<div style=""width:500px;"">
                            <p style=""font-size:50px; font-weight:bold;""
                            >positive</p>
                            <div style=""width:240px; margin: auto;"">
                                <img src=""images/G_D_U_27.png"" style= ""width:200px""alt=""img"">
                            </div>
                        </div>","-46","","0","images/G_D_U_27.png","","","","positive","2","27","G","D","U","",""
"","","","","","html-slider-response","177","529306","0.0-171.0","tubj6ev5ur","2","NaN","<div style=""width:500px;"">
                            <p style=""font-size:50px; font-weight:bold;""
                            >positive</p>
                            <div style=""width:240px; margin: auto;"">
                                <img src=""images/R_L_S_07.png"" style= ""width:200px""alt=""img"">
                            </div>
                        </div>","14","","0","images/R_L_S_07.png","","","","positive","1","07","R","L","S","",""
"","","","","","html-slider-response","178","531118","0.0-172.0","tubj6ev5ur","2","NaN","<div style=""width:500px;"">
                            <p style=""font-size:50px; font-weight:bold;""
                            >positive</p>
                            <div style=""width:240px; margin: auto;"">
                                <img src=""images/R_L_U_10.png"" style= ""width:200px""alt=""img"">
                            </div>
                        </div>","-58","","0","images/R_L_U_10.png","","","","positive","2","10","R","L","U","",""
"","","","","","html-slider-response","179","532661","0.0-173.0","tubj6ev5ur","2","NaN","<div style=""width:500px;"">
                            <p style=""font-size:50px; font-weight:bold;""
                            >positive</p>
                            <div style=""width:240px; margin: auto;"">
                                <img src=""images/G_L_S_15.png"" style= ""width:200px""alt=""img"">
                            </div>
                        </div>","90","","0","images/G_L_S_15.png","","","","positive","2","15","G","L","S","",""
"","","","","","html-slider-response","180","534496","0.0-174.0","tubj6ev5ur","2","NaN","<div style=""width:500px;"">
                            <p style=""font-size:50px; font-weight:bold;""
                            >positive</p>
                            <div style=""width:240px; margin: auto;"">
                                <img src=""images/B_L_S_28.png"" style= ""width:200px""alt=""img"">
                            </div>
                        </div>","72","","0","images/B_L_S_28.png","","","","positive","1","28","B","L","S","",""
"","","","","","html-slider-response","181","537381","0.0-175.0","tubj6ev5ur","2","NaN","<div style=""width:500px;"">
                            <p style=""font-size:50px; font-weight:bold;""
                            >positive</p>
                            <div style=""width:240px; margin: auto;"">
                                <img src=""images/B_D_U_37.png"" style= ""width:200px""alt=""img"">
                            </div>
                        </div>","-59","","0","images/B_D_U_37.png","","","","positive","1","37","B","D","U","",""
"","","","","","html-slider-response","182","539864","0.0-176.0","tubj6ev5ur","2","NaN","<div style=""width:500px;"">
                            <p style=""font-size:50px; font-weight:bold;""
                            >positive</p>
                            <div style=""width:240px; margin: auto;"">
                                <img src=""images/G_D_S_26.png"" style= ""width:200px""alt=""img"">
                            </div>
                        </div>","112","","0","images/G_D_S_26.png","","","","positive","1","26","G","D","S","",""
"","","","","","html-slider-response","183","541684","0.0-177.0","tubj6ev5ur","2","NaN","<div style=""width:500px;"">
                            <p style=""font-size:50px; font-weight:bold;""
                            >positive</p>
                            <div style=""width:240px; margin: auto;"">
                                <img src=""images/B_L_U_30.png"" style= ""width:200px""alt=""img"">
                            </div>
                        </div>","72","","0","images/B_L_U_30.png","","","","positive","1","30","B","L","U","",""
"","","","","","html-slider-response","184","543984","0.0-178.0","tubj6ev5ur","2","NaN","<div style=""width:500px;"">
                            <p style=""font-size:50px; font-weight:bold;""
                            >positive</p>
                            <div style=""width:240px; margin: auto;"">
                                <img src=""images/G_L_U_23.png"" style= ""width:200px""alt=""img"">
                            </div>
                        </div>","58","","0","images/G_L_U_23.png","","","","positive","1","23","G","L","U","",""
"","","","","","html-slider-response","185","545652","0.0-179.0","tubj6ev5ur","2","NaN","<div style=""width:500px;"">
                            <p style=""font-size:50px; font-weight:bold;""
                            >positive</p>
                            <div style=""width:240px; margin: auto;"">
                                <img src=""images/Y_L_S_41.png"" style= ""width:200px""alt=""img"">
                            </div>
