"success","timeout","failed_images","failed_audio","failed_video","trial_type","trial_index","time_elapsed","internal_node_id","subject_id","condition_num","rt","stimulus","response","question_order","slider_start","image_path","practiceTrial","practiceTrialNum","correct","concept","repetition","map_id","hue","lightness","saturation","ishihara_plate","correct_response"
"true","false","[]","[]","[]","preload","0","2313","0.0-0.0","zdyynpkm44","0","","","","","","","","","","","","","","","","",""
"","","","","","html-button-response","1","7970","0.0-1.0","zdyynpkm44","0","5656","Welcome to our experiment!<p>At the bottom of this screen, you will see a button that says ""Begin Experiment"".<br>Please only click that button when you are ready to complete the 25 minute experiment in one sitting.</p><p> Once you click that button, it will not be possible to restart the experiment.","0","","","","","","","","","","","","","",""
"true","","","","","fullscreen","2","10785","0.0-2.0","zdyynpkm44","0","1811","","","","","","","","","","","","","","","",""
"","","","","","survey-multi-select","3","14729","0.0-3.0","zdyynpkm44","0","3940","","{""Consent"":[""<strong>I consent</strong>""]}","[0]","","","","","","","","","","","","",""
"","","","","","html-button-response","4","16295","0.0-4.0","zdyynpkm44","0","1561","Welcome! <p> This experiment involves two parts: demographic information, followed by the experimental task.<p> It will take about 25 minutes to complete both parts.","0","","","","","","","","","","","","","",""
"","","","","","survey-text","5","29080","0.0-5.0","zdyynpkm44","0","12774","","{""Age"":""19"",""Gender"":""Male"",""Race/ethnicity"":""Caucasian"",""Languages"":""English""}","","","","","","","","","","","","","",""
"","","","","","html-slider-response","6","59590","0.0-6.0","zdyynpkm44","0","30505","
                            <div style='text-align:left; font-size:20px; line-height:25px; width: 1400px;'>
                                During this experiment you will be asked to rate how much you associate maps with                    different concepts.<br> Below, you can see some examples of the maps you will be asked to rate. Next to the maps
                    is the list of concepts.<br>You will be asked                    to rate how much you associate each map with each concept on a scale from 'not at all' to 'very much' like the
                    one below. <br><br>
                    Now, please look at the list of concepts and maps. For each concept, think about the map you associate 'very
                    much' with the concept.<br>                     When you see that map during the experiment, please rate it near the 'very much' endpoint of the
                    scale.<br>Now, please think about which map you associate 'not at all'                     with each concept. When you see that map during the experiment, please rate it near the 'not at all' endpoint
                    of the scale.<br>
                    Please use the full range of the scale. That is, if a map is somewhat associated with the concept, you would
                    click partway between the middle point and right side of the scale.                    You will be asked to rate each map for a given concept before moving on to the next concept.<br><br>Press the
                    'Continue' button for instructions on how to use the slider.                    <br><br>
                </div>

                <div style=""width: 500px; margin: 0 auto;"">
                    <!-- Centered text paragraphs -->
                    <div style=""text-align: center; width: 500px;"">
                        <p style=""font-size:25px; line-height:18px;"">calm</p>
                        <p style=""font-size:25px; line-height:18px;"">exciting</p>
                        <p style=""font-size:25px;line-height:18px;"">positive</p>
                        <p style=""font-size:25px;line-height:18px;"">negative</p>
                        <p style=""font-size:25px;line-height:18px;"">serious</p>
                        <p style=""font-size:25px;line-height:18px;"">playful</p>
                        <p style=""font-size:25px;line-height:18px;"">trustworthy</p>
                        <p style=""font-size:25px;line-height:18px;"">disturbing</p>
                    </div>

                    <!-- Grid section -->
                   <div style=""display: flex; justify-content: center; padding-top: 15px;"">
                    <div style=""display: grid; grid-template-columns: repeat(8, 80px); grid-gap: 5px; width: auto;"">
                        <img src=""images/B_L_S_26.png"" alt=""map"" style=""width: 100%;""><img src=""images/B_D_U_30.png"" alt=""map"" style=""width: 100%;""><img src=""images/G_D_S_15.png"" alt=""map"" style=""width: 100%;""><img src=""images/G_L_S_12.png"" alt=""map"" style=""width: 100%;""><img src=""images/B_L_U_27.png"" alt=""map"" style=""width: 100%;""><img src=""images/B_D_S_28.png"" alt=""map"" style=""width: 100%;""><img src=""images/R_D_U_10.png"" alt=""map"" style=""width: 100%;""><img src=""images/R_L_U_05.png"" alt=""map"" style=""width: 100%;""><img src=""images/Y_L_S_33.png"" alt=""map"" style=""width: 100%;""><img src=""images/R_D_S_07.png"" alt=""map"" style=""width: 100%;""><img src=""images/Y_D_U_44.png"" alt=""map"" style=""width: 100%;""><img src=""images/Y_L_U_37.png"" alt=""map"" style=""width: 100%;""><img src=""images/G_D_U_23.png"" alt=""map"" style=""width: 100%;""><img src=""images/Y_D_S_41.png"" alt=""map"" style=""width: 100%;""><img src=""images/G_L_U_13.png"" alt=""map"" style=""width: 100%;""><img src=""images/R_L_S_02.png"" alt=""map"" style=""width: 100%;"">
                    </div>
                </div>

                    <!-- Clear floats -->
                    <div style=""clear: both;""></div>
                </div>
                            ","null","","0","maps_anchoring.png","true","","","","","","","","","",""
"","","","","","html-button-response","7","67648","0.0-7.0","zdyynpkm44","0","8057","<div style=""width:800px;""><p style=""text-align:left"">To move the slider, click and drag your cursor to the location of the scale where you would like to make your rating and then let go. When you let go of the slider, your response will be recorded and the next trial will begin. <br>
                    We are interested in your initial impressions of each map for the given concept, so please go with your first intuition. <br>
                    Before you begin the experiment, there will be four training trials for you to practice using the scale. <br>
                     When you are ready to start the training trials, please click ""Continue"".</p><br></div>","0","","","","","","","","","","","","","",""
"","","","","","html-slider-response","8","70392","0.0-8.0-0.0","zdyynpkm44","0","NaN","<div style=""width:500px;"">
                                    <p style=""font-size:25px;"">Please move the slider all the way to the <br> right endpoint of the scale</p>

                                    </div>
                                </div>","200","","0","","true","0","true","","","","","","","",""
"","","","","","html-button-response","9","71811","0.0-8.0-1.0","zdyynpkm44","0","905","<p align='center'><b>Good job!</b> Click on 'Continue' to proceed.</p>","0","","","","","","","","","","","","","",""
"","","","","","html-slider-response","10","73622","0.0-9.0-0.0","zdyynpkm44","0","NaN","<div style=""width:500px;"">
                                    <p style=""font-size:25px;"">Please move the slider all the way to the <br> left endpoint of the scale</p>

                                    </div>
                                </div>","-200","","0","","true","1","true","","","","","","","",""
"","","","","","html-button-response","11","74870","0.0-9.0-1.0","zdyynpkm44","0","744","<p align='center'><b>Good job!</b> Click on 'Continue' to proceed.</p>","0","","","","","","","","","","","","","",""
"","","","","","html-slider-response","12","79309","0.0-10.0-0.0","zdyynpkm44","0","NaN","<div style=""width:500px;"">
                                    <p style=""font-size:25px;"">Please move the slider halfway between the center and right endpoint of the scale</p>

                                    </div>
                                </div>","105","","0","","true","2","true","","","","","","","",""
"","","","","","html-button-response","13","80598","0.0-10.0-1.0","zdyynpkm44","0","786","<p align='center'><b>Good job!</b> Click on 'Continue' to proceed.</p>","0","","","","","","","","","","","","","",""
"","","","","","html-slider-response","14","83078","0.0-11.0-0.0","zdyynpkm44","0","NaN","<div style=""width:500px;"">
                                    <p style=""font-size:25px;"">Please move the slider halfway between the center and left endpoint of the scale</p>

                                    </div>
                                </div>","-105","","0","","true","3","true","","","","","","","",""
"","","","","","html-button-response","15","88251","0.0-11.0-1.0","zdyynpkm44","0","4669","<p align='center'><b>Good job!</b> Click on 'Continue' to proceed.</p>","0","","","","","","","","","","","","","",""
"","","","","","html-button-response","16","89308","0.0-12.0","zdyynpkm44","0","1056","<p>Great job! You've completed the practice trials. Now you will begin the main task.</p>","0","","","","","","","","","","","","","",""
"","","","","","html-button-response","17","91315","0.0-13.0","zdyynpkm44","0","2006","<p>In this block of trials, you will be asked to rate how much you associate each map with:</p > <p style = 'font-size:150%; font-weight: bold'>calm</p><br></br>","0","","","","","","","","","","","","","",""
"","","","","","html-slider-response","18","93843","0.0-14.0","zdyynpkm44","0","NaN","<div style=""width:500px;"">
                            <p style=""font-size:50px; font-weight:bold;""
                            >calm</p>
                            <div style=""width:240px; margin: auto;"">
                                <img src=""images/Y_L_S_33.png"" style= ""width:200px""alt=""img"">
                            </div>
                        </div>","-58","","0","images/Y_L_S_33.png","","","","calm","1","33","Y","L","S","",""
"","","","","","html-slider-response","19","96700","0.0-15.0","zdyynpkm44","0","NaN","<div style=""width:500px;"">
                            <p style=""font-size:50px; font-weight:bold;""
                            >calm</p>
                            <div style=""width:240px; margin: auto;"">
                                <img src=""images/B_D_U_30.png"" style= ""width:200px""alt=""img"">
                            </div>
                        </div>","70","","0","images/B_D_U_30.png","","","","calm","1","30","B","D","U","",""
"","","","","","html-slider-response","20","99944","0.0-16.0","zdyynpkm44","0","NaN","<div style=""width:500px;"">
                            <p style=""font-size:50px; font-weight:bold;""
                            >calm</p>
                            <div style=""width:240px; margin: auto;"">
                                <img src=""images/G_L_S_12.png"" style= ""width:200px""alt=""img"">
                            </div>
                        </div>","-114","","0","images/G_L_S_12.png","","","","calm","2","12","G","L","S","",""
"","","","","","html-slider-response","21","103534","0.0-17.0","zdyynpkm44","0","NaN","<div style=""width:500px;"">
                            <p style=""font-size:50px; font-weight:bold;""
                            >calm</p>
                            <div style=""width:240px; margin: auto;"">
                                <img src=""images/Y_L_U_37.png"" style= ""width:200px""alt=""img"">
                            </div>
                        </div>","23","","0","images/Y_L_U_37.png","","","","calm","2","37","Y","L","U","",""
"","","","","","html-slider-response","22","105861","0.0-18.0","zdyynpkm44","0","NaN","<div style=""width:500px;"">
                            <p style=""font-size:50px; font-weight:bold;""
                            >calm</p>
                            <div style=""width:240px; margin: auto;"">
                                <img src=""images/Y_L_S_33.png"" style= ""width:200px""alt=""img"">
                            </div>
                        </div>","-99","","0","images/Y_L_S_33.png","","","","calm","2","33","Y","L","S","",""
"","","","","","html-slider-response","23","108710","0.0-19.0","zdyynpkm44","0","NaN","<div style=""width:500px;"">
                            <p style=""font-size:50px; font-weight:bold;""
                            >calm</p>
                            <div style=""width:240px; margin: auto;"">
                                <img src=""images/B_D_U_30.png"" style= ""width:200px""alt=""img"">
                            </div>
                        </div>","83","","0","images/B_D_U_30.png","","","","calm","2","30","B","D","U","",""
"","","","","","html-slider-response","24","111142","0.0-20.0","zdyynpkm44","0","NaN","<div style=""width:500px;"">
                            <p style=""font-size:50px; font-weight:bold;""
                            >calm</p>
                            <div style=""width:240px; margin: auto;"">
                                <img src=""images/G_L_S_12.png"" style= ""width:200px""alt=""img"">
                            </div>
                        </div>","-134","","0","images/G_L_S_12.png","","","","calm","1","12","G","L","S","",""
"","","","","","html-slider-response","25","114023","0.0-21.0","zdyynpkm44","0","NaN","<div style=""width:500px;"">
                            <p style=""font-size:50px; font-weight:bold;""
                            >calm</p>
                            <div style=""width:240px; margin: auto;"">
                                <img src=""images/B_L_U_27.png"" style= ""width:200px""alt=""img"">
                            </div>
                        </div>","106","","0","images/B_L_U_27.png","","","","calm","1","27","B","L","U","",""
"","","","","","html-slider-response","26","118075","0.0-22.0","zdyynpkm44","0","NaN","<div style=""width:500px;"">
                            <p style=""font-size:50px; font-weight:bold;""
                            >calm</p>
                            <div style=""width:240px; margin: auto;"">
                                <img src=""images/B_D_S_28.png"" style= ""width:200px""alt=""img"">
                            </div>
                        </div>","119","","0","images/B_D_S_28.png","","","","calm","1","28","B","D","S","",""
"","","","","","html-slider-response","27","120899","0.0-23.0","zdyynpkm44","0","NaN","<div style=""width:500px;"">
                            <p style=""font-size:50px; font-weight:bold;""
                            >calm</p>
                            <div style=""width:240px; margin: auto;"">
                                <img src=""images/Y_D_S_41.png"" style= ""width:200px""alt=""img"">
                            </div>
                        </div>","-179","","0","images/Y_D_S_41.png","","","","calm","1","41","Y","D","S","",""
"","","","","","html-slider-response","28","123696","0.0-24.0","zdyynpkm44","0","NaN","<div style=""width:500px;"">
                            <p style=""font-size:50px; font-weight:bold;""
                            >calm</p>
                            <div style=""width:240px; margin: auto;"">
                                <img src=""images/R_L_U_05.png"" style= ""width:200px""alt=""img"">
                            </div>
                        </div>","-161","","0","images/R_L_U_05.png","","","","calm","2","05","R","L","U","",""
"","","","","","html-slider-response","29","125833","0.0-25.0","zdyynpkm44","0","NaN","<div style=""width:500px;"">
                            <p style=""font-size:50px; font-weight:bold;""
                            >calm</p>
                            <div style=""width:240px; margin: auto;"">
                                <img src=""images/Y_D_U_44.png"" style= ""width:200px""alt=""img"">
                            </div>
                        </div>","-162","","0","images/Y_D_U_44.png","","","","calm","2","44","Y","D","U","",""
"","","","","","html-slider-response","30","128708","0.0-26.0","zdyynpkm44","0","NaN","<div style=""width:500px;"">
                            <p style=""font-size:50px; font-weight:bold;""
                            >calm</p>
                            <div style=""width:240px; margin: auto;"">
                                <img src=""images/B_L_S_26.png"" style= ""width:200px""alt=""img"">
                            </div>
                        </div>","182","","0","images/B_L_S_26.png","","","","calm","1","26","B","L","S","",""
"","","","","","html-slider-response","31","131963","0.0-27.0","zdyynpkm44","0","NaN","<div style=""width:500px;"">
                            <p style=""font-size:50px; font-weight:bold;""
                            >calm</p>
                            <div style=""width:240px; margin: auto;"">
                                <img src=""images/R_D_S_07.png"" style= ""width:200px""alt=""img"">
                            </div>
                        </div>","-160","","0","images/R_D_S_07.png","","","","calm","1","07","R","D","S","",""
"","","","","","html-slider-response","32","136607","0.0-28.0","zdyynpkm44","0","NaN","<div style=""width:500px;"">
                            <p style=""font-size:50px; font-weight:bold;""
                            >calm</p>
                            <div style=""width:240px; margin: auto;"">
                                <img src=""images/G_D_S_15.png"" style= ""width:200px""alt=""img"">
                            </div>
                        </div>","118","","0","images/G_D_S_15.png","","","","calm","1","15","G","D","S","",""
"","","","","","html-slider-response","33","138778","0.0-29.0","zdyynpkm44","0","NaN","<div style=""width:500px;"">
                            <p style=""font-size:50px; font-weight:bold;""
                            >calm</p>
                            <div style=""width:240px; margin: auto;"">
                                <img src=""images/Y_L_U_37.png"" style= ""width:200px""alt=""img"">
                            </div>
                        </div>","34","","0","images/Y_L_U_37.png","","","","calm","1","37","Y","L","U","",""
"","","","","","html-slider-response","34","141254","0.0-30.0","zdyynpkm44","0","NaN","<div style=""width:500px;"">
                            <p style=""font-size:50px; font-weight:bold;""
                            >calm</p>
                            <div style=""width:240px; margin: auto;"">
                                <img src=""images/G_D_U_23.png"" style= ""width:200px""alt=""img"">
                            </div>
                        </div>","78","","0","images/G_D_U_23.png","","","","calm","1","23","G","D","U","",""
"","","","","","html-slider-response","35","143471","0.0-31.0","zdyynpkm44","0","NaN","<div style=""width:500px;"">
                            <p style=""font-size:50px; font-weight:bold;""
                            >calm</p>
                            <div style=""width:240px; margin: auto;"">
                                <img src=""images/G_D_S_15.png"" style= ""width:200px""alt=""img"">
                            </div>
                        </div>","160","","0","images/G_D_S_15.png","","","","calm","2","15","G","D","S","",""
"","","","","","html-slider-response","36","145439","0.0-32.0","zdyynpkm44","0","NaN","<div style=""width:500px;"">
                            <p style=""font-size:50px; font-weight:bold;""
                            >calm</p>
                            <div style=""width:240px; margin: auto;"">
                                <img src=""images/B_D_S_28.png"" style= ""width:200px""alt=""img"">
                            </div>
                        </div>","200","","0","images/B_D_S_28.png","","","","calm","2","28","B","D","S","",""
"","","","","","html-slider-response","37","147491","0.0-33.0","zdyynpkm44","0","NaN","<div style=""width:500px;"">
                            <p style=""font-size:50px; font-weight:bold;""
                            >calm</p>
                            <div style=""width:240px; margin: auto;"">
                                <img src=""images/B_L_S_26.png"" style= ""width:200px""alt=""img"">
                            </div>
                        </div>","160","","0","images/B_L_S_26.png","","","","calm","2","26","B","L","S","",""
"","","","","","html-slider-response","38","151812","0.0-34.0","zdyynpkm44","0","NaN","<div style=""width:500px;"">
                            <p style=""font-size:50px; font-weight:bold;""
                            >calm</p>
                            <div style=""width:240px; margin: auto;"">
                                <img src=""images/R_L_S_02.png"" style= ""width:200px""alt=""img"">
                            </div>
                        </div>","-82","","0","images/R_L_S_02.png","","","","calm","2","02","R","L","S","",""
"","","","","","html-slider-response","39","153383","0.0-35.0","zdyynpkm44","0","NaN","<div style=""width:500px;"">
                            <p style=""font-size:50px; font-weight:bold;""
                            >calm</p>
                            <div style=""width:240px; margin: auto;"">
                                <img src=""images/Y_D_S_41.png"" style= ""width:200px""alt=""img"">
                            </div>
                        </div>","-2","","0","images/Y_D_S_41.png","","","","calm","2","41","Y","D","S","",""
"","","","","","html-slider-response","40","157182","0.0-36.0","zdyynpkm44","0","NaN","<div style=""width:500px;"">
                            <p style=""font-size:50px; font-weight:bold;""
                            >calm</p>
                            <div style=""width:240px; margin: auto;"">
                                <img src=""images/R_L_S_02.png"" style= ""width:200px""alt=""img"">
                            </div>
                        </div>","-82","","0","images/R_L_S_02.png","","","","calm","1","02","R","L","S","",""
"","","","","","html-slider-response","41","160054","0.0-37.0","zdyynpkm44","0","NaN","<div style=""width:500px;"">
                            <p style=""font-size:50px; font-weight:bold;""
                            >calm</p>
                            <div style=""width:240px; margin: auto;"">
                                <img src=""images/R_D_S_07.png"" style= ""width:200px""alt=""img"">
                            </div>
                        </div>","-128","","0","images/R_D_S_07.png","","","","calm","2","07","R","D","S","",""
"","","","","","html-slider-response","42","162057","0.0-38.0","zdyynpkm44","0","NaN","<div style=""width:500px;"">
                            <p style=""font-size:50px; font-weight:bold;""
                            >calm</p>
                            <div style=""width:240px; margin: auto;"">
                                <img src=""images/Y_D_U_44.png"" style= ""width:200px""alt=""img"">
                            </div>
                        </div>","-179","","0","images/Y_D_U_44.png","","","","calm","1","44","Y","D","U","",""
"","","","","","html-slider-response","43","164144","0.0-39.0","zdyynpkm44","0","NaN","<div style=""width:500px;"">
                            <p style=""font-size:50px; font-weight:bold;""
                            >calm</p>
                            <div style=""width:240px; margin: auto;"">
                                <img src=""images/R_L_U_05.png"" style= ""width:200px""alt=""img"">
                            </div>
                        </div>","-55","","0","images/R_L_U_05.png","","","","calm","1","05","R","L","U","",""
"","","","","","html-slider-response","44","166297","0.0-40.0","zdyynpkm44","0","NaN","<div style=""width:500px;"">
                            <p style=""font-size:50px; font-weight:bold;""
                            >calm</p>
                            <div style=""width:240px; margin: auto;"">
                                <img src=""images/R_D_U_10.png"" style= ""width:200px""alt=""img"">
                            </div>
                        </div>","-163","","0","images/R_D_U_10.png","","","","calm","1","10","R","D","U","",""
"","","","","","html-slider-response","45","168475","0.0-41.0","zdyynpkm44","0","NaN","<div style=""width:500px;"">
                            <p style=""font-size:50px; font-weight:bold;""
                            >calm</p>
                            <div style=""width:240px; margin: auto;"">
                                <img src=""images/R_D_U_10.png"" style= ""width:200px""alt=""img"">
                            </div>
                        </div>","-162","","0","images/R_D_U_10.png","","","","calm","2","10","R","D","U","",""
"","","","","","html-slider-response","46","172076","0.0-42.0","zdyynpkm44","0","NaN","<div style=""width:500px;"">
                            <p style=""font-size:50px; font-weight:bold;""
                            >calm</p>
                            <div style=""width:240px; margin: auto;"">
                                <img src=""images/G_D_U_23.png"" style= ""width:200px""alt=""img"">
                            </div>
                        </div>","-42","","0","images/G_D_U_23.png","","","","calm","2","23","G","D","U","",""
"","","","","","html-slider-response","47","174312","0.0-43.0","zdyynpkm44","0","NaN","<div style=""width:500px;"">
                            <p style=""font-size:50px; font-weight:bold;""
                            >calm</p>
                            <div style=""width:240px; margin: auto;"">
                                <img src=""images/G_L_U_13.png"" style= ""width:200px""alt=""img"">
                            </div>
                        </div>","46","","0","images/G_L_U_13.png","","","","calm","1","13","G","L","U","",""
"","","","","","html-slider-response","48","176309","0.0-44.0","zdyynpkm44","0","NaN","<div style=""width:500px;"">
                            <p style=""font-size:50px; font-weight:bold;""
                            >calm</p>
                            <div style=""width:240px; margin: auto;"">
                                <img src=""images/B_L_U_27.png"" style= ""width:200px""alt=""img"">
                            </div>
                        </div>","168","","0","images/B_L_U_27.png","","","","calm","2","27","B","L","U","",""
"","","","","","html-slider-response","49","178115","0.0-45.0","zdyynpkm44","0","NaN","<div style=""width:500px;"">
                            <p style=""font-size:50px; font-weight:bold;""
                            >calm</p>
                            <div style=""width:240px; margin: auto;"">
                                <img src=""images/G_L_U_13.png"" style= ""width:200px""alt=""img"">
                            </div>
                        </div>","-58","","0","images/G_L_U_13.png","","","","calm","2","13","G","L","U","",""
"","","","","","html-button-response","50","180168","0.0-46.0","zdyynpkm44","0","1538","<p>Great Job! You've finished block 1.<br></br> You have 7 block(s) left to go.<br></br></p>","0","","","","","","","","","","","","","",""
"","","","","","html-button-response","51","181443","0.0-47.0","zdyynpkm44","0","1273","<p>In this block of trials, you will be asked to rate how much you associate each map with:</p > <p style = 'font-size:150%; font-weight: bold'>exciting</p><br></br>","0","","","","","","","","","","","","","",""
"","","","","","html-slider-response","52","184473","0.0-48.0","zdyynpkm44","0","NaN","<div style=""width:500px;"">
                            <p style=""font-size:50px; font-weight:bold;""
                            >exciting</p>
                            <div style=""width:240px; margin: auto;"">
                                <img src=""images/G_L_S_12.png"" style= ""width:200px""alt=""img"">
                            </div>
                        </div>","85","","0","images/G_L_S_12.png","","","","exciting","1","12","G","L","S","",""
"","","","","","html-slider-response","53","186173","0.0-49.0","zdyynpkm44","0","NaN","<div style=""width:500px;"">
                            <p style=""font-size:50px; font-weight:bold;""
                            >exciting</p>
                            <div style=""width:240px; margin: auto;"">
                                <img src=""images/Y_D_S_41.png"" style= ""width:200px""alt=""img"">
                            </div>
                        </div>","-183","","0","images/Y_D_S_41.png","","","","exciting","1","41","Y","D","S","",""
"","","","","","html-slider-response","54","188336","0.0-50.0","zdyynpkm44","0","NaN","<div style=""width:500px;"">
                            <p style=""font-size:50px; font-weight:bold;""
                            >exciting</p>
                            <div style=""width:240px; margin: auto;"">
                                <img src=""images/B_L_S_26.png"" style= ""width:200px""alt=""img"">
                            </div>
                        </div>","188","","0","images/B_L_S_26.png","","","","exciting","2","26","B","L","S","",""
"","","","","","html-slider-response","55","190557","0.0-51.0","zdyynpkm44","0","NaN","<div style=""width:500px;"">
                            <p style=""font-size:50px; font-weight:bold;""
                            >exciting</p>
                            <div style=""width:240px; margin: auto;"">
                                <img src=""images/Y_L_U_37.png"" style= ""width:200px""alt=""img"">
                            </div>
                        </div>","113","","0","images/Y_L_U_37.png","","","","exciting","1","37","Y","L","U","",""
"","","","","","html-slider-response","56","192549","0.0-52.0","zdyynpkm44","0","NaN","<div style=""width:500px;"">
                            <p style=""font-size:50px; font-weight:bold;""
                            >exciting</p>
                            <div style=""width:240px; margin: auto;"">
                                <img src=""images/R_D_U_10.png"" style= ""width:200px""alt=""img"">
                            </div>
                        </div>","-106","","0","images/R_D_U_10.png","","","","exciting","1","10","R","D","U","",""
"","","","","","html-slider-response","57","194390","0.0-53.0","zdyynpkm44","0","NaN","<div style=""width:500px;"">
                            <p style=""font-size:50px; font-weight:bold;""
                            >exciting</p>
                            <div style=""width:240px; margin: auto;"">
                                <img src=""images/Y_L_S_33.png"" style= ""width:200px""alt=""img"">
                            </div>
                        </div>","142","","0","images/Y_L_S_33.png","","","","exciting","1","33","Y","L","S","",""
"","","","","","html-slider-response","58","196305","0.0-54.0","zdyynpkm44","0","NaN","<div style=""width:500px;"">
                            <p style=""font-size:50px; font-weight:bold;""
                            >exciting</p>
                            <div style=""width:240px; margin: auto;"">
                                <img src=""images/R_L_U_05.png"" style= ""width:200px""alt=""img"">
                            </div>
                        </div>","29","","0","images/R_L_U_05.png","","","","exciting","1","05","R","L","U","",""
"","","","","","html-slider-response","59","198527","0.0-55.0","zdyynpkm44","0","NaN","<div style=""width:500px;"">
                            <p style=""font-size:50px; font-weight:bold;""
                            >exciting</p>
                            <div style=""width:240px; margin: auto;"">
                                <img src=""images/G_D_U_23.png"" style= ""width:200px""alt=""img"">
                            </div>
                        </div>","-88","","0","images/G_D_U_23.png","","","","exciting","1","23","G","D","U","",""
"","","","","","html-slider-response","60","211502","0.0-56.0","zdyynpkm44","0","NaN","<div style=""width:500px;"">
                            <p style=""font-size:50px; font-weight:bold;""
                            >exciting</p>
                            <div style=""width:240px; margin: auto;"">
                                <img src=""images/Y_D_U_44.png"" style= ""width:200px""alt=""img"">
                            </div>
                        </div>","-195","","0","images/Y_D_U_44.png","","","","exciting","2","44","Y","D","U","",""
"","","","","","html-slider-response","61","213377","0.0-57.0","zdyynpkm44","0","NaN","<div style=""width:500px;"">
                            <p style=""font-size:50px; font-weight:bold;""
                            >exciting</p>
                            <div style=""width:240px; margin: auto;"">
                                <img src=""images/B_D_S_28.png"" style= ""width:200px""alt=""img"">
                            </div>
                        </div>","57","","0","images/B_D_S_28.png","","","","exciting","2","28","B","D","S","",""
"","","","","","html-slider-response","62","214897","0.0-58.0","zdyynpkm44","0","NaN","<div style=""width:500px;"">
                            <p style=""font-size:50px; font-weight:bold;""
                            >exciting</p>
                            <div style=""width:240px; margin: auto;"">
                                <img src=""images/Y_D_U_44.png"" style= ""width:200px""alt=""img"">
                            </div>
                        </div>","-159","","0","images/Y_D_U_44.png","","","","exciting","1","44","Y","D","U","",""
"","","","","","html-slider-response","63","241468","0.0-59.0","zdyynpkm44","0","NaN","<div style=""width:500px;"">
                            <p style=""font-size:50px; font-weight:bold;""
                            >exciting</p>
                            <div style=""width:240px; margin: auto;"">
                                <img src=""images/R_L_S_02.png"" style= ""width:200px""alt=""img"">
                            </div>
                        </div>","-93","","0","images/R_L_S_02.png","","","","exciting","1","02","R","L","S","",""
"","","","","","html-slider-response","64","244282","0.0-60.0","zdyynpkm44","0","NaN","<div style=""width:500px;"">
                            <p style=""font-size:50px; font-weight:bold;""
                            >exciting</p>
                            <div style=""width:240px; margin: auto;"">
                                <img src=""images/B_L_U_27.png"" style= ""width:200px""alt=""img"">
                            </div>
                        </div>","177","","0","images/B_L_U_27.png","","","","exciting","1","27","B","L","U","",""
"","","","","","html-slider-response","65","246075","0.0-61.0","zdyynpkm44","0","NaN","<div style=""width:500px;"">
                            <p style=""font-size:50px; font-weight:bold;""
                            >exciting</p>
                            <div style=""width:240px; margin: auto;"">
                                <img src=""images/G_D_U_23.png"" style= ""width:200px""alt=""img"">
                            </div>
                        </div>","-166","","0","images/G_D_U_23.png","","","","exciting","2","23","G","D","U","",""
"","","","","","html-slider-response","66","247786","0.0-62.0","zdyynpkm44","0","NaN","<div style=""width:500px;"">
                            <p style=""font-size:50px; font-weight:bold;""
                            >exciting</p>
                            <div style=""width:240px; margin: auto;"">
                                <img src=""images/R_L_U_05.png"" style= ""width:200px""alt=""img"">
                            </div>
                        </div>","-58","","0","images/R_L_U_05.png","","","","exciting","2","05","R","L","U","",""
"","","","","","html-slider-response","67","249503","0.0-63.0","zdyynpkm44","0","NaN","<div style=""width:500px;"">
                            <p style=""font-size:50px; font-weight:bold;""
                            >exciting</p>
                            <div style=""width:240px; margin: auto;"">
                                <img src=""images/Y_L_S_33.png"" style= ""width:200px""alt=""img"">
                            </div>
                        </div>","121","","0","images/Y_L_S_33.png","","","","exciting","2","33","Y","L","S","",""
"","","","","","html-slider-response","68","251265","0.0-64.0","zdyynpkm44","0","NaN","<div style=""width:500px;"">
                            <p style=""font-size:50px; font-weight:bold;""
                            >exciting</p>
                            <div style=""width:240px; margin: auto;"">
                                <img src=""images/B_D_U_30.png"" style= ""width:200px""alt=""img"">
                            </div>
                        </div>","-52","","0","images/B_D_U_30.png","","","","exciting","2","30","B","D","U","",""
"","","","","","html-slider-response","69","252894","0.0-65.0","zdyynpkm44","0","NaN","<div style=""width:500px;"">
                            <p style=""font-size:50px; font-weight:bold;""
                            >exciting</p>
                            <div style=""width:240px; margin: auto;"">
                                <img src=""images/G_L_U_13.png"" style= ""width:200px""alt=""img"">
                            </div>
                        </div>","118","","0","images/G_L_U_13.png","","","","exciting","1","13","G","L","U","",""
"","","","","","html-slider-response","70","254866","0.0-66.0","zdyynpkm44","0","NaN","<div style=""width:500px;"">
                            <p style=""font-size:50px; font-weight:bold;""
                            >exciting</p>
                            <div style=""width:240px; margin: auto;"">
                                <img src=""images/R_D_U_10.png"" style= ""width:200px""alt=""img"">
                            </div>
                        </div>","-141","","0","images/R_D_U_10.png","","","","exciting","2","10","R","D","U","",""
"","","","","","html-slider-response","71","256594","0.0-67.0","zdyynpkm44","0","NaN","<div style=""width:500px;"">
                            <p style=""font-size:50px; font-weight:bold;""
                            >exciting</p>
                            <div style=""width:240px; margin: auto;"">
                                <img src=""images/Y_L_U_37.png"" style= ""width:200px""alt=""img"">
                            </div>
                        </div>","64","","0","images/Y_L_U_37.png","","","","exciting","2","37","Y","L","U","",""
"","","","","","html-slider-response","72","258679","0.0-68.0","zdyynpkm44","0","NaN","<div style=""width:500px;"">
                            <p style=""font-size:50px; font-weight:bold;""
                            >exciting</p>
                            <div style=""width:240px; margin: auto;"">
                                <img src=""images/G_L_S_12.png"" style= ""width:200px""alt=""img"">
                            </div>
                        </div>","153","","0","images/G_L_S_12.png","","","","exciting","2","12","G","L","S","",""
"","","","","","html-slider-response","73","260937","0.0-69.0","zdyynpkm44","0","NaN","<div style=""width:500px;"">
                            <p style=""font-size:50px; font-weight:bold;""
                            >exciting</p>
                            <div style=""width:240px; margin: auto;"">
                                <img src=""images/R_D_S_07.png"" style= ""width:200px""alt=""img"">
                            </div>
                        </div>","40","","0","images/R_D_S_07.png","","","","exciting","2","07","R","D","S","",""
"","","","","","html-slider-response","74","262929","0.0-70.0","zdyynpkm44","0","NaN","<div style=""width:500px;"">
                            <p style=""font-size:50px; font-weight:bold;""
                            >exciting</p>
                            <div style=""width:240px; margin: auto;"">
                                <img src=""images/B_L_U_27.png"" style= ""width:200px""alt=""img"">
                            </div>
                        </div>","198","","0","images/B_L_U_27.png","","","","exciting","2","27","B","L","U","",""
"","","","","","html-slider-response","75","264665","0.0-71.0","zdyynpkm44","0","NaN","<div style=""width:500px;"">
                            <p style=""font-size:50px; font-weight:bold;""
                            >exciting</p>
                            <div style=""width:240px; margin: auto;"">
                                <img src=""images/R_D_S_07.png"" style= ""width:200px""alt=""img"">
                            </div>
                        </div>","15","","0","images/R_D_S_07.png","","","","exciting","1","07","R","D","S","",""
"","","","","","html-slider-response","76","266348","0.0-72.0","zdyynpkm44","0","NaN","<div style=""width:500px;"">
                            <p style=""font-size:50px; font-weight:bold;""
                            >exciting</p>
                            <div style=""width:240px; margin: auto;"">
                                <img src=""images/G_L_U_13.png"" style= ""width:200px""alt=""img"">
                            </div>
                        </div>","70","","0","images/G_L_U_13.png","","","","exciting","2","13","G","L","U","",""
"","","","","","html-slider-response","77","267829","0.0-73.0","zdyynpkm44","0","NaN","<div style=""width:500px;"">
                            <p style=""font-size:50px; font-weight:bold;""
                            >exciting</p>
                            <div style=""width:240px; margin: auto;"">
                                <img src=""images/Y_D_S_41.png"" style= ""width:200px""alt=""img"">
                            </div>
                        </div>","-171","","0","images/Y_D_S_41.png","","","","exciting","2","41","Y","D","S","",""
"","","","","","html-slider-response","78","269734","0.0-74.0","zdyynpkm44","0","NaN","<div style=""width:500px;"">
                            <p style=""font-size:50px; font-weight:bold;""
                            >exciting</p>
                            <div style=""width:240px; margin: auto;"">
                                <img src=""images/G_D_S_15.png"" style= ""width:200px""alt=""img"">
                            </div>
                        </div>","-61","","0","images/G_D_S_15.png","","","","exciting","2","15","G","D","S","",""
"","","","","","html-slider-response","79","271544","0.0-75.0","zdyynpkm44","0","NaN","<div style=""width:500px;"">
                            <p style=""font-size:50px; font-weight:bold;""
                            >exciting</p>
                            <div style=""width:240px; margin: auto;"">
                                <img src=""images/B_L_S_26.png"" style= ""width:200px""alt=""img"">
                            </div>
                        </div>","200","","0","images/B_L_S_26.png","","","","exciting","1","26","B","L","S","",""
"","","","","","html-slider-response","80","273869","0.0-76.0","zdyynpkm44","0","NaN","<div style=""width:500px;"">
                            <p style=""font-size:50px; font-weight:bold;""
                            >exciting</p>
                            <div style=""width:240px; margin: auto;"">
                                <img src=""images/G_D_S_15.png"" style= ""width:200px""alt=""img"">
                            </div>
                        </div>","-90","","0","images/G_D_S_15.png","","","","exciting","1","15","G","D","S","",""
"","","","","","html-slider-response","81","275811","0.0-77.0","zdyynpkm44","0","NaN","<div style=""width:500px;"">
                            <p style=""font-size:50px; font-weight:bold;""
                            >exciting</p>
                            <div style=""width:240px; margin: auto;"">
                                <img src=""images/B_D_U_30.png"" style= ""width:200px""alt=""img"">
                            </div>
                        </div>","32","","0","images/B_D_U_30.png","","","","exciting","1","30","B","D","U","",""
"","","","","","html-slider-response","82","277962","0.0-78.0","zdyynpkm44","0","NaN","<div style=""width:500px;"">
                            <p style=""font-size:50px; font-weight:bold;""
                            >exciting</p>
                            <div style=""width:240px; margin: auto;"">
                                <img src=""images/R_L_S_02.png"" style= ""width:200px""alt=""img"">
                            </div>
                        </div>","105","","0","images/R_L_S_02.png","","","","exciting","2","02","R","L","S","",""
"","","","","","html-slider-response","83","279994","0.0-79.0","zdyynpkm44","0","NaN","<div style=""width:500px;"">
                            <p style=""font-size:50px; font-weight:bold;""
                            >exciting</p>
                            <div style=""width:240px; margin: auto;"">
                                <img src=""images/B_D_S_28.png"" style= ""width:200px""alt=""img"">
                            </div>
                        </div>","74","","0","images/B_D_S_28.png","","","","exciting","1","28","B","D","S","",""
"","","","","","html-button-response","84","281227","0.0-80.0","zdyynpkm44","0","729","<p>Great Job! You've finished block 2.<br></br> You have 6 block(s) left to go.<br></br></p>","0","","","","","","","","","","","","","",""
"","","","","","html-button-response","85","281931","0.0-81.0","zdyynpkm44","0","703","<p>In this block of trials, you will be asked to rate how much you associate each map with:</p > <p style = 'font-size:150%; font-weight: bold'>playful</p><br></br>","0","","","","","","","","","","","","","",""
"","","","","","html-slider-response","86","283361","0.0-82.0","zdyynpkm44","0","NaN","<div style=""width:500px;"">
                            <p style=""font-size:50px; font-weight:bold;""
                            >playful</p>
                            <div style=""width:240px; margin: auto;"">
                                <img src=""images/G_L_U_13.png"" style= ""width:200px""alt=""img"">
                            </div>
                        </div>","114","","0","images/G_L_U_13.png","","","","playful","2","13","G","L","U","",""
"","","","","","html-slider-response","87","284947","0.0-83.0","zdyynpkm44","0","NaN","<div style=""width:500px;"">
                            <p style=""font-size:50px; font-weight:bold;""
                            >playful</p>
                            <div style=""width:240px; margin: auto;"">
                                <img src=""images/R_D_S_07.png"" style= ""width:200px""alt=""img"">
                            </div>
                        </div>","-115","","0","images/R_D_S_07.png","","","","playful","1","07","R","D","S","",""
"","","","","","html-slider-response","88","286761","0.0-84.0","zdyynpkm44","0","NaN","<div style=""width:500px;"">
                            <p style=""font-size:50px; font-weight:bold;""
                            >playful</p>
                            <div style=""width:240px; margin: auto;"">
                                <img src=""images/Y_D_S_41.png"" style= ""width:200px""alt=""img"">
                            </div>
                        </div>","-200","","0","images/Y_D_S_41.png","","","","playful","2","41","Y","D","S","",""
"","","","","","html-slider-response","89","288650","0.0-85.0","zdyynpkm44","0","NaN","<div style=""width:500px;"">
                            <p style=""font-size:50px; font-weight:bold;""
                            >playful</p>
                            <div style=""width:240px; margin: auto;"">
                                <img src=""images/Y_D_U_44.png"" style= ""width:200px""alt=""img"">
                            </div>
                        </div>","-200","","0","images/Y_D_U_44.png","","","","playful","1","44","Y","D","U","",""
"","","","","","html-slider-response","90","291211","0.0-86.0","zdyynpkm44","0","NaN","<div style=""width:500px;"">
                            <p style=""font-size:50px; font-weight:bold;""
                            >playful</p>
                            <div style=""width:240px; margin: auto;"">
                                <img src=""images/B_L_S_26.png"" style= ""width:200px""alt=""img"">
                            </div>
                        </div>","200","","0","images/B_L_S_26.png","","","","playful","2","26","B","L","S","",""
"","","","","","html-slider-response","91","293610","0.0-87.0","zdyynpkm44","0","NaN","<div style=""width:500px;"">
                            <p style=""font-size:50px; font-weight:bold;""
                            >playful</p>
                            <div style=""width:240px; margin: auto;"">
                                <img src=""images/G_L_S_12.png"" style= ""width:200px""alt=""img"">
                            </div>
                        </div>","173","","0","images/G_L_S_12.png","","","","playful","2","12","G","L","S","",""
"","","","","","html-slider-response","92","295317","0.0-88.0","zdyynpkm44","0","NaN","<div style=""width:500px;"">
                            <p style=""font-size:50px; font-weight:bold;""
                            >playful</p>
                            <div style=""width:240px; margin: auto;"">
                                <img src=""images/B_L_S_26.png"" style= ""width:200px""alt=""img"">
                            </div>
                        </div>","200","","0","images/B_L_S_26.png","","","","playful","1","26","B","L","S","",""
"","","","","","html-slider-response","93","296999","0.0-89.0","zdyynpkm44","0","NaN","<div style=""width:500px;"">
                            <p style=""font-size:50px; font-weight:bold;""
                            >playful</p>
                            <div style=""width:240px; margin: auto;"">
                                <img src=""images/G_D_U_23.png"" style= ""width:200px""alt=""img"">
                            </div>
                        </div>","-200","","0","images/G_D_U_23.png","","","","playful","1","23","G","D","U","",""
"","","","","","html-slider-response","94","298879","0.0-90.0","zdyynpkm44","0","NaN","<div style=""width:500px;"">
                            <p style=""font-size:50px; font-weight:bold;""
                            >playful</p>
                            <div style=""width:240px; margin: auto;"">
                                <img src=""images/G_D_S_15.png"" style= ""width:200px""alt=""img"">
                            </div>
                        </div>","-131","","0","images/G_D_S_15.png","","","","playful","2","15","G","D","S","",""
"","","","","","html-slider-response","95","300722","0.0-91.0","zdyynpkm44","0","NaN","<div style=""width:500px;"">
                            <p style=""font-size:50px; font-weight:bold;""
                            >playful</p>
                            <div style=""width:240px; margin: auto;"">
                                <img src=""images/B_L_U_27.png"" style= ""width:200px""alt=""img"">
                            </div>
                        </div>","142","","0","images/B_L_U_27.png","","","","playful","1","27","B","L","U","",""
"","","","","","html-slider-response","96","302833","0.0-92.0","zdyynpkm44","0","NaN","<div style=""width:500px;"">
                            <p style=""font-size:50px; font-weight:bold;""
                            >playful</p>
                            <div style=""width:240px; margin: auto;"">
                                <img src=""images/G_D_U_23.png"" style= ""width:200px""alt=""img"">
                            </div>
                        </div>","-175","","0","images/G_D_U_23.png","","","","playful","2","23","G","D","U","",""
"","","","","","html-slider-response","97","305285","0.0-93.0","zdyynpkm44","0","NaN","<div style=""width:500px;"">
                            <p style=""font-size:50px; font-weight:bold;""
                            >playful</p>
                            <div style=""width:240px; margin: auto;"">
                                <img src=""images/B_D_S_28.png"" style= ""width:200px""alt=""img"">
                            </div>
                        </div>","61","","0","images/B_D_S_28.png","","","","playful","1","28","B","D","S","",""
"","","","","","html-slider-response","98","307227","0.0-94.0","zdyynpkm44","0","NaN","<div style=""width:500px;"">
                            <p style=""font-size:50px; font-weight:bold;""
                            >playful</p>
                            <div style=""width:240px; margin: auto;"">
                                <img src=""images/G_L_U_13.png"" style= ""width:200px""alt=""img"">
                            </div>
                        </div>","71","","0","images/G_L_U_13.png","","","","playful","1","13","G","L","U","",""
"","","","","","html-slider-response","99","308894","0.0-95.0","zdyynpkm44","0","NaN","<div style=""width:500px;"">
                            <p style=""font-size:50px; font-weight:bold;""
                            >playful</p>
                            <div style=""width:240px; margin: auto;"">
                                <img src=""images/B_D_U_30.png"" style= ""width:200px""alt=""img"">
                            </div>
                        </div>","-44","","0","images/B_D_U_30.png","","","","playful","1","30","B","D","U","",""
"","","","","","html-slider-response","100","310759","0.0-96.0","zdyynpkm44","0","NaN","<div style=""width:500px;"">
                            <p style=""font-size:50px; font-weight:bold;""
                            >playful</p>
                            <div style=""width:240px; margin: auto;"">
                                <img src=""images/B_L_U_27.png"" style= ""width:200px""alt=""img"">
                            </div>
                        </div>","163","","0","images/B_L_U_27.png","","","","playful","2","27","B","L","U","",""
"","","","","","html-slider-response","101","312517","0.0-97.0","zdyynpkm44","0","NaN","<div style=""width:500px;"">
                            <p style=""font-size:50px; font-weight:bold;""
                            >playful</p>
                            <div style=""width:240px; margin: auto;"">
                                <img src=""images/R_L_S_02.png"" style= ""width:200px""alt=""img"">
                            </div>
                        </div>","114","","0","images/R_L_S_02.png","","","","playful","2","02","R","L","S","",""
"","","","","","html-slider-response","102","314107","0.0-98.0","zdyynpkm44","0","NaN","<div style=""width:500px;"">
                            <p style=""font-size:50px; font-weight:bold;""
                            >playful</p>
                            <div style=""width:240px; margin: auto;"">
                                <img src=""images/Y_D_S_41.png"" style= ""width:200px""alt=""img"">
                            </div>
                        </div>","-200","","0","images/Y_D_S_41.png","","","","playful","1","41","Y","D","S","",""
"","","","","","html-slider-response","103","315921","0.0-99.0","zdyynpkm44","0","NaN","<div style=""width:500px;"">
                            <p style=""font-size:50px; font-weight:bold;""
                            >playful</p>
                            <div style=""width:240px; margin: auto;"">
                                <img src=""images/R_L_S_02.png"" style= ""width:200px""alt=""img"">
                            </div>
                        </div>","84","","0","images/R_L_S_02.png","","","","playful","1","02","R","L","S","",""
"","","","","","html-slider-response","104","317840","0.0-100.0","zdyynpkm44","0","NaN","<div style=""width:500px;"">
                            <p style=""font-size:50px; font-weight:bold;""
                            >playful</p>
                            <div style=""width:240px; margin: auto;"">
                                <img src=""images/B_D_U_30.png"" style= ""width:200px""alt=""img"">
                            </div>
                        </div>","-27","","0","images/B_D_U_30.png","","","","playful","2","30","B","D","U","",""
"","","","","","html-slider-response","105","319755","0.0-101.0","zdyynpkm44","0","NaN","<div style=""width:500px;"">
                            <p style=""font-size:50px; font-weight:bold;""
                            >playful</p>
                            <div style=""width:240px; margin: auto;"">
                                <img src=""images/Y_L_S_33.png"" style= ""width:200px""alt=""img"">
                            </div>
                        </div>","150","","0","images/Y_L_S_33.png","","","","playful","2","33","Y","L","S","",""
"","","","","","html-slider-response","106","321515","0.0-102.0","zdyynpkm44","0","NaN","<div style=""width:500px;"">
                            <p style=""font-size:50px; font-weight:bold;""
                            >playful</p>
                            <div style=""width:240px; margin: auto;"">
                                <img src=""images/R_D_U_10.png"" style= ""width:200px""alt=""img"">
                            </div>
                        </div>","-97","","0","images/R_D_U_10.png","","","","playful","2","10","R","D","U","",""
"","","","","","html-slider-response","107","323427","0.0-103.0","zdyynpkm44","0","NaN","<div style=""width:500px;"">
                            <p style=""font-size:50px; font-weight:bold;""
                            >playful</p>
                            <div style=""width:240px; margin: auto;"">
                                <img src=""images/G_L_S_12.png"" style= ""width:200px""alt=""img"">
                            </div>
                        </div>","182","","0","images/G_L_S_12.png","","","","playful","1","12","G","L","S","",""
"","","","","","html-slider-response","108","325572","0.0-104.0","zdyynpkm44","0","NaN","<div style=""width:500px;"">
                            <p style=""font-size:50px; font-weight:bold;""
                            >playful</p>
                            <div style=""width:240px; margin: auto;"">
                                <img src=""images/Y_L_U_37.png"" style= ""width:200px""alt=""img"">
                            </div>
                        </div>","77","","0","images/Y_L_U_37.png","","","","playful","1","37","Y","L","U","",""
"","","","","","html-slider-response","109","327515","0.0-105.0","zdyynpkm44","0","NaN","<div style=""width:500px;"">
                            <p style=""font-size:50px; font-weight:bold;""
                            >playful</p>
                            <div style=""width:240px; margin: auto;"">
                                <img src=""images/Y_L_S_33.png"" style= ""width:200px""alt=""img"">
                            </div>
                        </div>","165","","0","images/Y_L_S_33.png","","","","playful","1","33","Y","L","S","",""
"","","","","","html-slider-response","110","329418","0.0-106.0","zdyynpkm44","0","NaN","<div style=""width:500px;"">
                            <p style=""font-size:50px; font-weight:bold;""
                            >playful</p>
                            <div style=""width:240px; margin: auto;"">
                                <img src=""images/B_D_S_28.png"" style= ""width:200px""alt=""img"">
                            </div>
                        </div>","48","","0","images/B_D_S_28.png","","","","playful","2","28","B","D","S","",""
"","","","","","html-slider-response","111","331326","0.0-107.0","zdyynpkm44","0","NaN","<div style=""width:500px;"">
                            <p style=""font-size:50px; font-weight:bold;""
                            >playful</p>
                            <div style=""width:240px; margin: auto;"">
                                <img src=""images/Y_L_U_37.png"" style= ""width:200px""alt=""img"">
                            </div>
                        </div>","61","","0","images/Y_L_U_37.png","","","","playful","2","37","Y","L","U","",""
"","","","","","html-slider-response","112","333064","0.0-108.0","zdyynpkm44","0","NaN","<div style=""width:500px;"">
                            <p style=""font-size:50px; font-weight:bold;""
                            >playful</p>
                            <div style=""width:240px; margin: auto;"">
                                <img src=""images/R_L_U_05.png"" style= ""width:200px""alt=""img"">
                            </div>
                        </div>","-49","","0","images/R_L_U_05.png","","","","playful","2","05","R","L","U","",""
"","","","","","html-slider-response","113","334951","0.0-109.0","zdyynpkm44","0","NaN","<div style=""width:500px;"">
                            <p style=""font-size:50px; font-weight:bold;""
                            >playful</p>
                            <div style=""width:240px; margin: auto;"">
                                <img src=""images/G_D_S_15.png"" style= ""width:200px""alt=""img"">
                            </div>
                        </div>","-110","","0","images/G_D_S_15.png","","","","playful","1","15","G","D","S","",""
"","","","","","html-slider-response","114","336838","0.0-110.0","zdyynpkm44","0","NaN","<div style=""width:500px;"">
                            <p style=""font-size:50px; font-weight:bold;""
                            >playful</p>
                            <div style=""width:240px; margin: auto;"">
                                <img src=""images/Y_D_U_44.png"" style= ""width:200px""alt=""img"">
                            </div>
                        </div>","-184","","0","images/Y_D_U_44.png","","","","playful","2","44","Y","D","U","",""
"","","","","","html-slider-response","115","338971","0.0-111.0","zdyynpkm44","0","NaN","<div style=""width:500px;"">
                            <p style=""font-size:50px; font-weight:bold;""
                            >playful</p>
                            <div style=""width:240px; margin: auto;"">
                                <img src=""images/R_D_S_07.png"" style= ""width:200px""alt=""img"">
                            </div>
                        </div>","-24","","0","images/R_D_S_07.png","","","","playful","2","07","R","D","S","",""
"","","","","","html-slider-response","116","340646","0.0-112.0","zdyynpkm44","0","NaN","<div style=""width:500px;"">
                            <p style=""font-size:50px; font-weight:bold;""
                            >playful</p>
                            <div style=""width:240px; margin: auto;"">
                                <img src=""images/R_D_U_10.png"" style= ""width:200px""alt=""img"">
                            </div>
                        </div>","-85","","0","images/R_D_U_10.png","","","","playful","1","10","R","D","U","",""
"","","","","","html-slider-response","117","342186","0.0-113.0","zdyynpkm44","0","NaN","<div style=""width:500px;"">
                            <p style=""font-size:50px; font-weight:bold;""
                            >playful</p>
                            <div style=""width:240px; margin: auto;"">
                                <img src=""images/R_L_U_05.png"" style= ""width:200px""alt=""img"">
                            </div>
                        </div>","-34","","0","images/R_L_U_05.png","","","","playful","1","05","R","L","U","",""
"","","","","","html-button-response","118","343400","0.0-114.0","zdyynpkm44","0","711","<p>Great Job! You've finished block 3.<br></br> You have 5 block(s) left to go.<br></br></p>","0","","","","","","","","","","","","","",""
"","","","","","html-button-response","119","343686","0.0-115.0","zdyynpkm44","0","285","<p>In this block of trials, you will be asked to rate how much you associate each map with:</p > <p style = 'font-size:150%; font-weight: bold'>negative</p><br></br>","0","","","","","","","","","","","","","",""
"","","","","","html-slider-response","120","347301","0.0-116.0","zdyynpkm44","0","NaN","<div style=""width:500px;"">
                            <p style=""font-size:50px; font-weight:bold;""
                            >negative</p>
                            <div style=""width:240px; margin: auto;"">
                                <img src=""images/R_L_U_05.png"" style= ""width:200px""alt=""img"">
                            </div>
                        </div>","-131","","0","images/R_L_U_05.png","","","","negative","2","05","R","L","U","",""
"","","","","","html-slider-response","121","349598","0.0-117.0","zdyynpkm44","0","NaN","<div style=""width:500px;"">
                            <p style=""font-size:50px; font-weight:bold;""
                            >negative</p>
                            <div style=""width:240px; margin: auto;"">
                                <img src=""images/B_L_S_26.png"" style= ""width:200px""alt=""img"">
                            </div>
                        </div>","-197","","0","images/B_L_S_26.png","","","","negative","1","26","B","L","S","",""
"","","","","","html-slider-response","122","351401","0.0-118.0","zdyynpkm44","0","NaN","<div style=""width:500px;"">
                            <p style=""font-size:50px; font-weight:bold;""
                            >negative</p>
                            <div style=""width:240px; margin: auto;"">
                                <img src=""images/R_L_U_05.png"" style= ""width:200px""alt=""img"">
                            </div>
                        </div>","69","","0","images/R_L_U_05.png","","","","negative","1","05","R","L","U","",""
"","","","","","html-slider-response","123","353769","0.0-119.0","zdyynpkm44","0","NaN","<div style=""width:500px;"">
                            <p style=""font-size:50px; font-weight:bold;""
                            >negative</p>
                            <div style=""width:240px; margin: auto;"">
                                <img src=""images/G_D_S_15.png"" style= ""width:200px""alt=""img"">
                            </div>
                        </div>","-42","","0","images/G_D_S_15.png","","","","negative","1","15","G","D","S","",""
"","","","","","html-slider-response","124","355697","0.0-120.0","zdyynpkm44","0","NaN","<div style=""width:500px;"">
                            <p style=""font-size:50px; font-weight:bold;""
                            >negative</p>
                            <div style=""width:240px; margin: auto;"">
                                <img src=""images/R_D_U_10.png"" style= ""width:200px""alt=""img"">
                            </div>
                        </div>","148","","0","images/R_D_U_10.png","","","","negative","2","10","R","D","U","",""
"","","","","","html-slider-response","125","357505","0.0-121.0","zdyynpkm44","0","NaN","<div style=""width:500px;"">
                            <p style=""font-size:50px; font-weight:bold;""
                            >negative</p>
                            <div style=""width:240px; margin: auto;"">
                                <img src=""images/Y_D_U_44.png"" style= ""width:200px""alt=""img"">
                            </div>
                        </div>","85","","0","images/Y_D_U_44.png","","","","negative","1","44","Y","D","U","",""
"","","","","","html-slider-response","126","360032","0.0-122.0","zdyynpkm44","0","NaN","<div style=""width:500px;"">
                            <p style=""font-size:50px; font-weight:bold;""
                            >negative</p>
                            <div style=""width:240px; margin: auto;"">
                                <img src=""images/R_L_S_02.png"" style= ""width:200px""alt=""img"">
                            </div>
                        </div>","-42","","0","images/R_L_S_02.png","","","","negative","1","02","R","L","S","",""
"","","","","","html-slider-response","127","362075","0.0-123.0","zdyynpkm44","0","NaN","<div style=""width:500px;"">
                            <p style=""font-size:50px; font-weight:bold;""
                            >negative</p>
                            <div style=""width:240px; margin: auto;"">
                                <img src=""images/B_L_U_27.png"" style= ""width:200px""alt=""img"">
                            </div>
                        </div>","-176","","0","images/B_L_U_27.png","","","","negative","1","27","B","L","U","",""
"","","","","","html-slider-response","128","363830","0.0-124.0","zdyynpkm44","0","NaN","<div style=""width:500px;"">
                            <p style=""font-size:50px; font-weight:bold;""
                            >negative</p>
                            <div style=""width:240px; margin: auto;"">
                                <img src=""images/G_L_U_13.png"" style= ""width:200px""alt=""img"">
                            </div>
                        </div>","-40","","0","images/G_L_U_13.png","","","","negative","1","13","G","L","U","",""
"","","","","","html-slider-response","129","365453","0.0-125.0","zdyynpkm44","0","NaN","<div style=""width:500px;"">
                            <p style=""font-size:50px; font-weight:bold;""
                            >negative</p>
                            <div style=""width:240px; margin: auto;"">
                                <img src=""images/Y_D_U_44.png"" style= ""width:200px""alt=""img"">
                            </div>
                        </div>","133","","0","images/Y_D_U_44.png","","","","negative","2","44","Y","D","U","",""
"","","","","","html-slider-response","130","367886","0.0-126.0","zdyynpkm44","0","NaN","<div style=""width:500px;"">
                            <p style=""font-size:50px; font-weight:bold;""
                            >negative</p>
                            <div style=""width:240px; margin: auto;"">
                                <img src=""images/B_D_U_30.png"" style= ""width:200px""alt=""img"">
                            </div>
                        </div>","-22","","0","images/B_D_U_30.png","","","","negative","1","30","B","D","U","",""
"","","","","","html-slider-response","131","369850","0.0-127.0","zdyynpkm44","0","NaN","<div style=""width:500px;"">
                            <p style=""font-size:50px; font-weight:bold;""
                            >negative</p>
                            <div style=""width:240px; margin: auto;"">
                                <img src=""images/Y_L_S_33.png"" style= ""width:200px""alt=""img"">
                            </div>
                        </div>","-200","","0","images/Y_L_S_33.png","","","","negative","1","33","Y","L","S","",""
"","","","","","html-slider-response","132","371524","0.0-128.0","zdyynpkm44","0","NaN","<div style=""width:500px;"">
                            <p style=""font-size:50px; font-weight:bold;""
                            >negative</p>
                            <div style=""width:240px; margin: auto;"">
                                <img src=""images/R_D_U_10.png"" style= ""width:200px""alt=""img"">
                            </div>
                        </div>","200","","0","images/R_D_U_10.png","","","","negative","1","10","R","D","U","",""
"","","","","","html-slider-response","133","373196","0.0-129.0","zdyynpkm44","0","NaN","<div style=""width:500px;"">
                            <p style=""font-size:50px; font-weight:bold;""
                            >negative</p>
                            <div style=""width:240px; margin: auto;"">
                                <img src=""images/G_D_U_23.png"" style= ""width:200px""alt=""img"">
                            </div>
                        </div>","-31","","0","images/G_D_U_23.png","","","","negative","1","23","G","D","U","",""
"","","","","","html-slider-response","134","374868","0.0-130.0","zdyynpkm44","0","NaN","<div style=""width:500px;"">
                            <p style=""font-size:50px; font-weight:bold;""
                            >negative</p>
                            <div style=""width:240px; margin: auto;"">
                                <img src=""images/G_L_U_13.png"" style= ""width:200px""alt=""img"">
                            </div>
                        </div>","-86","","0","images/G_L_U_13.png","","","","negative","2","13","G","L","U","",""
"","","","","","html-slider-response","135","376803","0.0-131.0","zdyynpkm44","0","NaN","<div style=""width:500px;"">
                            <p style=""font-size:50px; font-weight:bold;""
                            >negative</p>
                            <div style=""width:240px; margin: auto;"">
                                <img src=""images/B_D_S_28.png"" style= ""width:200px""alt=""img"">
                            </div>
                        </div>","-130","","0","images/B_D_S_28.png","","","","negative","2","28","B","D","S","",""
"","","","","","html-slider-response","136","379170","0.0-132.0","zdyynpkm44","0","NaN","<div style=""width:500px;"">
                            <p style=""font-size:50px; font-weight:bold;""
                            >negative</p>
                            <div style=""width:240px; margin: auto;"">
                                <img src=""images/Y_D_S_41.png"" style= ""width:200px""alt=""img"">
                            </div>
                        </div>","79","","0","images/Y_D_S_41.png","","","","negative","2","41","Y","D","S","",""
"","","","","","html-slider-response","137","380835","0.0-133.0","zdyynpkm44","0","NaN","<div style=""width:500px;"">
                            <p style=""font-size:50px; font-weight:bold;""
                            >negative</p>
                            <div style=""width:240px; margin: auto;"">
                                <img src=""images/R_L_S_02.png"" style= ""width:200px""alt=""img"">
                            </div>
                        </div>","-21","","0","images/R_L_S_02.png","","","","negative","2","02","R","L","S","",""
"","","","","","html-slider-response","138","382715","0.0-134.0","zdyynpkm44","0","NaN","<div style=""width:500px;"">
                            <p style=""font-size:50px; font-weight:bold;""
                            >negative</p>
                            <div style=""width:240px; margin: auto;"">
                                <img src=""images/Y_L_U_37.png"" style= ""width:200px""alt=""img"">
                            </div>
                        </div>","-162","","0","images/Y_L_U_37.png","","","","negative","2","37","Y","L","U","",""
"","","","","","html-slider-response","139","384671","0.0-135.0","zdyynpkm44","0","NaN","<div style=""width:500px;"">
                            <p style=""font-size:50px; font-weight:bold;""
                            >negative</p>
                            <div style=""width:240px; margin: auto;"">
                                <img src=""images/R_D_S_07.png"" style= ""width:200px""alt=""img"">
                            </div>
                        </div>","64","","0","images/R_D_S_07.png","","","","negative","2","07","R","D","S","",""
"","","","","","html-slider-response","140","386242","0.0-136.0","zdyynpkm44","0","NaN","<div style=""width:500px;"">
                            <p style=""font-size:50px; font-weight:bold;""
                            >negative</p>
                            <div style=""width:240px; margin: auto;"">
                                <img src=""images/R_D_S_07.png"" style= ""width:200px""alt=""img"">
                            </div>
                        </div>","87","","0","images/R_D_S_07.png","","","","negative","1","07","R","D","S","",""
"","","","","","html-slider-response","141","387890","0.0-137.0","zdyynpkm44","0","NaN","<div style=""width:500px;"">
                            <p style=""font-size:50px; font-weight:bold;""
                            >negative</p>
                            <div style=""width:240px; margin: auto;"">
                                <img src=""images/G_L_S_12.png"" style= ""width:200px""alt=""img"">
                            </div>
                        </div>","-117","","0","images/G_L_S_12.png","","","","negative","1","12","G","L","S","",""
"","","","","","html-slider-response","142","389675","0.0-138.0","zdyynpkm44","0","NaN","<div style=""width:500px;"">
                            <p style=""font-size:50px; font-weight:bold;""
                            >negative</p>
                            <div style=""width:240px; margin: auto;"">
                                <img src=""images/Y_L_U_37.png"" style= ""width:200px""alt=""img"">
                            </div>
                        </div>","-185","","0","images/Y_L_U_37.png","","","","negative","1","37","Y","L","U","",""
"","","","","","html-slider-response","143","391464","0.0-139.0","zdyynpkm44","0","NaN","<div style=""width:500px;"">
                            <p style=""font-size:50px; font-weight:bold;""
                            >negative</p>
                            <div style=""width:240px; margin: auto;"">
                                <img src=""images/G_D_S_15.png"" style= ""width:200px""alt=""img"">
                            </div>
                        </div>","-50","","0","images/G_D_S_15.png","","","","negative","2","15","G","D","S","",""
"","","","","","html-slider-response","144","393846","0.0-140.0","zdyynpkm44","0","NaN","<div style=""width:500px;"">
                            <p style=""font-size:50px; font-weight:bold;""
                            >negative</p>
                            <div style=""width:240px; margin: auto;"">
                                <img src=""images/B_L_U_27.png"" style= ""width:200px""alt=""img"">
                            </div>
                        </div>","-176","","0","images/B_L_U_27.png","","","","negative","2","27","B","L","U","",""
"","","","","","html-slider-response","145","395548","0.0-141.0","zdyynpkm44","0","NaN","<div style=""width:500px;"">
                            <p style=""font-size:50px; font-weight:bold;""
                            >negative</p>
                            <div style=""width:240px; margin: auto;"">
                                <img src=""images/B_D_U_30.png"" style= ""width:200px""alt=""img"">
                            </div>
                        </div>","-38","","0","images/B_D_U_30.png","","","","negative","2","30","B","D","U","",""
"","","","","","html-slider-response","146","397462","0.0-142.0","zdyynpkm44","0","NaN","<div style=""width:500px;"">
                            <p style=""font-size:50px; font-weight:bold;""
                            >negative</p>
                            <div style=""width:240px; margin: auto;"">
                                <img src=""images/G_L_S_12.png"" style= ""width:200px""alt=""img"">
                            </div>
                        </div>","-128","","0","images/G_L_S_12.png","","","","negative","2","12","G","L","S","",""
"","","","","","html-slider-response","147","399235","0.0-143.0","zdyynpkm44","0","NaN","<div style=""width:500px;"">
                            <p style=""font-size:50px; font-weight:bold;""
                            >negative</p>
                            <div style=""width:240px; margin: auto;"">
                                <img src=""images/Y_L_S_33.png"" style= ""width:200px""alt=""img"">
                            </div>
                        </div>","-178","","0","images/Y_L_S_33.png","","","","negative","2","33","Y","L","S","",""
"","","","","","html-slider-response","148","400946","0.0-144.0","zdyynpkm44","0","NaN","<div style=""width:500px;"">
                            <p style=""font-size:50px; font-weight:bold;""
                            >negative</p>
                            <div style=""width:240px; margin: auto;"">
                                <img src=""images/B_L_S_26.png"" style= ""width:200px""alt=""img"">
                            </div>
                        </div>","-200","","0","images/B_L_S_26.png","","","","negative","2","26","B","L","S","",""
"","","","","","html-slider-response","149","403024","0.0-145.0","zdyynpkm44","0","NaN","<div style=""width:500px;"">
                            <p style=""font-size:50px; font-weight:bold;""
                            >negative</p>
                            <div style=""width:240px; margin: auto;"">
                                <img src=""images/G_D_U_23.png"" style= ""width:200px""alt=""img"">
                            </div>
                        </div>","113","","0","images/G_D_U_23.png","","","","negative","2","23","G","D","U","",""
"","","","","","html-slider-response","150","404846","0.0-146.0","zdyynpkm44","0","NaN","<div style=""width:500px;"">
                            <p style=""font-size:50px; font-weight:bold;""
                            >negative</p>
                            <div style=""width:240px; margin: auto;"">
                                <img src=""images/Y_D_S_41.png"" style= ""width:200px""alt=""img"">
                            </div>
                        </div>","80","","0","images/Y_D_S_41.png","","","","negative","1","41","Y","D","S","",""
"","","","","","html-slider-response","151","406696","0.0-147.0","zdyynpkm44","0","NaN","<div style=""width:500px;"">
                            <p style=""font-size:50px; font-weight:bold;""
                            >negative</p>
                            <div style=""width:240px; margin: auto;"">
                                <img src=""images/B_D_S_28.png"" style= ""width:200px""alt=""img"">
                            </div>
                        </div>","-81","","0","images/B_D_S_28.png","","","","negative","1","28","B","D","S","",""
"","","","","","html-button-response","152","407898","0.0-148.0","zdyynpkm44","0","699","<p>Great Job! You've finished block 4.<br></br> You have 4 block(s) left to go.<br></br></p>","0","","","","","","","","","","","","","",""
"","","","","","html-button-response","153","408574","0.0-149.0","zdyynpkm44","0","675","<p>In this block of trials, you will be asked to rate how much you associate each map with:</p > <p style = 'font-size:150%; font-weight: bold'>positive</p><br></br>","0","","","","","","","","","","","","","",""
"","","","","","html-slider-response","154","409942","0.0-150.0","zdyynpkm44","0","NaN","<div style=""width:500px;"">
                            <p style=""font-size:50px; font-weight:bold;""
                            >positive</p>
                            <div style=""width:240px; margin: auto;"">
                                <img src=""images/B_L_S_26.png"" style= ""width:200px""alt=""img"">
                            </div>
                        </div>","-200","","0","images/B_L_S_26.png","","","","positive","2","26","B","L","S","",""
"","","","","","html-slider-response","155","412676","0.0-151.0","zdyynpkm44","0","NaN","<div style=""width:500px;"">
                            <p style=""font-size:50px; font-weight:bold;""
                            >positive</p>
                            <div style=""width:240px; margin: auto;"">
                                <img src=""images/G_D_U_23.png"" style= ""width:200px""alt=""img"">
                            </div>
                        </div>","-200","","0","images/G_D_U_23.png","","","","positive","2","23","G","D","U","",""
"","","","","","html-slider-response","156","414390","0.0-152.0","zdyynpkm44","0","NaN","<div style=""width:500px;"">
                            <p style=""font-size:50px; font-weight:bold;""
                            >positive</p>
                            <div style=""width:240px; margin: auto;"">
                                <img src=""images/Y_L_S_33.png"" style= ""width:200px""alt=""img"">
                            </div>
                        </div>","0","","0","images/Y_L_S_33.png","","","","positive","2","33","Y","L","S","",""
"","","","","","html-slider-response","157","417103","0.0-153.0","zdyynpkm44","0","NaN","<div style=""width:500px;"">
                            <p style=""font-size:50px; font-weight:bold;""
                            >positive</p>
                            <div style=""width:240px; margin: auto;"">
                                <img src=""images/R_L_S_02.png"" style= ""width:200px""alt=""img"">
                            </div>
                        </div>","138","","0","images/R_L_S_02.png","","","","positive","2","02","R","L","S","",""
"","","","","","html-slider-response","158","418635","0.0-154.0","zdyynpkm44","0","NaN","<div style=""width:500px;"">
                            <p style=""font-size:50px; font-weight:bold;""
                            >positive</p>
                            <div style=""width:240px; margin: auto;"">
                                <img src=""images/G_L_S_12.png"" style= ""width:200px""alt=""img"">
                            </div>
                        </div>","151","","0","images/G_L_S_12.png","","","","positive","2","12","G","L","S","",""
"","","","","","html-slider-response","159","420313","0.0-155.0","zdyynpkm44","0","NaN","<div style=""width:500px;"">
                            <p style=""font-size:50px; font-weight:bold;""
                            >positive</p>
                            <div style=""width:240px; margin: auto;"">
                                <img src=""images/B_L_U_27.png"" style= ""width:200px""alt=""img"">
                            </div>
                        </div>","155","","0","images/B_L_U_27.png","","","","positive","2","27","B","L","U","",""
"","","","","","html-slider-response","160","423403","0.0-156.0","zdyynpkm44","0","NaN","<div style=""width:500px;"">
                            <p style=""font-size:50px; font-weight:bold;""
                            >positive</p>
                            <div style=""width:240px; margin: auto;"">
                                <img src=""images/G_D_U_23.png"" style= ""width:200px""alt=""img"">
                            </div>
                        </div>","-113","","0","images/G_D_U_23.png","","","","positive","1","23","G","D","U","",""
"","","","","","html-slider-response","161","425276","0.0-157.0","zdyynpkm44","0","NaN","<div style=""width:500px;"">
                            <p style=""font-size:50px; font-weight:bold;""
                            >positive</p>
                            <div style=""width:240px; margin: auto;"">
                                <img src=""images/B_L_S_26.png"" style= ""width:200px""alt=""img"">
                            </div>
                        </div>","200","","0","images/B_L_S_26.png","","","","positive","1","26","B","L","S","",""
"","","","","","html-slider-response","162","427120","0.0-158.0","zdyynpkm44","0","NaN","<div style=""width:500px;"">
                            <p style=""font-size:50px; font-weight:bold;""
                            >positive</p>
                            <div style=""width:240px; margin: auto;"">
                                <img src=""images/Y_L_U_37.png"" style= ""width:200px""alt=""img"">
                            </div>
                        </div>","200","","0","images/Y_L_U_37.png","","","","positive","2","37","Y","L","U","",""
"","","","","","html-slider-response","163","428927","0.0-159.0","zdyynpkm44","0","NaN","<div style=""width:500px;"">
                            <p style=""font-size:50px; font-weight:bold;""
                            >positive</p>
                            <div style=""width:240px; margin: auto;"">
                                <img src=""images/R_D_U_10.png"" style= ""width:200px""alt=""img"">
                            </div>
                        </div>","-40","","0","images/R_D_U_10.png","","","","positive","2","10","R","D","U","",""
"","","","","","html-slider-response","164","430576","0.0-160.0","zdyynpkm44","0","NaN","<div style=""width:500px;"">
                            <p style=""font-size:50px; font-weight:bold;""
                            >positive</p>
                            <div style=""width:240px; margin: auto;"">
                                <img src=""images/G_L_U_13.png"" style= ""width:200px""alt=""img"">
                            </div>
                        </div>","26","","0","images/G_L_U_13.png","","","","positive","1","13","G","L","U","",""
"","","","","","html-slider-response","165","432547","0.0-161.0","zdyynpkm44","0","NaN","<div style=""width:500px;"">
                            <p style=""font-size:50px; font-weight:bold;""
                            >positive</p>
                            <div style=""width:240px; margin: auto;"">
                                <img src=""images/R_D_S_07.png"" style= ""width:200px""alt=""img"">
                            </div>
                        </div>","42","","0","images/R_D_S_07.png","","","","positive","2","07","R","D","S","",""
"","","","","","html-slider-response","166","434839","0.0-162.0","zdyynpkm44","0","NaN","<div style=""width:500px;"">
                            <p style=""font-size:50px; font-weight:bold;""
                            >positive</p>
                            <div style=""width:240px; margin: auto;"">
                                <img src=""images/B_D_U_30.png"" style= ""width:200px""alt=""img"">
                            </div>
                        </div>","-30","","0","images/B_D_U_30.png","","","","positive","2","30","B","D","U","",""
"","","","","","html-slider-response","167","437157","0.0-163.0","zdyynpkm44","0","NaN","<div style=""width:500px;"">
                            <p style=""font-size:50px; font-weight:bold;""
                            >positive</p>
                            <div style=""width:240px; margin: auto;"">
                                <img src=""images/R_L_U_05.png"" style= ""width:200px""alt=""img"">
                            </div>
                        </div>","-44","","0","images/R_L_U_05.png","","","","positive","1","05","R","L","U","",""
"","","","","","html-slider-response","168","439092","0.0-164.0","zdyynpkm44","0","NaN","<div style=""width:500px;"">
                            <p style=""font-size:50px; font-weight:bold;""
                            >positive</p>
                            <div style=""width:240px; margin: auto;"">
                                <img src=""images/Y_D_U_44.png"" style= ""width:200px""alt=""img"">
                            </div>
                        </div>","-182","","0","images/Y_D_U_44.png","","","","positive","1","44","Y","D","U","",""
"","","","","","html-slider-response","169","440733","0.0-165.0","zdyynpkm44","0","NaN","<div style=""width:500px;"">
                            <p style=""font-size:50px; font-weight:bold;""
                            >positive</p>
                            <div style=""width:240px; margin: auto;"">
                                <img src=""images/B_D_U_30.png"" style= ""width:200px""alt=""img"">
                            </div>
                        </div>","-54","","0","images/B_D_U_30.png","","","","positive","1","30","B","D","U","",""
"","","","","","html-slider-response","170","442505","0.0-166.0","zdyynpkm44","0","NaN","<div style=""width:500px;"">
                            <p style=""font-size:50px; font-weight:bold;""
                            >positive</p>
                            <div style=""width:240px; margin: auto;"">
                                <img src=""images/R_L_S_02.png"" style= ""width:200px""alt=""img"">
                            </div>
                        </div>","123","","0","images/R_L_S_02.png","","","","positive","1","02","R","L","S","",""
"","","","","","html-slider-response","171","444631","0.0-167.0","zdyynpkm44","0","NaN","<div style=""width:500px;"">
                            <p style=""font-size:50px; font-weight:bold;""
                            >positive</p>
                            <div style=""width:240px; margin: auto;"">
                                <img src=""images/R_D_S_07.png"" style= ""width:200px""alt=""img"">
                            </div>
                        </div>","32","","0","images/R_D_S_07.png","","","","positive","1","07","R","D","S","",""
"","","","","","html-slider-response","172","446589","0.0-168.0","zdyynpkm44","0","NaN","<div style=""width:500px;"">
                            <p style=""font-size:50px; font-weight:bold;""
                            >positive</p>
                            <div style=""width:240px; margin: auto;"">
                                <img src=""images/G_D_S_15.png"" style= ""width:200px""alt=""img"">
                            </div>
                        </div>","-89","","0","images/G_D_S_15.png","","","","positive","1","15","G","D","S","",""
"","","","","","html-slider-response","173","448968","0.0-169.0","zdyynpkm44","0","NaN","<div style=""width:500px;"">
                            <p style=""font-size:50px; font-weight:bold;""
                            >positive</p>
                            <div style=""width:240px; margin: auto;"">
                                <img src=""images/G_L_U_13.png"" style= ""width:200px""alt=""img"">
                            </div>
                        </div>","20","","0","images/G_L_U_13.png","","","","positive","2","13","G","L","U","",""
"","","","","","html-slider-response","174","451098","0.0-170.0","zdyynpkm44","0","NaN","<div style=""width:500px;"">
                            <p style=""font-size:50px; font-weight:bold;""
                            >positive</p>
                            <div style=""width:240px; margin: auto;"">
                                <img src=""images/Y_D_S_41.png"" style= ""width:200px""alt=""img"">
                            </div>
                        </div>","-134","","0","images/Y_D_S_41.png","","","","positive","1","41","Y","D","S","",""
"","","","","","html-slider-response","175","453754","0.0-171.0","zdyynpkm44","0","NaN","<div style=""width:500px;"">
                            <p style=""font-size:50px; font-weight:bold;""
                            >positive</p>
                            <div style=""width:240px; margin: auto;"">
                                <img src=""images/B_D_S_28.png"" style= ""width:200px""alt=""img"">
                            </div>
                        </div>","65","","0","images/B_D_S_28.png","","","","positive","2","28","B","D","S","",""
"","","","","","html-slider-response","176","455937","0.0-172.0","zdyynpkm44","0","NaN","<div style=""width:500px;"">
                            <p style=""font-size:50px; font-weight:bold;""
                            >positive</p>
                            <div style=""width:240px; margin: auto;"">
                                <img src=""images/Y_L_S_33.png"" style= ""width:200px""alt=""img"">
                            </div>
                        </div>","185","","0","images/Y_L_S_33.png","","","","positive","1","33","Y","L","S","",""
"","","","","","html-slider-response","177","457816","0.0-173.0","zdyynpkm44","0","NaN","<div style=""width:500px;"">
                            <p style=""font-size:50px; font-weight:bold;""
                            >positive</p>
                            <div style=""width:240px; margin: auto;"">
                                <img src=""images/Y_D_S_41.png"" style= ""width:200px""alt=""img"">
                            </div>
                        </div>","-114","","0","images/Y_D_S_41.png","","","","positive","2","41","Y","D","S","",""
"","","","","","html-slider-response","178","459975","0.0-174.0","zdyynpkm44","0","NaN","<div style=""width:500px;"">
                            <p style=""font-size:50px; font-weight:bold;""
                            >positive</p>
                            <div style=""width:240px; margin: auto;"">
                                <img src=""images/R_L_U_05.png"" style= ""width:200px""alt=""img"">
                            </div>
                        </div>","-49","","0","images/R_L_U_05.png","","","","positive","2","05","R","L","U","",""
"","","","","","html-slider-response","179","462043","0.0-175.0","zdyynpkm44","0","NaN","<div style=""width:500px;"">
                            <p style=""font-size:50px; font-weight:bold;""
                            >positive</p>
                            <div style=""width:240px; margin: auto;"">
                                <img src=""images/G_L_S_12.png"" style= ""width:200px""alt=""img"">
                            </div>
                        </div>","115","","0","images/G_L_S_12.png","","","","positive","1","12","G","L","S","",""
"","","","","","html-slider-response","180","463825","0.0-176.0","zdyynpkm44","0","NaN","<div style=""width:500px;"">
                            <p style=""font-size:50px; font-weight:bold;""
                            >positive</p>
                            <div style=""width:240px; margin: auto;"">
                                <img src=""images/Y_L_U_37.png"" style= ""width:200px""alt=""img"">
                            </div>
                        </div>","178","","0","images/Y_L_U_37.png","","","","positive","1","37","Y","L","U","",""
"","","","","","html-slider-response","181","465617","0.0-177.0","zdyynpkm44","0","NaN","<div style=""width:500px;"">
                            <p style=""font-size:50px; font-weight:bold;""
                            >positive</p>
                            <div style=""width:240px; margin: auto;"">
                                <img src=""images/B_D_S_28.png"" style= ""width:200px""alt=""img"">
                            </div>
                        </div>","34","","0","images/B_D_S_28.png","","","","positive","1","28","B","D","S","",""
"","","","","","html-slider-response","182","467241","0.0-178.0","zdyynpkm44","0","NaN","<div style=""width:500px;"">
                            <p style=""font-size:50px; font-weight:bold;""
                            >positive</p>
                            <div style=""width:240px; margin: auto;"">
                                <img src=""images/R_D_U_10.png"" style= ""width:200px""alt=""img"">
                            </div>
                        </div>","-90","","0","images/R_D_U_10.png","","","","positive","1","10","R","D","U","",""
"","","","","","html-slider-response","183","469077","0.0-179.0","zdyynpkm44","0","NaN","<div style=""width:500px;"">
                            <p style=""font-size:50px; font-weight:bold;""
                            >positive</p>
                            <div style=""width:240px; margin: auto;"">
                                <img src=""images/B_L_U_27.png"" style= ""width:200px""alt=""img"">
                            </div>
                        </div>","162","","0","images/B_L_U_27.png","","","","positive","1","27","B","L","U","",""
"","","","","","html-slider-response","184","470614","0.0-180.0","zdyynpkm44","0","NaN","<div style=""width:500px;"">
                            <p style=""font-size:50px; font-weight:bold;""
                            >positive</p>
                            <div style=""width:240px; margin: auto;"">
                                <img src=""images/Y_D_U_44.png"" style= ""width:200px""alt=""img"">
                            </div>
                        </div>","-130","","0","images/Y_D_U_44.png","","","","positive","2","44","Y","D","U","",""
"","","","","","html-slider-response","185","472158","0.0-181.0","zdyynpkm44","0","NaN","<div style=""width:500px;"">
