"success","timeout","failed_images","failed_audio","failed_video","trial_type","trial_index","time_elapsed","internal_node_id","subject_id","rt","stimulus","response","question_order","slider_start","image_path","practiceTrial","practiceTrialNum","correct","concept"
"true","false","[]","[]","[]","preload","0","446","0.0-0.0","1y8870h5eg","","","","","","","","","",""
"","","","","","html-button-response","1","6518","0.0-1.0","1y8870h5eg","6071","Welcome to our experiment!<p>At the bottom of this screen, you will see a button that says ""Begin Experiment"".<br>Please only click that button when you are ready to complete the 25 minute experiment in one sitting.</p><p> Once you click that button, it will not be possible to restart the experiment.","0","","","","","","",""
"true","","","","","fullscreen","2","8341","0.0-2.0","1y8870h5eg","819","","","","","","","","",""
"","","","","","survey-multi-select","3","12756","0.0-3.0","1y8870h5eg","4408","","{""Consent"":[""<strong>I consent</strong>""]}","[0]","","","","","",""
"","","","","","html-button-response","4","13986","0.0-4.0","1y8870h5eg","1228","Welcome! <p> This experiment involves two parts: demographic information, followed by the experimental task.<p> It will take about 25 minutes to complete both parts.","0","","","","","","",""
"","","","","","survey-text","5","33256","0.0-5.0","1y8870h5eg","19261","","{""Age"":""18"",""Gender"":""Female"",""Race/ethnicity"":""White"",""Languages"":""Spanish, English""}","","","","","","",""
"","","","","","html-slider-response","6","63685","0.0-6.0","1y8870h5eg","30427","
            <div style='text-align:left; font-size:20px; line-height:25px; width: 1200px;'>
                During this experiment you will be asked to rate how much you associate maps with    different concepts.<br> Below, you can see some examples of the maps you will be asked to rate. Next to the maps
    is the list of concepts.<br>You will be asked    to rate how much you associate each map with each concept on a scale from 'not at all' to 'very much' like the
    one below. <br><br>
    Now, please look at the list of concepts and maps. For each concept, think about the map you associate 'very
    much' with the concept.<br>     When you see that map during the experiment, please rate it near the 'very much' endpoint of the
    scale.<br>Now, please think about which map you associate 'not at all'     with each concept. When you see that map during the experiment, please rate it near the 'not at all' endpoint
    of the scale.<br>
    Please use the full range of the scale. That is, if a map is somewhat associated with the concept, you would
    click partway between the middle point and right side of the scale.    You will be asked to rate each map for a given concept before moving on to the next concept.<br><br>Press the
    'Continue' button for instructions on how to use the slider.    <br><br>
</div>

<div style=""width: 500px; margin: 0 auto;"">
    <div style=""text-align: left; width: 200px; float: left;"">
        <p style=""font-size:25px; line-height:18px;"">calm</p>
        <p style=""font-size:25px; line-height:18px;"">exciting</p>
        <p style=""font-size:25px;line-height:18px;"">positive</p>
        <p style=""font-size:25px;line-height:18px;"">negative</p>
        <p style=""font-size:25px;line-height:18px;"">serious</p>
        <p style=""font-size:25px;line-height:18px;"">playful</p>
        <p style=""font-size:25px;line-height:18px;"">trustworthy</p>
        <p style=""font-size:25px;line-height:18px;"">disturbing</p>
    </div>
    <div style=""width: 200px; float: right; padding-top:15px; padding-right:40px"">
        <br>
        <br>
        <img src=""maps_anchoring.png"" alt=""img"" style=""max-width:500px"">
    </div>
    <div style=""clear: both;""></div>
</div>
            ","46","","0","maps_anchoring.png","true","","",""
"","","","","","html-button-response","7","64647","0.0-7.0","1y8870h5eg","961","<div style=""width:800px;""><p style=""text-align:left"">To move the slider, click and drag your cursor to the location of the scale where you would like to make your rating and then let go. When you let go of the slider, your response will be recorded and the next trial will begin. <br>
            We are interested in your initial impressions of each map for the given concept, so please go with your first intuition. <br>
            Before you begin the experiment, there will be four training trials for you to practice using the scale. <br>
             When you are ready to start the training trials, please click ""Continue"".</p><br></div>","0","","","","","","",""
"","","","","","html-slider-response","8","67569","0.0-8.0-0.0","1y8870h5eg","NaN","<div style=""width:500px;"">
                            <p style=""font-size:25px;"">Please move the slider all the way to the <br> right endpoint of the scale</p>

                            </div>
                        </div>","200","","0","","true","0","true",""
"","","","","","html-button-response","9","69465","0.0-8.0-1.0","1y8870h5eg","1393","<p align='center'><b>Good job!</b> Click on 'Continue' to proceed.</p>","0","","","","","","",""
"","","","","","html-slider-response","10","82730","0.0-9.0-0.0","1y8870h5eg","NaN","<div style=""width:500px;"">
                            <p style=""font-size:25px;"">Please move the slider all the way to the <br> left endpoint of the scale</p>

                            </div>
                        </div>","-200","","0","","true","1","true",""
"","","","","","html-button-response","11","84320","0.0-9.0-1.0","1y8870h5eg","1087","<p align='center'><b>Good job!</b> Click on 'Continue' to proceed.</p>","0","","","","","","",""
"","","","","","html-slider-response","12","87557","0.0-10.0-0.0","1y8870h5eg","NaN","<div style=""width:500px;"">
                            <p style=""font-size:25px;"">Please move the slider halfway between the center and right endpoint of the scale</p>

                            </div>
                        </div>","109","","0","","true","2","true",""
"","","","","","html-button-response","13","88696","0.0-10.0-1.0","1y8870h5eg","636","<p align='center'><b>Good job!</b> Click on 'Continue' to proceed.</p>","0","","","","","","",""
"","","","","","html-slider-response","14","90372","0.0-11.0-0.0","1y8870h5eg","NaN","<div style=""width:500px;"">
                            <p style=""font-size:25px;"">Please move the slider halfway between the center and left endpoint of the scale</p>

                            </div>
                        </div>","-102","","0","","true","3","true",""
"","","","","","html-button-response","15","91575","0.0-11.0-1.0","1y8870h5eg","701","<p align='center'><b>Good job!</b> Click on 'Continue' to proceed.</p>","0","","","","","","",""
"","","","","","html-button-response","16","92308","0.0-12.0","1y8870h5eg","733","<p>Great job! You've completed the practice trials. Now you will begin the main task.</p>","0","","","","","","",""
"","","","","","html-button-response","17","93033","0.0-13.0","1y8870h5eg","725","<p>In this block of trials, you will be asked to rate how much you associate each map with:</p > <p style = 'font-size:150%; font-weight: bold'>exciting</p><br></br>","0","","","","","","",""
"","","","","","html-slider-response","18","95181","0.0-14.0","1y8870h5eg","NaN","<div style=""width:500px;"">
                            <p style=""font-size:50px; font-weight:bold;""
                            >exciting</p>
                            <div style=""width:240px; margin: auto;"">
                                <img src=""images/gray_11.png"" style= ""width:200px""alt=""img"">
                            </div>
                        </div>","36","","0","images/gray_11.png","","","","exciting"
"","","","","","html-slider-response","19","97695","0.0-15.0","1y8870h5eg","NaN","<div style=""width:500px;"">
                            <p style=""font-size:50px; font-weight:bold;""
                            >exciting</p>
                            <div style=""width:240px; margin: auto;"">
                                <img src=""images/gray_38.png"" style= ""width:200px""alt=""img"">
                            </div>
                        </div>","43","","0","images/gray_38.png","","","","exciting"
"","","","","","html-slider-response","20","99977","0.0-16.0","1y8870h5eg","NaN","<div style=""width:500px;"">
                            <p style=""font-size:50px; font-weight:bold;""
                            >exciting</p>
                            <div style=""width:240px; margin: auto;"">
                                <img src=""images/gray_42.png"" style= ""width:200px""alt=""img"">
                            </div>
                        </div>","34","","0","images/gray_42.png","","","","exciting"
"","","","","","html-slider-response","21","104086","0.0-17.0","1y8870h5eg","NaN","<div style=""width:500px;"">
                            <p style=""font-size:50px; font-weight:bold;""
                            >exciting</p>
                            <div style=""width:240px; margin: auto;"">
                                <img src=""images/gray_17.png"" style= ""width:200px""alt=""img"">
                            </div>
                        </div>","71","","0","images/gray_17.png","","","","exciting"
"","","","","","html-slider-response","22","106615","0.0-18.0","1y8870h5eg","NaN","<div style=""width:500px;"">
                            <p style=""font-size:50px; font-weight:bold;""
                            >exciting</p>
                            <div style=""width:240px; margin: auto;"">
                                <img src=""images/gray_40.png"" style= ""width:200px""alt=""img"">
                            </div>
                        </div>","63","","0","images/gray_40.png","","","","exciting"
"","","","","","html-slider-response","23","117574","0.0-19.0","1y8870h5eg","NaN","<div style=""width:500px;"">
                            <p style=""font-size:50px; font-weight:bold;""
                            >exciting</p>
                            <div style=""width:240px; margin: auto;"">
                                <img src=""images/gray_24.png"" style= ""width:200px""alt=""img"">
                            </div>
                        </div>","111","","0","images/gray_24.png","","","","exciting"
"","","","","","html-slider-response","24","119505","0.0-20.0","1y8870h5eg","NaN","<div style=""width:500px;"">
                            <p style=""font-size:50px; font-weight:bold;""
                            >exciting</p>
                            <div style=""width:240px; margin: auto;"">
                                <img src=""images/gray_43.png"" style= ""width:200px""alt=""img"">
                            </div>
                        </div>","-148","","0","images/gray_43.png","","","","exciting"
"","","","","","html-slider-response","25","121272","0.0-21.0","1y8870h5eg","NaN","<div style=""width:500px;"">
                            <p style=""font-size:50px; font-weight:bold;""
                            >exciting</p>
                            <div style=""width:240px; margin: auto;"">
                                <img src=""images/gray_16.png"" style= ""width:200px""alt=""img"">
                            </div>
                        </div>","-150","","0","images/gray_16.png","","","","exciting"
"","","","","","html-slider-response","26","122777","0.0-22.0","1y8870h5eg","NaN","<div style=""width:500px;"">
                            <p style=""font-size:50px; font-weight:bold;""
                            >exciting</p>
                            <div style=""width:240px; margin: auto;"">
                                <img src=""images/gray_15.png"" style= ""width:200px""alt=""img"">
                            </div>
                        </div>","-89","","0","images/gray_15.png","","","","exciting"
"","","","","","html-slider-response","27","124504","0.0-23.0","1y8870h5eg","NaN","<div style=""width:500px;"">
                            <p style=""font-size:50px; font-weight:bold;""
                            >exciting</p>
                            <div style=""width:240px; margin: auto;"">
                                <img src=""images/gray_21.png"" style= ""width:200px""alt=""img"">
                            </div>
                        </div>","166","","0","images/gray_21.png","","","","exciting"
"","","","","","html-slider-response","28","126002","0.0-24.0","1y8870h5eg","NaN","<div style=""width:500px;"">
                            <p style=""font-size:50px; font-weight:bold;""
                            >exciting</p>
                            <div style=""width:240px; margin: auto;"">
                                <img src=""images/gray_05.png"" style= ""width:200px""alt=""img"">
                            </div>
                        </div>","-155","","0","images/gray_05.png","","","","exciting"
"","","","","","html-slider-response","29","127926","0.0-25.0","1y8870h5eg","NaN","<div style=""width:500px;"">
                            <p style=""font-size:50px; font-weight:bold;""
                            >exciting</p>
                            <div style=""width:240px; margin: auto;"">
                                <img src=""images/gray_10.png"" style= ""width:200px""alt=""img"">
                            </div>
                        </div>","-94","","0","images/gray_10.png","","","","exciting"
"","","","","","html-slider-response","30","129479","0.0-26.0","1y8870h5eg","NaN","<div style=""width:500px;"">
                            <p style=""font-size:50px; font-weight:bold;""
                            >exciting</p>
                            <div style=""width:240px; margin: auto;"">
                                <img src=""images/gray_35.png"" style= ""width:200px""alt=""img"">
                            </div>
                        </div>","-69","","0","images/gray_35.png","","","","exciting"
"","","","","","html-slider-response","31","131064","0.0-27.0","1y8870h5eg","NaN","<div style=""width:500px;"">
                            <p style=""font-size:50px; font-weight:bold;""
                            >exciting</p>
                            <div style=""width:240px; margin: auto;"">
                                <img src=""images/gray_32.png"" style= ""width:200px""alt=""img"">
                            </div>
                        </div>","-123","","0","images/gray_32.png","","","","exciting"
"","","","","","html-slider-response","32","132587","0.0-28.0","1y8870h5eg","NaN","<div style=""width:500px;"">
                            <p style=""font-size:50px; font-weight:bold;""
                            >exciting</p>
                            <div style=""width:240px; margin: auto;"">
                                <img src=""images/gray_19.png"" style= ""width:200px""alt=""img"">
                            </div>
                        </div>","60","","0","images/gray_19.png","","","","exciting"
"","","","","","html-slider-response","33","134242","0.0-29.0","1y8870h5eg","NaN","<div style=""width:500px;"">
                            <p style=""font-size:50px; font-weight:bold;""
                            >exciting</p>
                            <div style=""width:240px; margin: auto;"">
                                <img src=""images/gray_18.png"" style= ""width:200px""alt=""img"">
                            </div>
                        </div>","-88","","0","images/gray_18.png","","","","exciting"
"","","","","","html-slider-response","34","136072","0.0-30.0","1y8870h5eg","NaN","<div style=""width:500px;"">
                            <p style=""font-size:50px; font-weight:bold;""
                            >exciting</p>
                            <div style=""width:240px; margin: auto;"">
                                <img src=""images/gray_27.png"" style= ""width:200px""alt=""img"">
                            </div>
                        </div>","64","","0","images/gray_27.png","","","","exciting"
"","","","","","html-slider-response","35","138525","0.0-31.0","1y8870h5eg","NaN","<div style=""width:500px;"">
                            <p style=""font-size:50px; font-weight:bold;""
                            >exciting</p>
                            <div style=""width:240px; margin: auto;"">
                                <img src=""images/gray_13.png"" style= ""width:200px""alt=""img"">
                            </div>
                        </div>","-82","","0","images/gray_13.png","","","","exciting"
"","","","","","html-slider-response","36","140811","0.0-32.0","1y8870h5eg","NaN","<div style=""width:500px;"">
                            <p style=""font-size:50px; font-weight:bold;""
                            >exciting</p>
                            <div style=""width:240px; margin: auto;"">
                                <img src=""images/gray_20.png"" style= ""width:200px""alt=""img"">
                            </div>
                        </div>","-103","","0","images/gray_20.png","","","","exciting"
"","","","","","html-slider-response","37","143065","0.0-33.0","1y8870h5eg","NaN","<div style=""width:500px;"">
                            <p style=""font-size:50px; font-weight:bold;""
                            >exciting</p>
                            <div style=""width:240px; margin: auto;"">
                                <img src=""images/gray_23.png"" style= ""width:200px""alt=""img"">
                            </div>
                        </div>","92","","0","images/gray_23.png","","","","exciting"
"","","","","","html-slider-response","38","144612","0.0-34.0","1y8870h5eg","NaN","<div style=""width:500px;"">
                            <p style=""font-size:50px; font-weight:bold;""
                            >exciting</p>
                            <div style=""width:240px; margin: auto;"">
                                <img src=""images/gray_37.png"" style= ""width:200px""alt=""img"">
                            </div>
                        </div>","59","","0","images/gray_37.png","","","","exciting"
"","","","","","html-slider-response","39","146054","0.0-35.0","1y8870h5eg","NaN","<div style=""width:500px;"">
                            <p style=""font-size:50px; font-weight:bold;""
                            >exciting</p>
                            <div style=""width:240px; margin: auto;"">
                                <img src=""images/gray_01.png"" style= ""width:200px""alt=""img"">
                            </div>
                        </div>","-67","","0","images/gray_01.png","","","","exciting"
"","","","","","html-slider-response","40","147355","0.0-36.0","1y8870h5eg","NaN","<div style=""width:500px;"">
                            <p style=""font-size:50px; font-weight:bold;""
                            >exciting</p>
                            <div style=""width:240px; margin: auto;"">
                                <img src=""images/gray_26.png"" style= ""width:200px""alt=""img"">
                            </div>
                        </div>","-91","","0","images/gray_26.png","","","","exciting"
"","","","","","html-slider-response","41","148893","0.0-37.0","1y8870h5eg","NaN","<div style=""width:500px;"">
                            <p style=""font-size:50px; font-weight:bold;""
                            >exciting</p>
                            <div style=""width:240px; margin: auto;"">
                                <img src=""images/gray_14.png"" style= ""width:200px""alt=""img"">
                            </div>
                        </div>","-113","","0","images/gray_14.png","","","","exciting"
"","","","","","html-slider-response","42","150802","0.0-38.0","1y8870h5eg","NaN","<div style=""width:500px;"">
                            <p style=""font-size:50px; font-weight:bold;""
                            >exciting</p>
                            <div style=""width:240px; margin: auto;"">
                                <img src=""images/gray_03.png"" style= ""width:200px""alt=""img"">
                            </div>
                        </div>","-93","","0","images/gray_03.png","","","","exciting"
"","","","","","html-slider-response","43","152970","0.0-39.0","1y8870h5eg","NaN","<div style=""width:500px;"">
                            <p style=""font-size:50px; font-weight:bold;""
                            >exciting</p>
                            <div style=""width:240px; margin: auto;"">
                                <img src=""images/gray_25.png"" style= ""width:200px""alt=""img"">
                            </div>
                        </div>","-82","","0","images/gray_25.png","","","","exciting"
"","","","","","html-slider-response","44","155035","0.0-40.0","1y8870h5eg","NaN","<div style=""width:500px;"">
                            <p style=""font-size:50px; font-weight:bold;""
                            >exciting</p>
                            <div style=""width:240px; margin: auto;"">
                                <img src=""images/gray_33.png"" style= ""width:200px""alt=""img"">
                            </div>
                        </div>","-88","","0","images/gray_33.png","","","","exciting"
"","","","","","html-slider-response","45","157141","0.0-41.0","1y8870h5eg","NaN","<div style=""width:500px;"">
                            <p style=""font-size:50px; font-weight:bold;""
                            >exciting</p>
                            <div style=""width:240px; margin: auto;"">
                                <img src=""images/gray_22.png"" style= ""width:200px""alt=""img"">
                            </div>
                        </div>","59","","0","images/gray_22.png","","","","exciting"
"","","","","","html-slider-response","46","169018","0.0-42.0","1y8870h5eg","NaN","<div style=""width:500px;"">
                            <p style=""font-size:50px; font-weight:bold;""
                            >exciting</p>
                            <div style=""width:240px; margin: auto;"">
                                <img src=""images/gray_41.png"" style= ""width:200px""alt=""img"">
                            </div>
                        </div>","70","","0","images/gray_41.png","","","","exciting"
"","","","","","html-slider-response","47","171077","0.0-43.0","1y8870h5eg","NaN","<div style=""width:500px;"">
                            <p style=""font-size:50px; font-weight:bold;""
                            >exciting</p>
                            <div style=""width:240px; margin: auto;"">
                                <img src=""images/gray_04.png"" style= ""width:200px""alt=""img"">
                            </div>
                        </div>","-113","","0","images/gray_04.png","","","","exciting"
"","","","","","html-slider-response","48","173662","0.0-44.0","1y8870h5eg","NaN","<div style=""width:500px;"">
                            <p style=""font-size:50px; font-weight:bold;""
                            >exciting</p>
                            <div style=""width:240px; margin: auto;"">
                                <img src=""images/gray_29.png"" style= ""width:200px""alt=""img"">
                            </div>
                        </div>","-83","","0","images/gray_29.png","","","","exciting"
"","","","","","html-slider-response","49","178958","0.0-45.0","1y8870h5eg","NaN","<div style=""width:500px;"">
                            <p style=""font-size:50px; font-weight:bold;""
                            >exciting</p>
                            <div style=""width:240px; margin: auto;"">
                                <img src=""images/gray_12.png"" style= ""width:200px""alt=""img"">
                            </div>
                        </div>","82","","0","images/gray_12.png","","","","exciting"
"","","","","","html-slider-response","50","320274","0.0-46.0","1y8870h5eg","NaN","<div style=""width:500px;"">
                            <p style=""font-size:50px; font-weight:bold;""
                            >exciting</p>
                            <div style=""width:240px; margin: auto;"">
                                <img src=""images/gray_07.png"" style= ""width:200px""alt=""img"">
                            </div>
                        </div>","110","","0","images/gray_07.png","","","","exciting"
"","","","","","html-slider-response","51","322056","0.0-47.0","1y8870h5eg","NaN","<div style=""width:500px;"">
                            <p style=""font-size:50px; font-weight:bold;""
                            >exciting</p>
                            <div style=""width:240px; margin: auto;"">
                                <img src=""images/gray_08.png"" style= ""width:200px""alt=""img"">
                            </div>
                        </div>","82","","0","images/gray_08.png","","","","exciting"
"","","","","","html-slider-response","52","324374","0.0-48.0","1y8870h5eg","NaN","<div style=""width:500px;"">
                            <p style=""font-size:50px; font-weight:bold;""
                            >exciting</p>
                            <div style=""width:240px; margin: auto;"">
                                <img src=""images/gray_31.png"" style= ""width:200px""alt=""img"">
                            </div>
                        </div>","110","","0","images/gray_31.png","","","","exciting"
"","","","","","html-slider-response","53","327911","0.0-49.0","1y8870h5eg","NaN","<div style=""width:500px;"">
                            <p style=""font-size:50px; font-weight:bold;""
                            >exciting</p>
                            <div style=""width:240px; margin: auto;"">
                                <img src=""images/gray_28.png"" style= ""width:200px""alt=""img"">
                            </div>
                        </div>","126","","0","images/gray_28.png","","","","exciting"
"","","","","","html-slider-response","54","328874","0.0-50.0","1y8870h5eg","NaN","<div style=""width:500px;"">
                            <p style=""font-size:50px; font-weight:bold;""
                            >exciting</p>
                            <div style=""width:240px; margin: auto;"">
                                <img src=""images/gray_44.png"" style= ""width:200px""alt=""img"">
                            </div>
                        </div>","17","","0","images/gray_44.png","","","","exciting"
"","","","","","html-slider-response","55","330592","0.0-51.0","1y8870h5eg","NaN","<div style=""width:500px;"">
                            <p style=""font-size:50px; font-weight:bold;""
                            >exciting</p>
                            <div style=""width:240px; margin: auto;"">
                                <img src=""images/gray_34.png"" style= ""width:200px""alt=""img"">
                            </div>
                        </div>","-54","","0","images/gray_34.png","","","","exciting"
"","","","","","html-slider-response","56","332044","0.0-52.0","1y8870h5eg","NaN","<div style=""width:500px;"">
                            <p style=""font-size:50px; font-weight:bold;""
                            >exciting</p>
                            <div style=""width:240px; margin: auto;"">
                                <img src=""images/gray_02.png"" style= ""width:200px""alt=""img"">
                            </div>
                        </div>","94","","0","images/gray_02.png","","","","exciting"
"","","","","","html-slider-response","57","333479","0.0-53.0","1y8870h5eg","NaN","<div style=""width:500px;"">
                            <p style=""font-size:50px; font-weight:bold;""
                            >exciting</p>
                            <div style=""width:240px; margin: auto;"">
                                <img src=""images/gray_09.png"" style= ""width:200px""alt=""img"">
                            </div>
                        </div>","-73","","0","images/gray_09.png","","","","exciting"
"","","","","","html-slider-response","58","334804","0.0-54.0","1y8870h5eg","NaN","<div style=""width:500px;"">
                            <p style=""font-size:50px; font-weight:bold;""
                            >exciting</p>
                            <div style=""width:240px; margin: auto;"">
                                <img src=""images/gray_39.png"" style= ""width:200px""alt=""img"">
                            </div>
                        </div>","-86","","0","images/gray_39.png","","","","exciting"
"","","","","","html-slider-response","59","336136","0.0-55.0","1y8870h5eg","NaN","<div style=""width:500px;"">
                            <p style=""font-size:50px; font-weight:bold;""
                            >exciting</p>
                            <div style=""width:240px; margin: auto;"">
                                <img src=""images/gray_06.png"" style= ""width:200px""alt=""img"">
                            </div>
                        </div>","-109","","0","images/gray_06.png","","","","exciting"
"","","","","","html-slider-response","60","338660","0.0-56.0","1y8870h5eg","NaN","<div style=""width:500px;"">
                            <p style=""font-size:50px; font-weight:bold;""
                            >exciting</p>
                            <div style=""width:240px; margin: auto;"">
                                <img src=""images/gray_36.png"" style= ""width:200px""alt=""img"">
                            </div>
                        </div>","70","","0","images/gray_36.png","","","","exciting"
"","","","","","html-slider-response","61","340300","0.0-57.0","1y8870h5eg","NaN","<div style=""width:500px;"">
                            <p style=""font-size:50px; font-weight:bold;""
                            >exciting</p>
                            <div style=""width:240px; margin: auto;"">
                                <img src=""images/gray_30.png"" style= ""width:200px""alt=""img"">
                            </div>
                        </div>","-106","","0","images/gray_30.png","","","","exciting"
"","","","","","html-button-response","62","345363","0.0-58.0","1y8870h5eg","4560","<p>Great Job! You've finished block 1.<br></br> You have 7 block(s) left to go.<br></br></p>","0","","","","","","",""
"","","","","","html-button-response","63","346065","0.0-59.0","1y8870h5eg","701","<p>In this block of trials, you will be asked to rate how much you associate each map with:</p > <p style = 'font-size:150%; font-weight: bold'>trustworthy</p><br></br>","0","","","","","","",""
"","","","","","html-slider-response","64","348275","0.0-60.0","1y8870h5eg","NaN","<div style=""width:500px;"">
                            <p style=""font-size:50px; font-weight:bold;""
                            >trustworthy</p>
                            <div style=""width:240px; margin: auto;"">
                                <img src=""images/gray_27.png"" style= ""width:200px""alt=""img"">
                            </div>
                        </div>","-168","","0","images/gray_27.png","","","","trustworthy"
"","","","","","html-slider-response","65","349513","0.0-61.0","1y8870h5eg","NaN","<div style=""width:500px;"">
                            <p style=""font-size:50px; font-weight:bold;""
                            >trustworthy</p>
                            <div style=""width:240px; margin: auto;"">
                                <img src=""images/gray_30.png"" style= ""width:200px""alt=""img"">
                            </div>
                        </div>","-170","","0","images/gray_30.png","","","","trustworthy"
"","","","","","html-slider-response","66","350672","0.0-62.0","1y8870h5eg","NaN","<div style=""width:500px;"">
                            <p style=""font-size:50px; font-weight:bold;""
                            >trustworthy</p>
                            <div style=""width:240px; margin: auto;"">
                                <img src=""images/gray_15.png"" style= ""width:200px""alt=""img"">
                            </div>
                        </div>","-101","","0","images/gray_15.png","","","","trustworthy"
"","","","","","html-slider-response","67","351792","0.0-63.0","1y8870h5eg","NaN","<div style=""width:500px;"">
                            <p style=""font-size:50px; font-weight:bold;""
                            >trustworthy</p>
                            <div style=""width:240px; margin: auto;"">
                                <img src=""images/gray_24.png"" style= ""width:200px""alt=""img"">
                            </div>
                        </div>","-108","","0","images/gray_24.png","","","","trustworthy"
"","","","","","html-slider-response","68","352918","0.0-64.0","1y8870h5eg","NaN","<div style=""width:500px;"">
                            <p style=""font-size:50px; font-weight:bold;""
                            >trustworthy</p>
                            <div style=""width:240px; margin: auto;"">
                                <img src=""images/gray_14.png"" style= ""width:200px""alt=""img"">
                            </div>
                        </div>","-154","","0","images/gray_14.png","","","","trustworthy"
"","","","","","html-slider-response","69","354441","0.0-65.0","1y8870h5eg","NaN","<div style=""width:500px;"">
                            <p style=""font-size:50px; font-weight:bold;""
                            >trustworthy</p>
                            <div style=""width:240px; margin: auto;"">
                                <img src=""images/gray_31.png"" style= ""width:200px""alt=""img"">
                            </div>
                        </div>","-160","","0","images/gray_31.png","","","","trustworthy"
"","","","","","html-slider-response","70","355870","0.0-66.0","1y8870h5eg","NaN","<div style=""width:500px;"">
                            <p style=""font-size:50px; font-weight:bold;""
                            >trustworthy</p>
                            <div style=""width:240px; margin: auto;"">
                                <img src=""images/gray_19.png"" style= ""width:200px""alt=""img"">
                            </div>
                        </div>","-112","","0","images/gray_19.png","","","","trustworthy"
"","","","","","html-slider-response","71","357114","0.0-67.0","1y8870h5eg","NaN","<div style=""width:500px;"">
                            <p style=""font-size:50px; font-weight:bold;""
                            >trustworthy</p>
                            <div style=""width:240px; margin: auto;"">
                                <img src=""images/gray_28.png"" style= ""width:200px""alt=""img"">
                            </div>
                        </div>","-86","","0","images/gray_28.png","","","","trustworthy"
"","","","","","html-slider-response","72","358366","0.0-68.0","1y8870h5eg","NaN","<div style=""width:500px;"">
                            <p style=""font-size:50px; font-weight:bold;""
                            >trustworthy</p>
                            <div style=""width:240px; margin: auto;"">
                                <img src=""images/gray_33.png"" style= ""width:200px""alt=""img"">
                            </div>
                        </div>","-99","","0","images/gray_33.png","","","","trustworthy"
"","","","","","html-slider-response","73","359976","0.0-69.0","1y8870h5eg","NaN","<div style=""width:500px;"">
                            <p style=""font-size:50px; font-weight:bold;""
                            >trustworthy</p>
                            <div style=""width:240px; margin: auto;"">
                                <img src=""images/gray_43.png"" style= ""width:200px""alt=""img"">
                            </div>
                        </div>","-122","","0","images/gray_43.png","","","","trustworthy"
"","","","","","html-slider-response","74","363059","0.0-70.0","1y8870h5eg","NaN","<div style=""width:500px;"">
                            <p style=""font-size:50px; font-weight:bold;""
                            >trustworthy</p>
                            <div style=""width:240px; margin: auto;"">
                                <img src=""images/gray_03.png"" style= ""width:200px""alt=""img"">
                            </div>
                        </div>","-97","","0","images/gray_03.png","","","","trustworthy"
"","","","","","html-slider-response","75","365061","0.0-71.0","1y8870h5eg","NaN","<div style=""width:500px;"">
                            <p style=""font-size:50px; font-weight:bold;""
                            >trustworthy</p>
                            <div style=""width:240px; margin: auto;"">
                                <img src=""images/gray_40.png"" style= ""width:200px""alt=""img"">
                            </div>
                        </div>","-107","","0","images/gray_40.png","","","","trustworthy"
"","","","","","html-slider-response","76","366284","0.0-72.0","1y8870h5eg","NaN","<div style=""width:500px;"">
                            <p style=""font-size:50px; font-weight:bold;""
                            >trustworthy</p>
                            <div style=""width:240px; margin: auto;"">
                                <img src=""images/gray_16.png"" style= ""width:200px""alt=""img"">
                            </div>
                        </div>","-108","","0","images/gray_16.png","","","","trustworthy"
"","","","","","html-slider-response","77","367753","0.0-73.0","1y8870h5eg","NaN","<div style=""width:500px;"">
                            <p style=""font-size:50px; font-weight:bold;""
                            >trustworthy</p>
                            <div style=""width:240px; margin: auto;"">
                                <img src=""images/gray_26.png"" style= ""width:200px""alt=""img"">
                            </div>
                        </div>","-102","","0","images/gray_26.png","","","","trustworthy"
"","","","","","html-slider-response","78","369054","0.0-74.0","1y8870h5eg","NaN","<div style=""width:500px;"">
                            <p style=""font-size:50px; font-weight:bold;""
                            >trustworthy</p>
                            <div style=""width:240px; margin: auto;"">
                                <img src=""images/gray_44.png"" style= ""width:200px""alt=""img"">
                            </div>
                        </div>","-148","","0","images/gray_44.png","","","","trustworthy"
"","","","","","html-slider-response","79","370495","0.0-75.0","1y8870h5eg","NaN","<div style=""width:500px;"">
                            <p style=""font-size:50px; font-weight:bold;""
                            >trustworthy</p>
                            <div style=""width:240px; margin: auto;"">
                                <img src=""images/gray_18.png"" style= ""width:200px""alt=""img"">
                            </div>
                        </div>","-174","","0","images/gray_18.png","","","","trustworthy"
"","","","","","html-slider-response","80","371820","0.0-76.0","1y8870h5eg","NaN","<div style=""width:500px;"">
                            <p style=""font-size:50px; font-weight:bold;""
                            >trustworthy</p>
                            <div style=""width:240px; margin: auto;"">
                                <img src=""images/gray_29.png"" style= ""width:200px""alt=""img"">
                            </div>
                        </div>","-129","","0","images/gray_29.png","","","","trustworthy"
"","","","","","html-slider-response","81","373192","0.0-77.0","1y8870h5eg","NaN","<div style=""width:500px;"">
                            <p style=""font-size:50px; font-weight:bold;""
                            >trustworthy</p>
                            <div style=""width:240px; margin: auto;"">
                                <img src=""images/gray_22.png"" style= ""width:200px""alt=""img"">
                            </div>
                        </div>","-103","","0","images/gray_22.png","","","","trustworthy"
"","","","","","html-slider-response","82","375035","0.0-78.0","1y8870h5eg","NaN","<div style=""width:500px;"">
                            <p style=""font-size:50px; font-weight:bold;""
                            >trustworthy</p>
                            <div style=""width:240px; margin: auto;"">
                                <img src=""images/gray_02.png"" style= ""width:200px""alt=""img"">
                            </div>
                        </div>","-90","","0","images/gray_02.png","","","","trustworthy"
"","","","","","html-slider-response","83","387315","0.0-79.0","1y8870h5eg","NaN","<div style=""width:500px;"">
                            <p style=""font-size:50px; font-weight:bold;""
                            >trustworthy</p>
                            <div style=""width:240px; margin: auto;"">
                                <img src=""images/gray_11.png"" style= ""width:200px""alt=""img"">
                            </div>
                        </div>","-90","","0","images/gray_11.png","","","","trustworthy"
"","","","","","html-slider-response","84","389644","0.0-80.0","1y8870h5eg","NaN","<div style=""width:500px;"">
                            <p style=""font-size:50px; font-weight:bold;""
                            >trustworthy</p>
                            <div style=""width:240px; margin: auto;"">
                                <img src=""images/gray_36.png"" style= ""width:200px""alt=""img"">
                            </div>
                        </div>","-84","","0","images/gray_36.png","","","","trustworthy"
"","","","","","html-slider-response","85","395440","0.0-81.0","1y8870h5eg","NaN","<div style=""width:500px;"">
                            <p style=""font-size:50px; font-weight:bold;""
                            >trustworthy</p>
                            <div style=""width:240px; margin: auto;"">
                                <img src=""images/gray_35.png"" style= ""width:200px""alt=""img"">
                            </div>
                        </div>","-127","","0","images/gray_35.png","","","","trustworthy"
"","","","","","html-slider-response","86","396863","0.0-82.0","1y8870h5eg","NaN","<div style=""width:500px;"">
                            <p style=""font-size:50px; font-weight:bold;""
                            >trustworthy</p>
                            <div style=""width:240px; margin: auto;"">
                                <img src=""images/gray_25.png"" style= ""width:200px""alt=""img"">
                            </div>
                        </div>","-96","","0","images/gray_25.png","","","","trustworthy"
"","","","","","html-slider-response","87","398560","0.0-83.0","1y8870h5eg","NaN","<div style=""width:500px;"">
                            <p style=""font-size:50px; font-weight:bold;""
                            >trustworthy</p>
                            <div style=""width:240px; margin: auto;"">
                                <img src=""images/gray_37.png"" style= ""width:200px""alt=""img"">
                            </div>
                        </div>","-91","","0","images/gray_37.png","","","","trustworthy"
"","","","","","html-slider-response","88","400278","0.0-84.0","1y8870h5eg","NaN","<div style=""width:500px;"">
                            <p style=""font-size:50px; font-weight:bold;""
                            >trustworthy</p>
                            <div style=""width:240px; margin: auto;"">
                                <img src=""images/gray_42.png"" style= ""width:200px""alt=""img"">
                            </div>
                        </div>","-82","","0","images/gray_42.png","","","","trustworthy"
"","","","","","html-slider-response","89","401973","0.0-85.0","1y8870h5eg","NaN","<div style=""width:500px;"">
                            <p style=""font-size:50px; font-weight:bold;""
                            >trustworthy</p>
                            <div style=""width:240px; margin: auto;"">
                                <img src=""images/gray_21.png"" style= ""width:200px""alt=""img"">
                            </div>
                        </div>","-90","","0","images/gray_21.png","","","","trustworthy"
"","","","","","html-slider-response","90","403771","0.0-86.0","1y8870h5eg","NaN","<div style=""width:500px;"">
                            <p style=""font-size:50px; font-weight:bold;""
                            >trustworthy</p>
                            <div style=""width:240px; margin: auto;"">
                                <img src=""images/gray_13.png"" style= ""width:200px""alt=""img"">
                            </div>
                        </div>","-94","","0","images/gray_13.png","","","","trustworthy"
"","","","","","html-slider-response","91","405631","0.0-87.0","1y8870h5eg","NaN","<div style=""width:500px;"">
                            <p style=""font-size:50px; font-weight:bold;""
                            >trustworthy</p>
                            <div style=""width:240px; margin: auto;"">
                                <img src=""images/gray_20.png"" style= ""width:200px""alt=""img"">
                            </div>
                        </div>","-125","","0","images/gray_20.png","","","","trustworthy"
"","","","","","html-slider-response","92","407066","0.0-88.0","1y8870h5eg","NaN","<div style=""width:500px;"">
                            <p style=""font-size:50px; font-weight:bold;""
                            >trustworthy</p>
                            <div style=""width:240px; margin: auto;"">
                                <img src=""images/gray_17.png"" style= ""width:200px""alt=""img"">
                            </div>
                        </div>","-105","","0","images/gray_17.png","","","","trustworthy"
"","","","","","html-slider-response","93","414664","0.0-89.0","1y8870h5eg","NaN","<div style=""width:500px;"">
                            <p style=""font-size:50px; font-weight:bold;""
                            >trustworthy</p>
                            <div style=""width:240px; margin: auto;"">
                                <img src=""images/gray_34.png"" style= ""width:200px""alt=""img"">
                            </div>
                        </div>","-86","","0","images/gray_34.png","","","","trustworthy"
"","","","","","html-slider-response","94","416545","0.0-90.0","1y8870h5eg","NaN","<div style=""width:500px;"">
                            <p style=""font-size:50px; font-weight:bold;""
                            >trustworthy</p>
                            <div style=""width:240px; margin: auto;"">
                                <img src=""images/gray_09.png"" style= ""width:200px""alt=""img"">
                            </div>
                        </div>","-126","","0","images/gray_09.png","","","","trustworthy"
"","","","","","html-slider-response","95","418089","0.0-91.0","1y8870h5eg","NaN","<div style=""width:500px;"">
                            <p style=""font-size:50px; font-weight:bold;""
                            >trustworthy</p>
                            <div style=""width:240px; margin: auto;"">
                                <img src=""images/gray_38.png"" style= ""width:200px""alt=""img"">
                            </div>
                        </div>","-108","","0","images/gray_38.png","","","","trustworthy"
"","","","","","html-slider-response","96","420849","0.0-92.0","1y8870h5eg","NaN","<div style=""width:500px;"">
                            <p style=""font-size:50px; font-weight:bold;""
                            >trustworthy</p>
                            <div style=""width:240px; margin: auto;"">
                                <img src=""images/gray_23.png"" style= ""width:200px""alt=""img"">
                            </div>
                        </div>","-86","","0","images/gray_23.png","","","","trustworthy"
"","","","","","html-slider-response","97","422221","0.0-93.0","1y8870h5eg","NaN","<div style=""width:500px;"">
                            <p style=""font-size:50px; font-weight:bold;""
                            >trustworthy</p>
                            <div style=""width:240px; margin: auto;"">
                                <img src=""images/gray_10.png"" style= ""width:200px""alt=""img"">
                            </div>
                        </div>","-122","","0","images/gray_10.png","","","","trustworthy"
"","","","","","html-slider-response","98","424007","0.0-94.0","1y8870h5eg","NaN","<div style=""width:500px;"">
                            <p style=""font-size:50px; font-weight:bold;""
                            >trustworthy</p>
                            <div style=""width:240px; margin: auto;"">
                                <img src=""images/gray_39.png"" style= ""width:200px""alt=""img"">
                            </div>
                        </div>","-113","","0","images/gray_39.png","","","","trustworthy"
"","","","","","html-slider-response","99","433752","0.0-95.0","1y8870h5eg","NaN","<div style=""width:500px;"">
                            <p style=""font-size:50px; font-weight:bold;""
                            >trustworthy</p>
                            <div style=""width:240px; margin: auto;"">
                                <img src=""images/gray_01.png"" style= ""width:200px""alt=""img"">
                            </div>
                        </div>","-149","","0","images/gray_01.png","","","","trustworthy"
"","","","","","html-slider-response","100","435139","0.0-96.0","1y8870h5eg","NaN","<div style=""width:500px;"">
                            <p style=""font-size:50px; font-weight:bold;""
                            >trustworthy</p>
                            <div style=""width:240px; margin: auto;"">
                                <img src=""images/gray_05.png"" style= ""width:200px""alt=""img"">
                            </div>
                        </div>","-41","","0","images/gray_05.png","","","","trustworthy"
"","","","","","html-slider-response","101","436551","0.0-97.0","1y8870h5eg","NaN","<div style=""width:500px;"">
                            <p style=""font-size:50px; font-weight:bold;""
                            >trustworthy</p>
                            <div style=""width:240px; margin: auto;"">
                                <img src=""images/gray_04.png"" style= ""width:200px""alt=""img"">
                            </div>
                        </div>","-91","","0","images/gray_04.png","","","","trustworthy"
"","","","","","html-slider-response","102","437796","0.0-98.0","1y8870h5eg","NaN","<div style=""width:500px;"">
                            <p style=""font-size:50px; font-weight:bold;""
                            >trustworthy</p>
                            <div style=""width:240px; margin: auto;"">
                                <img src=""images/gray_06.png"" style= ""width:200px""alt=""img"">
                            </div>
                        </div>","-122","","0","images/gray_06.png","","","","trustworthy"
"","","","","","html-slider-response","103","439958","0.0-99.0","1y8870h5eg","NaN","<div style=""width:500px;"">
                            <p style=""font-size:50px; font-weight:bold;""
                            >trustworthy</p>
                            <div style=""width:240px; margin: auto;"">
                                <img src=""images/gray_08.png"" style= ""width:200px""alt=""img"">
                            </div>
                        </div>","-152","","0","images/gray_08.png","","","","trustworthy"
"","","","","","html-slider-response","104","441549","0.0-100.0","1y8870h5eg","NaN","<div style=""width:500px;"">
                            <p style=""font-size:50px; font-weight:bold;""
                            >trustworthy</p>
                            <div style=""width:240px; margin: auto;"">
                                <img src=""images/gray_07.png"" style= ""width:200px""alt=""img"">
                            </div>
                        </div>","-116","","0","images/gray_07.png","","","","trustworthy"
"","","","","","html-slider-response","105","443047","0.0-101.0","1y8870h5eg","NaN","<div style=""width:500px;"">
                            <p style=""font-size:50px; font-weight:bold;""
                            >trustworthy</p>
                            <div style=""width:240px; margin: auto;"">
                                <img src=""images/gray_12.png"" style= ""width:200px""alt=""img"">
                            </div>
                        </div>","-132","","0","images/gray_12.png","","","","trustworthy"
"","","","","","html-slider-response","106","444333","0.0-102.0","1y8870h5eg","NaN","<div style=""width:500px;"">
                            <p style=""font-size:50px; font-weight:bold;""
                            >trustworthy</p>
                            <div style=""width:240px; margin: auto;"">
                                <img src=""images/gray_41.png"" style= ""width:200px""alt=""img"">
                            </div>
                        </div>","-103","","0","images/gray_41.png","","","","trustworthy"
"","","","","","html-slider-response","107","445792","0.0-103.0","1y8870h5eg","NaN","<div style=""width:500px;"">
                            <p style=""font-size:50px; font-weight:bold;""
                            >trustworthy</p>
                            <div style=""width:240px; margin: auto;"">
                                <img src=""images/gray_32.png"" style= ""width:200px""alt=""img"">
                            </div>
                        </div>","-98","","0","images/gray_32.png","","","","trustworthy"
"","","","","","html-button-response","108","447200","0.0-104.0","1y8870h5eg","907","<p>Great Job! You've finished block 2.<br></br> You have 6 block(s) left to go.<br></br></p>","0","","","","","","",""
"","","","","","html-button-response","109","448209","0.0-105.0","1y8870h5eg","1008","<p>In this block of trials, you will be asked to rate how much you associate each map with:</p > <p style = 'font-size:150%; font-weight: bold'>serious</p><br></br>","0","","","","","","",""
"","","","","","html-slider-response","110","449561","0.0-106.0","1y8870h5eg","NaN","<div style=""width:500px;"">
                            <p style=""font-size:50px; font-weight:bold;""
                            >serious</p>
                            <div style=""width:240px; margin: auto;"">
                                <img src=""images/gray_23.png"" style= ""width:200px""alt=""img"">
                            </div>
                        </div>","-95","","0","images/gray_23.png","","","","serious"
"","","","","","html-slider-response","111","450759","0.0-107.0","1y8870h5eg","NaN","<div style=""width:500px;"">
                            <p style=""font-size:50px; font-weight:bold;""
                            >serious</p>
                            <div style=""width:240px; margin: auto;"">
                                <img src=""images/gray_34.png"" style= ""width:200px""alt=""img"">
                            </div>
                        </div>","-84","","0","images/gray_34.png","","","","serious"
"","","","","","html-slider-response","112","452178","0.0-108.0","1y8870h5eg","NaN","<div style=""width:500px;"">
                            <p style=""font-size:50px; font-weight:bold;""
                            >serious</p>
                            <div style=""width:240px; margin: auto;"">
                                <img src=""images/gray_37.png"" style= ""width:200px""alt=""img"">
                            </div>
                        </div>","-135","","0","images/gray_37.png","","","","serious"
"","","","","","html-slider-response","113","453692","0.0-109.0","1y8870h5eg","NaN","<div style=""width:500px;"">
                            <p style=""font-size:50px; font-weight:bold;""
                            >serious</p>
                            <div style=""width:240px; margin: auto;"">
                                <img src=""images/gray_13.png"" style= ""width:200px""alt=""img"">
                            </div>
                        </div>","-96","","0","images/gray_13.png","","","","serious"
"","","","","","html-slider-response","114","455544","0.0-110.0","1y8870h5eg","NaN","<div style=""width:500px;"">
                            <p style=""font-size:50px; font-weight:bold;""
                            >serious</p>
                            <div style=""width:240px; margin: auto;"">
                                <img src=""images/gray_09.png"" style= ""width:200px""alt=""img"">
                            </div>
                        </div>","-69","","0","images/gray_09.png","","","","serious"
"","","","","","html-slider-response","115","457176","0.0-111.0","1y8870h5eg","NaN","<div style=""width:500px;"">
                            <p style=""font-size:50px; font-weight:bold;""
                            >serious</p>
                            <div style=""width:240px; margin: auto;"">
                                <img src=""images/gray_42.png"" style= ""width:200px""alt=""img"">
                            </div>
                        </div>","-96","","0","images/gray_42.png","","","","serious"
"","","","","","html-slider-response","116","458691","0.0-112.0","1y8870h5eg","NaN","<div style=""width:500px;"">
                            <p style=""font-size:50px; font-weight:bold;""
                            >serious</p>
                            <div style=""width:240px; margin: auto;"">
                                <img src=""images/gray_16.png"" style= ""width:200px""alt=""img"">
                            </div>
                        </div>","-98","","0","images/gray_16.png","","","","serious"
"","","","","","html-slider-response","117","460582","0.0-113.0","1y8870h5eg","NaN","<div style=""width:500px;"">
                            <p style=""font-size:50px; font-weight:bold;""
                            >serious</p>
                            <div style=""width:240px; margin: auto;"">
                                <img src=""images/gray_03.png"" style= ""width:200px""alt=""img"">
                            </div>
                        </div>","-99","","0","images/gray_03.png","","","","serious"
"","","","","","html-slider-response","118","462271","0.0-114.0","1y8870h5eg","NaN","<div style=""width:500px;"">
                            <p style=""font-size:50px; font-weight:bold;""
                            >serious</p>
                            <div style=""width:240px; margin: auto;"">
                                <img src=""images/gray_32.png"" style= ""width:200px""alt=""img"">
                            </div>
                        </div>","-80","","0","images/gray_32.png","","","","serious"
"","","","","","html-slider-response","119","463525","0.0-115.0","1y8870h5eg","NaN","<div style=""width:500px;"">
                            <p style=""font-size:50px; font-weight:bold;""
                            >serious</p>
                            <div style=""width:240px; margin: auto;"">
                                <img src=""images/gray_01.png"" style= ""width:200px""alt=""img"">
                            </div>
                        </div>","-126","","0","images/gray_01.png","","","","serious"
"","","","","","html-slider-response","120","465377","0.0-116.0","1y8870h5eg","NaN","<div style=""width:500px;"">
                            <p style=""font-size:50px; font-weight:bold;""
                            >serious</p>
                            <div style=""width:240px; margin: auto;"">
                                <img src=""images/gray_35.png"" style= ""width:200px""alt=""img"">
                            </div>
                        </div>","-84","","0","images/gray_35.png","","","","serious"
"","","","","","html-slider-response","121","467190","0.0-117.0","1y8870h5eg","NaN","<div style=""width:500px;"">
                            <p style=""font-size:50px; font-weight:bold;""
                            >serious</p>
                            <div style=""width:240px; margin: auto;"">
                                <img src=""images/gray_05.png"" style= ""width:200px""alt=""img"">
                            </div>
                        </div>","-137","","0","images/gray_05.png","","","","serious"
"","","","","","html-slider-response","122","468792","0.0-118.0","1y8870h5eg","NaN","<div style=""width:500px;"">
                            <p style=""font-size:50px; font-weight:bold;""
                            >serious</p>
                            <div style=""width:240px; margin: auto;"">
                                <img src=""images/gray_29.png"" style= ""width:200px""alt=""img"">
                            </div>
                        </div>","-88","","0","images/gray_29.png","","","","serious"
"","","","","","html-slider-response","123","470730","0.0-119.0","1y8870h5eg","NaN","<div style=""width:500px;"">
                            <p style=""font-size:50px; font-weight:bold;""
                            >serious</p>
                            <div style=""width:240px; margin: auto;"">
                                <img src=""images/gray_20.png"" style= ""width:200px""alt=""img"">
                            </div>
                        </div>","68","","0","images/gray_20.png","","","","serious"
"","","","","","html-slider-response","124","472244","0.0-120.0","1y8870h5eg","NaN","<div style=""width:500px;"">
                            <p style=""font-size:50px; font-weight:bold;""
                            >serious</p>
                            <div style=""width:240px; margin: auto;"">
                                <img src=""images/gray_36.png"" style= ""width:200px""alt=""img"">
                            </div>
                        </div>","82","","0","images/gray_36.png","","","","serious"
"","","","","","html-slider-response","125","473624","0.0-121.0","1y8870h5eg","NaN","<div style=""width:500px;"">
                            <p style=""font-size:50px; font-weight:bold;""
                            >serious</p>
                            <div style=""width:240px; margin: auto;"">
                                <img src=""images/gray_11.png"" style= ""width:200px""alt=""img"">
                            </div>
                        </div>","-74","","0","images/gray_11.png","","","","serious"
"","","","","","html-slider-response","126","475241","0.0-122.0","1y8870h5eg","NaN","<div style=""width:500px;"">
                            <p style=""font-size:50px; font-weight:bold;""
                            >serious</p>
                            <div style=""width:240px; margin: auto;"">
                                <img src=""images/gray_24.png"" style= ""width:200px""alt=""img"">
                            </div>
                        </div>","-90","","0","images/gray_24.png","","","","serious"
"","","","","","html-slider-response","127","477173","0.0-123.0","1y8870h5eg","NaN","<div style=""width:500px;"">
                            <p style=""font-size:50px; font-weight:bold;""
                            >serious</p>
                            <div style=""width:240px; margin: auto;"">
                                <img src=""images/gray_30.png"" style= ""width:200px""alt=""img"">
                            </div>
                        </div>","-5","","0","images/gray_30.png","","","","serious"
"","","","","","html-slider-response","128","478789","0.0-124.0","1y8870h5eg","NaN","<div style=""width:500px;"">
                            <p style=""font-size:50px; font-weight:bold;""
                            >serious</p>
                            <div style=""width:240px; margin: auto;"">
                                <img src=""images/gray_22.png"" style= ""width:200px""alt=""img"">
                            </div>
                        </div>","-76","","0","images/gray_22.png","","","","serious"
"","","","","","html-slider-response","129","480302","0.0-125.0","1y8870h5eg","NaN","<div style=""width:500px;"">
                            <p style=""font-size:50px; font-weight:bold;""
                            >serious</p>
                            <div style=""width:240px; margin: auto;"">
                                <img src=""images/gray_31.png"" style= ""width:200px""alt=""img"">
                            </div>
                        </div>","-102","","0","images/gray_31.png","","","","serious"
"","","","","","html-slider-response","130","481879","0.0-126.0","1y8870h5eg","NaN","<div style=""width:500px;"">
                            <p style=""font-size:50px; font-weight:bold;""
                            >serious</p>
                            <div style=""width:240px; margin: auto;"">
                                <img src=""images/gray_08.png"" style= ""width:200px""alt=""img"">
                            </div>
                        </div>","-94","","0","images/gray_08.png","","","","serious"
"","","","","","html-slider-response","131","483559","0.0-127.0","1y8870h5eg","NaN","<div style=""width:500px;"">
                            <p style=""font-size:50px; font-weight:bold;""
                            >serious</p>
                            <div style=""width:240px; margin: auto;"">
                                <img src=""images/gray_27.png"" style= ""width:200px""alt=""img"">
                            </div>
                        </div>","67","","0","images/gray_27.png","","","","serious"
"","","","","","html-slider-response","132","487088","0.0-128.0","1y8870h5eg","NaN","<div style=""width:500px;"">
                            <p style=""font-size:50px; font-weight:bold;""
                            >serious</p>
                            <div style=""width:240px; margin: auto;"">
                                <img src=""images/gray_41.png"" style= ""width:200px""alt=""img"">
                            </div>
                        </div>","-142","","0","images/gray_41.png","","","","serious"
"","","","","","html-slider-response","133","488797","0.0-129.0","1y8870h5eg","NaN","<div style=""width:500px;"">
                            <p style=""font-size:50px; font-weight:bold;""
                            >serious</p>
                            <div style=""width:240px; margin: auto;"">
                                <img src=""images/gray_44.png"" style= ""width:200px""alt=""img"">
                            </div>
                        </div>","-78","","0","images/gray_44.png","","","","serious"
"","","","","","html-slider-response","134","494697","0.0-130.0","1y8870h5eg","NaN","<div style=""width:500px;"">
                            <p style=""font-size:50px; font-weight:bold;""
                            >serious</p>
                            <div style=""width:240px; margin: auto;"">
                                <img src=""images/gray_33.png"" style= ""width:200px""alt=""img"">
                            </div>
                        </div>","-94","","0","images/gray_33.png","","","","serious"
"","","","","","html-slider-response","135","498697","0.0-131.0","1y8870h5eg","NaN","<div style=""width:500px;"">
                            <p style=""font-size:50px; font-weight:bold;""
                            >serious</p>
                            <div style=""width:240px; margin: auto;"">
                                <img src=""images/gray_39.png"" style= ""width:200px""alt=""img"">
                            </div>
                        </div>","-61","","0","images/gray_39.png","","","","serious"
"","","","","","html-slider-response","136","499937","0.0-132.0","1y8870h5eg","NaN","<div style=""width:500px;"">
                            <p style=""font-size:50px; font-weight:bold;""
                            >serious</p>
                            <div style=""width:240px; margin: auto;"">
                                <img src=""images/gray_25.png"" style= ""width:200px""alt=""img"">
                            </div>
                        </div>","-96","","0","images/gray_25.png","","","","serious"
"","","","","","html-slider-response","137","501447","0.0-133.0","1y8870h5eg","NaN","<div style=""width:500px;"">
                            <p style=""font-size:50px; font-weight:bold;""
                            >serious</p>
                            <div style=""width:240px; margin: auto;"">
                                <img src=""images/gray_17.png"" style= ""width:200px""alt=""img"">
                            </div>
                        </div>","-125","","0","images/gray_17.png","","","","serious"
"","","","","","html-slider-response","138","502930","0.0-134.0","1y8870h5eg","NaN","<div style=""width:500px;"">
                            <p style=""font-size:50px; font-weight:bold;""
                            >serious</p>
                            <div style=""width:240px; margin: auto;"">
                                <img src=""images/gray_15.png"" style= ""width:200px""alt=""img"">
                            </div>
                        </div>","-78","","0","images/gray_15.png","","","","serious"
"","","","","","html-slider-response","139","504419","0.0-135.0","1y8870h5eg","NaN","<div style=""width:500px;"">
                            <p style=""font-size:50px; font-weight:bold;""
                            >serious</p>
                            <div style=""width:240px; margin: auto;"">
                                <img src=""images/gray_26.png"" style= ""width:200px""alt=""img"">
                            </div>
                        </div>","-77","","0","images/gray_26.png","","","","serious"
"","","","","","html-slider-response","140","505785","0.0-136.0","1y8870h5eg","NaN","<div style=""width:500px;"">
                            <p style=""font-size:50px; font-weight:bold;""
                            >serious</p>
                            <div style=""width:240px; margin: auto;"">
                                <img src=""images/gray_38.png"" style= ""width:200px""alt=""img"">
                            </div>
                        </div>","-76","","0","images/gray_38.png","","","","serious"
"","","","","","html-slider-response","141","508662","0.0-137.0","1y8870h5eg","NaN","<div style=""width:500px;"">
                            <p style=""font-size:50px; font-weight:bold;""
                            >serious</p>
                            <div style=""width:240px; margin: auto;"">
                                <img src=""images/gray_02.png"" style= ""width:200px""alt=""img"">
                            </div>
                        </div>","-122","","0","images/gray_02.png","","","","serious"
"","","","","","html-slider-response","142","510286","0.0-138.0","1y8870h5eg","NaN","<div style=""width:500px;"">
                            <p style=""font-size:50px; font-weight:bold;""
                            >serious</p>
                            <div style=""width:240px; margin: auto;"">
                                <img src=""images/gray_06.png"" style= ""width:200px""alt=""img"">
                            </div>
                        </div>","-82","","0","images/gray_06.png","","","","serious"
"","","","","","html-slider-response","143","511895","0.0-139.0","1y8870h5eg","NaN","<div style=""width:500px;"">
                            <p style=""font-size:50px; font-weight:bold;""
                            >serious</p>
                            <div style=""width:240px; margin: auto;"">
                                <img src=""images/gray_19.png"" style= ""width:200px""alt=""img"">
                            </div>
                        </div>","-91","","0","images/gray_19.png","","","","serious"
"","","","","","html-slider-response","144","547503","0.0-140.0","1y8870h5eg","NaN","<div style=""width:500px;"">
                            <p style=""font-size:50px; font-weight:bold;""
                            >serious</p>
                            <div style=""width:240px; margin: auto;"">
                                <img src=""images/gray_28.png"" style= ""width:200px""alt=""img"">
                            </div>
                        </div>","-81","","0","images/gray_28.png","","","","serious"
"","","","","","html-slider-response","145","549372","0.0-141.0","1y8870h5eg","NaN","<div style=""width:500px;"">
                            <p style=""font-size:50px; font-weight:bold;""
                            >serious</p>
                            <div style=""width:240px; margin: auto;"">
                                <img src=""images/gray_21.png"" style= ""width:200px""alt=""img"">
                            </div>
                        </div>","-135","","0","images/gray_21.png","","","","serious"
"","","","","","html-slider-response","146","551058","0.0-142.0","1y8870h5eg","NaN","<div style=""width:500px;"">
                            <p style=""font-size:50px; font-weight:bold;""
                            >serious</p>
                            <div style=""width:240px; margin: auto;"">
                                <img src=""images/gray_40.png"" style= ""width:200px""alt=""img"">
                            </div>
                        </div>","-90","","0","images/gray_40.png","","","","serious"
"","","","","","html-slider-response","147","553511","0.0-143.0","1y8870h5eg","NaN","<div style=""width:500px;"">
                            <p style=""font-size:50px; font-weight:bold;""
                            >serious</p>
                            <div style=""width:240px; margin: auto;"">
                                <img src=""images/gray_43.png"" style= ""width:200px""alt=""img"">
                            </div>
                        </div>","-113","","0","images/gray_43.png","","","","serious"
"","","","","","html-slider-response","148","557100","0.0-144.0","1y8870h5eg","NaN","<div style=""width:500px;"">
                            <p style=""font-size:50px; font-weight:bold;""
                            >serious</p>
                            <div style=""width:240px; margin: auto;"">
                                <img src=""images/gray_12.png"" style= ""width:200px""alt=""img"">
                            </div>
                        </div>","-96","","0","images/gray_12.png","","","","serious"
"","","","","","html-slider-response","149","558525","0.0-145.0","1y8870h5eg","NaN","<div style=""width:500px;"">
                            <p style=""font-size:50px; font-weight:bold;""
                            >serious</p>
                            <div style=""width:240px; margin: auto;"">
                                <img src=""images/gray_14.png"" style= ""width:200px""alt=""img"">
                            </div>
                        </div>","-103","","0","images/gray_14.png","","","","serious"
"","","","","","html-slider-response","150","569240","0.0-146.0","1y8870h5eg","NaN","<div style=""width:500px;"">
                            <p style=""font-size:50px; font-weight:bold;""
                            >serious</p>
                            <div style=""width:240px; margin: auto;"">
                                <img src=""images/gray_04.png"" style= ""width:200px""alt=""img"">
                            </div>
                        </div>","-78","","0","images/gray_04.png","","","","serious"
"","","","","","html-slider-response","151","570626","0.0-147.0","1y8870h5eg","NaN","<div style=""width:500px;"">
                            <p style=""font-size:50px; font-weight:bold;""
                            >serious</p>
                            <div style=""width:240px; margin: auto;"">
                                <img src=""images/gray_18.png"" style= ""width:200px""alt=""img"">
                            </div>
                        </div>","-86","","0","images/gray_18.png","","","","serious"
"","","","","","html-slider-response","152","572053","0.0-148.0","1y8870h5eg","NaN","<div style=""width:500px;"">
                            <p style=""font-size:50px; font-weight:bold;""
                            >serious</p>
                            <div style=""width:240px; margin: auto;"">
                                <img src=""images/gray_07.png"" style= ""width:200px""alt=""img"">
                            </div>
                        </div>","-91","","0","images/gray_07.png","","","","serious"
"","","","","","html-slider-response","153","573255","0.0-149.0","1y8870h5eg","NaN","<div style=""width:500px;"">
                            <p style=""font-size:50px; font-weight:bold;""
                            >serious</p>
                            <div style=""width:240px; margin: auto;"">
                                <img src=""images/gray_10.png"" style= ""width:200px""alt=""img"">
                            </div>
                        </div>","-139","","0","images/gray_10.png","","","","serious"
"","","","","","html-button-response","154","574470","0.0-150.0","1y8870h5eg","713","<p>Great Job! You've finished block 3.<br></br> You have 5 block(s) left to go.<br></br></p>","0","","","","","","",""
"","","","","","html-button-response","155","575337","0.0-151.0","1y8870h5eg","867","<p>In this block of trials, you will be asked to rate how much you associate each map with:</p > <p style = 'font-size:150%; font-weight: bold'>calm</p><br></br>","0","","","","","","",""
"","","","","","html-slider-response","156","577004","0.0-152.0","1y8870h5eg","NaN","<div style=""width:500px;"">
                            <p style=""font-size:50px; font-weight:bold;""
                            >calm</p>
                            <div style=""width:240px; margin: auto;"">
                                <img src=""images/gray_22.png"" style= ""width:200px""alt=""img"">
                            </div>
                        </div>","-82","","0","images/gray_22.png","","","","calm"
"","","","","","html-slider-response","157","578777","0.0-153.0","1y8870h5eg","NaN","<div style=""width:500px;"">
                            <p style=""font-size:50px; font-weight:bold;""
                            >calm</p>
                            <div style=""width:240px; margin: auto;"">
                                <img src=""images/gray_07.png"" style= ""width:200px""alt=""img"">
                            </div>
                        </div>","-76","","0","images/gray_07.png","","","","calm"
"","","","","","html-slider-response","158","580567","0.0-154.0","1y8870h5eg","NaN","<div style=""width:500px;"">
                            <p style=""font-size:50px; font-weight:bold;""
                            >calm</p>
                            <div style=""width:240px; margin: auto;"">
                                <img src=""images/gray_01.png"" style= ""width:200px""alt=""img"">
                            </div>
                        </div>","77","","0","images/gray_01.png","","","","calm"
"","","","","","html-slider-response","159","582294","0.0-155.0","1y8870h5eg","NaN","<div style=""width:500px;"">
                            <p style=""font-size:50px; font-weight:bold;""
                            >calm</p>
                            <div style=""width:240px; margin: auto;"">
                                <img src=""images/gray_41.png"" style= ""width:200px""alt=""img"">
                            </div>
                        </div>","-70","","0","images/gray_41.png","","","","calm"
"","","","","","html-slider-response","160","583888","0.0-156.0","1y8870h5eg","NaN","<div style=""width:500px;"">
                            <p style=""font-size:50px; font-weight:bold;""
                            >calm</p>
                            <div style=""width:240px; margin: auto;"">
                                <img src=""images/gray_23.png"" style= ""width:200px""alt=""img"">
                            </div>
                        </div>","62","","0","images/gray_23.png","","","","calm"
"","","","","","html-slider-response","161","585645","0.0-157.0","1y8870h5eg","NaN","<div style=""width:500px;"">
                            <p style=""font-size:50px; font-weight:bold;""
                            >calm</p>
                            <div style=""width:240px; margin: auto;"">
                                <img src=""images/gray_17.png"" style= ""width:200px""alt=""img"">
                            </div>
                        </div>","-87","","0","images/gray_17.png","","","","calm"
"","","","","","html-slider-response","162","588910","0.0-158.0","1y8870h5eg","NaN","<div style=""width:500px;"">
                            <p style=""font-size:50px; font-weight:bold;""
                            >calm</p>
                            <div style=""width:240px; margin: auto;"">
                                <img src=""images/gray_20.png"" style= ""width:200px""alt=""img"">
                            </div>
                        </div>","-147","","0","images/gray_20.png","","","","calm"
"","","","","","html-slider-response","163","591077","0.0-159.0","1y8870h5eg","NaN","<div style=""width:500px;"">
                            <p style=""font-size:50px; font-weight:bold;""
                            >calm</p>
                            <div style=""width:240px; margin: auto;"">
                                <img src=""images/gray_36.png"" style= ""width:200px""alt=""img"">
                            </div>
                        </div>","-106","","0","images/gray_36.png","","","","calm"
"","","","","","html-slider-response","164","593315","0.0-160.0","1y8870h5eg","NaN","<div style=""width:500px;"">
                            <p style=""font-size:50px; font-weight:bold;""
                            >calm</p>
                            <div style=""width:240px; margin: auto;"">
                                <img src=""images/gray_30.png"" style= ""width:200px""alt=""img"">
                            </div>
                        </div>","-157","","0","images/gray_30.png","","","","calm"
"","","","","","html-slider-response","165","595381","0.0-161.0","1y8870h5eg","NaN","<div style=""width:500px;"">
                            <p style=""font-size:50px; font-weight:bold;""
                            >calm</p>
                            <div style=""width:240px; margin: auto;"">
                                <img src=""images/gray_05.png"" style= ""width:200px""alt=""img"">
                            </div>
                        </div>","154","","0","images/gray_05.png","","","","calm"
"","","","","","html-slider-response","166","596895","0.0-162.0","1y8870h5eg","NaN","<div style=""width:500px;"">
                            <p style=""font-size:50px; font-weight:bold;""
                            >calm</p>
                            <div style=""width:240px; margin: auto;"">
                                <img src=""images/gray_06.png"" style= ""width:200px""alt=""img"">
                            </div>
                        </div>","147","","0","images/gray_06.png","","","","calm"
"","","","","","html-slider-response","167","599229","0.0-163.0","1y8870h5eg","NaN","<div style=""width:500px;"">
                            <p style=""font-size:50px; font-weight:bold;""
                            >calm</p>
                            <div style=""width:240px; margin: auto;"">
                                <img src=""images/gray_37.png"" style= ""width:200px""alt=""img"">
                            </div>
                        </div>","200","","0","images/gray_37.png","","","","calm"
"","","","","","html-slider-response","168","601311","0.0-164.0","1y8870h5eg","NaN","<div style=""width:500px;"">
                            <p style=""font-size:50px; font-weight:bold;""
                            >calm</p>
                            <div style=""width:240px; margin: auto;"">
                                <img src=""images/gray_12.png"" style= ""width:200px""alt=""img"">
                            </div>
                        </div>","46","","0","images/gray_12.png","","","","calm"
"","","","","","html-slider-response","169","603516","0.0-165.0","1y8870h5eg","NaN","<div style=""width:500px;"">
                            <p style=""font-size:50px; font-weight:bold;""
                            >calm</p>
                            <div style=""width:240px; margin: auto;"">
                                <img src=""images/gray_21.png"" style= ""width:200px""alt=""img"">
                            </div>
                        </div>","170","","0","images/gray_21.png","","","","calm"
"","","","","","html-slider-response","170","605259","0.0-166.0","1y8870h5eg","NaN","<div style=""width:500px;"">
                            <p style=""font-size:50px; font-weight:bold;""
                            >calm</p>
                            <div style=""width:240px; margin: auto;"">
                                <img src=""images/gray_24.png"" style= ""width:200px""alt=""img"">
                            </div>
                        </div>","-135","","0","images/gray_24.png","","","","calm"
"","","","","","html-slider-response","171","607010","0.0-167.0","1y8870h5eg","NaN","<div style=""width:500px;"">
                            <p style=""font-size:50px; font-weight:bold;""
                            >calm</p>
                            <div style=""width:240px; margin: auto;"">
                                <img src=""images/gray_40.png"" style= ""width:200px""alt=""img"">
                            </div>
                        </div>","-97","","0","images/gray_40.png","","","","calm"
"","","","","","html-slider-response","172","609012","0.0-168.0","1y8870h5eg","NaN","<div style=""width:500px;"">
                            <p style=""font-size:50px; font-weight:bold;""
                            >calm</p>
                            <div style=""width:240px; margin: auto;"">
                                <img src=""images/gray_28.png"" style= ""width:200px""alt=""img"">
                            </div>
                        </div>","-137","","0","images/gray_28.png","","","","calm"
"","","","","","html-slider-response","173","610983","0.0-169.0","1y8870h5eg","NaN","<div style=""width:500px;"">
                            <p style=""font-size:50px; font-weight:bold;""
                            >calm</p>
                            <div style=""width:240px; margin: auto;"">
                                <img src=""images/gray_32.png"" style= ""width:200px""alt=""img"">
                            </div>
                        </div>","-129","","0","images/gray_32.png","","","","calm"
"","","","","","html-slider-response","174","612947","0.0-170.0","1y8870h5eg","NaN","<div style=""width:500px;"">
                            <p style=""font-size:50px; font-weight:bold;""
                            >calm</p>
                            <div style=""width:240px; margin: auto;"">
                                <img src=""images/gray_26.png"" style= ""width:200px""alt=""img"">
                            </div>
                        </div>","-53","","0","images/gray_26.png","","","","calm"
"","","","","","html-slider-response","175","615186","0.0-171.0","1y8870h5eg","NaN","<div style=""width:500px;"">
                            <p style=""font-size:50px; font-weight:bold;""
                            >calm</p>
                            <div style=""width:240px; margin: auto;"">
                                <img src=""images/gray_25.png"" style= ""width:200px""alt=""img"">
                            </div>
                        </div>","-66","","0","images/gray_25.png","","","","calm"
"","","","","","html-slider-response","176","617496","0.0-172.0","1y8870h5eg","NaN","<div style=""width:500px;"">
                            <p style=""font-size:50px; font-weight:bold;""
                            >calm</p>
                            <div style=""width:240px; margin: auto;"">
                                <img src=""images/gray_14.png"" style= ""width:200px""alt=""img"">
                            </div>
                        </div>","-122","","0","images/gray_14.png","","","","calm"
"","","","","","html-slider-response","177","619813","0.0-173.0","1y8870h5eg","NaN","<div style=""width:500px;"">
                            <p style=""font-size:50px; font-weight:bold;""
                            >calm</p>
                            <div style=""width:240px; margin: auto;"">
                                <img src=""images/gray_19.png"" style= ""width:200px""alt=""img"">
                            </div>
                        </div>","-121","","0","images/gray_19.png","","","","calm"
"","","","","","html-slider-response","178","621754","0.0-174.0","1y8870h5eg","NaN","<div style=""width:500px;"">
                            <p style=""font-size:50px; font-weight:bold;""
                            >calm</p>
                            <div style=""width:240px; margin: auto;"">
                                <img src=""images/gray_15.png"" style= ""width:200px""alt=""img"">
                            </div>
                        </div>","-135","","0","images/gray_15.png","","","","calm"
"","","","","","html-slider-response","179","623337","0.0-175.0","1y8870h5eg","NaN","<div style=""width:500px;"">
                            <p style=""font-size:50px; font-weight:bold;""
                            >calm</p>
                            <div style=""width:240px; margin: auto;"">
                                <img src=""images/gray_42.png"" style= ""width:200px""alt=""img"">
                            </div>
                        </div>","-131","","0","images/gray_42.png","","","","calm"
"","","","","","html-slider-response","180","625253","0.0-176.0","1y8870h5eg","NaN","<div style=""width:500px;"">
                            <p style=""font-size:50px; font-weight:bold;""
                            >calm</p>
                            <div style=""width:240px; margin: auto;"">
                                <img src=""images/gray_43.png"" style= ""width:200px""alt=""img"">
                            </div>
                        </div>","-65","","0","images/gray_43.png","","","","calm"
"","","","","","html-slider-response","181","627342","0.0-177.0","1y8870h5eg","NaN","<div style=""width:500px;"">
                            <p style=""font-size:50px; font-weight:bold;""
                            >calm</p>
                            <div style=""width:240px; margin: auto;"">
                                <img src=""images/gray_38.png"" style= ""width:200px""alt=""img"">
                            </div>
                        </div>","-105","","0","images/gray_38.png","","","","calm"
"","","","","","html-slider-response","182","629644","0.0-178.0","1y8870h5eg","NaN","<div style=""width:500px;"">
                            <p style=""font-size:50px; font-weight:bold;""
                            >calm</p>
                            <div style=""width:240px; margin: auto;"">
                                <img src=""images/gray_27.png"" style= ""width:200px""alt=""img"">
                            </div>
                        </div>","-116","","0","images/gray_27.png","","","","calm"
"","","","","","html-slider-response","183","631961","0.0-179.0","1y8870h5eg","NaN","<div style=""width:500px;"">
                            <p style=""font-size:50px; font-weight:bold;""
                            >calm</p>
                            <div style=""width:240px; margin: auto;"">
                                <img src=""images/gray_03.png"" style= ""width:200px""alt=""img"">
                            </div>
                        </div>","-200","","0","images/gray_03.png","","","","calm"
"","","","","","html-slider-response","184","635044","0.0-180.0","1y8870h5eg","NaN","<div style=""width:500px;"">
                            <p style=""font-size:50px; font-weight:bold;""
                            >calm</p>
                            <div style=""width:240px; margin: auto;"">
                                <img src=""images/gray_18.png"" style= ""width:200px""alt=""img"">
                            </div>
                        </div>","182","","0","images/gray_18.png","","","","calm"
"","","","","","html-slider-response","185","638561","0.0-181.0","1y8870h5eg","NaN","<div style=""width:500px;"">
                            <p style=""font-size:50px; font-weight:bold;""
                            >calm</p>
                            <div style=""width:240px; margin: auto;"">
                                <img src=""images/gray_13.png"" style= ""width:200px""alt=""img"">
                            </div>
                        </div>","-90","","0","images/gray_13.png","","","","calm"
"","","","","","html-slider-response","186","640318","0.0-182.0","1y8870h5eg","NaN","<div style=""width:500px;"">
                            <p style=""font-size:50px; font-weight:bold;""
                            >calm</p>
                            <div style=""width:240px; margin: auto;"">
                                <img src=""images/gray_11.png"" style= ""width:200px""alt=""img"">
                            </div>
                        </div>","-103","","0","images/gray_11.png","","","","calm"
"","","","","","html-slider-response","187","644054","0.0-183.0","1y8870h5eg","NaN","<div style=""width:500px;"">
                            <p style=""font-size:50px; font-weight:bold;""
                            >calm</p>
                            <div style=""width:240px; margin: auto;"">
                                <img src=""images/gray_34.png"" style= ""width:200px""alt=""img"">
                            </div>
                        </div>","-103","","0","images/gray_34.png","","","","calm"
"","","","","","html-slider-response","188","645459","0.0-184.0","1y8870h5eg","NaN","<div style=""width:500px;"">
                            <p style=""font-size:50px; font-weight:bold;""
                            >calm</p>
                            <div style=""width:240px; margin: auto;"">
                                <img src=""images/gray_39.png"" style= ""width:200px""alt=""img"">
                            </div>
                        </div>","1","","0","images/gray_39.png","","","","calm"
"","","","","","html-slider-response","189","647043","0.0-185.0","1y8870h5eg","NaN","<div style=""width:500px;"">
                            <p style=""font-size:50px; font-weight:bold;""
                            >calm</p>
                            <div style=""width:240px; margin: auto;"">
                                <img src=""images/gray_08.png"" style= ""width:200px""alt=""img"">
                            </div>
                        </div>","-52","","0","images/gray_08.png","","","","calm"
"","","","","","html-slider-response","190","648398","0.0-186.0","1y8870h5eg","NaN","<div style=""width:500px;"">
                            <p style=""font-size:50px; font-weight:bold;""
                            >calm</p>
                            <div style=""width:240px; margin: auto;"">
                                <img src=""images/gray_09.png"" style= ""width:200px""alt=""img"">
                            </div>
                        </div>","1","","0","images/gray_09.png","","","","calm"
"","","","","","html-slider-response","191","650148","0.0-187.0","1y8870h5eg","NaN","<div style=""width:500px;"">
                            <p style=""font-size:50px; font-weight:bold;""
                            >calm</p>
                            <div style=""width:240px; margin: auto;"">
                                <img src=""images/gray_10.png"" style= ""width:200px""alt=""img"">
                            </div>
                        </div>","102","","0","images/gray_10.png","","","","calm"
"","","","","","html-slider-response","192","651868","0.0-188.0","1y8870h5eg","NaN","<div style=""width:500px;"">
                            <p style=""font-size:50px; font-weight:bold;""
                            >calm</p>
                            <div style=""width:240px; margin: auto;"">
                                <img src=""images/gray_35.png"" style= ""width:200px""alt=""img"">
                            </div>
                        </div>","-51","","0","images/gray_35.png","","","","calm"
"","","","","","html-slider-response","193","654288","0.0-189.0","1y8870h5eg","NaN","<div style=""width:500px;"">
                            <p style=""font-size:50px; font-weight:bold;""
                            >calm</p>
                            <div style=""width:240px; margin: auto;"">
                                <img src=""images/gray_29.png"" style= ""width:200px""alt=""img"">
                            </div>
                        </div>","194","","0","images/gray_29.png","","","","calm"
"","","","","","html-slider-response","194","657674","0.0-190.0","1y8870h5eg","NaN","<div style=""width:500px;"">
                            <p style=""font-size:50px; font-weight:bold;""
                            >calm</p>
                            <div style=""width:240px; margin: auto;"">
                                <img src=""images/gray_44.png"" style= ""width:200px""alt=""img"">
                            </div>
                        </div>","-111","","0","images/gray_44.png","","","","calm"
"","","","","","html-slider-response","195","660029","0.0-191.0","1y8870h5eg","NaN","<div style=""width:500px;"">
                            <p style=""font-size:50px; font-weight:bold;""
                            >calm</p>
                            <div style=""width:240px; margin: auto;"">
                                <img src=""images/gray_31.png"" style= ""width:200px""alt=""img"">
                            </div>
                        </div>","-94","","0","images/gray_31.png","","","","calm"
"","","","","","html-slider-response","196","661552","0.0-192.0","1y8870h5eg","NaN","<div style=""width:500px;"">
                            <p style=""font-size:50px; font-weight:bold;""
                            >calm</p>
                            <div style=""width:240px; margin: auto;"">
                                <img src=""images/gray_02.png"" style= ""width:200px""alt=""img"">
                            </div>
                        </div>","-22","","0","images/gray_02.png","","","","calm"
"","","","","","html-slider-response","197","662931","0.0-193.0","1y8870h5eg","NaN","<div style=""width:500px;"">
                            <p style=""font-size:50px; font-weight:bold;""
                            >calm</p>
                            <div style=""width:240px; margin: auto;"">
                                <img src=""images/gray_33.png"" style= ""width:200px""alt=""img"">
                            </div>
                        </div>","-115","","0","images/gray_33.png","","","","calm"
"","","","","","html-slider-response","198","664721","0.0-194.0","1y8870h5eg","NaN","<div style=""width:500px;"">
                            <p style=""font-size:50px; font-weight:bold;""
                            >calm</p>
                            <div style=""width:240px; margin: auto;"">
                                <img src=""images/gray_16.png"" style= ""width:200px""alt=""img"">
                            </div>
                        </div>","-99","","0","images/gray_16.png","","","","calm"
