"success","timeout","failed_images","failed_audio","failed_video","trial_type","trial_index","time_elapsed","internal_node_id","subject_id","rt","stimulus","response","question_order","slider_start","image_path","practiceTrial","practiceTrialNum","correct","concept"
"true","false","[]","[]","[]","preload","0","810","0.0-0.0","202l13kq9g","","","","","","","","","",""
"","","","","","html-button-response","1","3414","0.0-1.0","202l13kq9g","2602","Welcome to our experiment!<p>At the bottom of this screen, you will see a button that says ""Begin Experiment"".<br>Please only click that button when you are ready to complete the 25 minute experiment in one sitting.</p><p> Once you click that button, it will not be possible to restart the experiment.","0","","","","","","",""
"true","","","","","fullscreen","2","6067","0.0-2.0","202l13kq9g","1649","","","","","","","","",""
"","","","","","survey-multi-select","3","18520","0.0-3.0","202l13kq9g","12438","","{""Consent"":[""<strong>I consent</strong>""]}","[0]","","","","","",""
"","","","","","html-button-response","4","20250","0.0-4.0","202l13kq9g","1725","Welcome! <p> This experiment involves two parts: demographic information, followed by the experimental task.<p> It will take about 25 minutes to complete both parts.","0","","","","","","",""
"","","","","","survey-text","5","29886","0.0-5.0","202l13kq9g","9624","","{""Age"":""21"",""Gender"":""Female"",""Race/ethnicity"":""White"",""Languages"":""English""}","","","","","","",""
"","","","","","html-slider-response","6","52561","0.0-6.0","202l13kq9g","22635","
            <div style='text-align:left; font-size:20px; line-height:25px; width: 1200px;'>
                During this experiment you will be asked to rate how much you associate maps with    different concepts.<br> Below, you can see some examples of the maps you will be asked to rate. Next to the maps
    is the list of concepts.<br>You will be asked    to rate how much you associate each map with each concept on a scale from 'not at all' to 'very much' like the
    one below. <br><br>
    Now, please look at the list of concepts and maps. For each concept, think about the map you associate 'very
    much' with the concept.<br>     When you see that map during the experiment, please rate it near the 'very much' endpoint of the
    scale.<br>Now, please think about which map you associate 'not at all'     with each concept. When you see that map during the experiment, please rate it near the 'not at all' endpoint
    of the scale.<br>
    Please use the full range of the scale. That is, if a map is somewhat associated with the concept, you would
    click partway between the middle point and right side of the scale.    You will be asked to rate each map for a given concept before moving on to the next concept.<br><br>Press the
    'Continue' button for instructions on how to use the slider.    <br><br>
</div>

<div style=""width: 500px; margin: 0 auto;"">
    <div style=""text-align: left; width: 200px; float: left;"">
        <p style=""font-size:25px; line-height:18px;"">calm</p>
        <p style=""font-size:25px; line-height:18px;"">exciting</p>
        <p style=""font-size:25px;line-height:18px;"">positive</p>
        <p style=""font-size:25px;line-height:18px;"">negative</p>
        <p style=""font-size:25px;line-height:18px;"">serious</p>
        <p style=""font-size:25px;line-height:18px;"">playful</p>
        <p style=""font-size:25px;line-height:18px;"">trustworthy</p>
        <p style=""font-size:25px;line-height:18px;"">disturbing</p>
    </div>
    <div style=""width: 200px; float: right; padding-top:15px; padding-right:40px"">
        <br>
        <br>
        <img src=""maps_anchoring.png"" alt=""img"" style=""max-width:500px"">
    </div>
    <div style=""clear: both;""></div>
</div>
            ","null","","0","maps_anchoring.png","true","","",""
"","","","","","html-button-response","7","64762","0.0-7.0","202l13kq9g","12193","<div style=""width:800px;""><p style=""text-align:left"">To move the slider, click and drag your cursor to the location of the scale where you would like to make your rating and then let go. When you let go of the slider, your response will be recorded and the next trial will begin. <br>
            We are interested in your initial impressions of each map for the given concept, so please go with your first intuition. <br>
            Before you begin the experiment, there will be four training trials for you to practice using the scale. <br>
             When you are ready to start the training trials, please click ""Continue"".</p><br></div>","0","","","","","","",""
"","","","","","html-slider-response","8","68594","0.0-8.0-0.0","202l13kq9g","NaN","<div style=""width:500px;"">
                            <p style=""font-size:25px;"">Please move the slider all the way to the <br> right endpoint of the scale</p>

                            </div>
                        </div>","200","","0","","true","0","true",""
"","","","","","html-button-response","9","69998","0.0-8.0-1.0","202l13kq9g","900","<p align='center'><b>Good job!</b> Click on 'Continue' to proceed.</p>","0","","","","","","",""
"","","","","","html-slider-response","10","72160","0.0-9.0-0.0","202l13kq9g","NaN","<div style=""width:500px;"">
                            <p style=""font-size:25px;"">Please move the slider all the way to the <br> left endpoint of the scale</p>

                            </div>
                        </div>","-200","","0","","true","1","true",""
"","","","","","html-button-response","11","73600","0.0-9.0-1.0","202l13kq9g","936","<p align='center'><b>Good job!</b> Click on 'Continue' to proceed.</p>","0","","","","","","",""
"","","","","","html-slider-response","12","78042","0.0-10.0-0.0","202l13kq9g","NaN","<div style=""width:500px;"">
                            <p style=""font-size:25px;"">Please move the slider halfway between the center and right endpoint of the scale</p>

                            </div>
                        </div>","110","","0","","true","2","true",""
"","","","","","html-button-response","13","79264","0.0-10.0-1.0","202l13kq9g","714","<p align='center'><b>Good job!</b> Click on 'Continue' to proceed.</p>","0","","","","","","",""
"","","","","","html-slider-response","14","82144","0.0-11.0-0.0","202l13kq9g","NaN","<div style=""width:500px;"">
                            <p style=""font-size:25px;"">Please move the slider halfway between the center and left endpoint of the scale</p>

                            </div>
                        </div>","-114","","0","","true","3","false",""
"","","","","","html-button-response","15","85414","0.0-11.0-1.0","202l13kq9g","2767","<p align='center'><b>Not quite!</b> The slider was not placed near the instructed located. Click on 'Continue' to try again. </p>","0","","","","","","",""
"","","","","","html-slider-response","16","90526","0.0-11.1-0.1","202l13kq9g","NaN","<div style=""width:500px;"">
                            <p style=""font-size:25px;"">Please move the slider halfway between the center and left endpoint of the scale</p>

                            </div>
                        </div>","-104","","0","","true","3","true",""
"","","","","","html-button-response","17","92014","0.0-11.1-1.1","202l13kq9g","985","<p align='center'><b>Good job!</b> Click on 'Continue' to proceed.</p>","0","","","","","","",""
"","","","","","html-button-response","18","93197","0.0-12.0","202l13kq9g","1182","<p>Great job! You've completed the practice trials. Now you will begin the main task.</p>","0","","","","","","",""
"","","","","","html-button-response","19","96000","0.0-13.0","202l13kq9g","2799","<p>In this block of trials, you will be asked to rate how much you associate each map with:</p > <p style = 'font-size:150%; font-weight: bold'>trustworthy</p><br></br>","0","","","","","","",""
"","","","","","html-slider-response","20","99995","0.0-14.0","202l13kq9g","NaN","<div style=""width:500px;"">
                            <p style=""font-size:50px; font-weight:bold;""
                            >trustworthy</p>
                            <div style=""width:240px; margin: auto;"">
                                <img src=""images/gray_05.png"" style= ""width:200px""alt=""img"">
                            </div>
                        </div>","110","","0","images/gray_05.png","","","","trustworthy"
"","","","","","html-slider-response","21","103692","0.0-15.0","202l13kq9g","NaN","<div style=""width:500px;"">
                            <p style=""font-size:50px; font-weight:bold;""
                            >trustworthy</p>
                            <div style=""width:240px; margin: auto;"">
                                <img src=""images/gray_16.png"" style= ""width:200px""alt=""img"">
                            </div>
                        </div>","-1","","0","images/gray_16.png","","","","trustworthy"
"","","","","","html-slider-response","22","107393","0.0-16.0","202l13kq9g","NaN","<div style=""width:500px;"">
                            <p style=""font-size:50px; font-weight:bold;""
                            >trustworthy</p>
                            <div style=""width:240px; margin: auto;"">
                                <img src=""images/gray_10.png"" style= ""width:200px""alt=""img"">
                            </div>
                        </div>","30","","0","images/gray_10.png","","","","trustworthy"
"","","","","","html-slider-response","23","110442","0.0-17.0","202l13kq9g","NaN","<div style=""width:500px;"">
                            <p style=""font-size:50px; font-weight:bold;""
                            >trustworthy</p>
                            <div style=""width:240px; margin: auto;"">
                                <img src=""images/gray_38.png"" style= ""width:200px""alt=""img"">
                            </div>
                        </div>","58","","0","images/gray_38.png","","","","trustworthy"
"","","","","","html-slider-response","24","113109","0.0-18.0","202l13kq9g","NaN","<div style=""width:500px;"">
                            <p style=""font-size:50px; font-weight:bold;""
                            >trustworthy</p>
                            <div style=""width:240px; margin: auto;"">
                                <img src=""images/gray_28.png"" style= ""width:200px""alt=""img"">
                            </div>
                        </div>","51","","0","images/gray_28.png","","","","trustworthy"
"","","","","","html-slider-response","25","115558","0.0-19.0","202l13kq9g","NaN","<div style=""width:500px;"">
                            <p style=""font-size:50px; font-weight:bold;""
                            >trustworthy</p>
                            <div style=""width:240px; margin: auto;"">
                                <img src=""images/gray_39.png"" style= ""width:200px""alt=""img"">
                            </div>
                        </div>","49","","0","images/gray_39.png","","","","trustworthy"
"","","","","","html-slider-response","26","120209","0.0-20.0","202l13kq9g","NaN","<div style=""width:500px;"">
                            <p style=""font-size:50px; font-weight:bold;""
                            >trustworthy</p>
                            <div style=""width:240px; margin: auto;"">
                                <img src=""images/gray_36.png"" style= ""width:200px""alt=""img"">
                            </div>
                        </div>","19","","0","images/gray_36.png","","","","trustworthy"
"","","","","","html-slider-response","27","122312","0.0-21.0","202l13kq9g","NaN","<div style=""width:500px;"">
                            <p style=""font-size:50px; font-weight:bold;""
                            >trustworthy</p>
                            <div style=""width:240px; margin: auto;"">
                                <img src=""images/gray_25.png"" style= ""width:200px""alt=""img"">
                            </div>
                        </div>","42","","0","images/gray_25.png","","","","trustworthy"
"","","","","","html-slider-response","28","124292","0.0-22.0","202l13kq9g","NaN","<div style=""width:500px;"">
                            <p style=""font-size:50px; font-weight:bold;""
                            >trustworthy</p>
                            <div style=""width:240px; margin: auto;"">
                                <img src=""images/gray_17.png"" style= ""width:200px""alt=""img"">
                            </div>
                        </div>","62","","0","images/gray_17.png","","","","trustworthy"
"","","","","","html-slider-response","29","126276","0.0-23.0","202l13kq9g","NaN","<div style=""width:500px;"">
                            <p style=""font-size:50px; font-weight:bold;""
                            >trustworthy</p>
                            <div style=""width:240px; margin: auto;"">
                                <img src=""images/gray_22.png"" style= ""width:200px""alt=""img"">
                            </div>
                        </div>","54","","0","images/gray_22.png","","","","trustworthy"
"","","","","","html-slider-response","30","128459","0.0-24.0","202l13kq9g","NaN","<div style=""width:500px;"">
                            <p style=""font-size:50px; font-weight:bold;""
                            >trustworthy</p>
                            <div style=""width:240px; margin: auto;"">
                                <img src=""images/gray_09.png"" style= ""width:200px""alt=""img"">
                            </div>
                        </div>","72","","0","images/gray_09.png","","","","trustworthy"
"","","","","","html-slider-response","31","130459","0.0-25.0","202l13kq9g","NaN","<div style=""width:500px;"">
                            <p style=""font-size:50px; font-weight:bold;""
                            >trustworthy</p>
                            <div style=""width:240px; margin: auto;"">
                                <img src=""images/gray_04.png"" style= ""width:200px""alt=""img"">
                            </div>
                        </div>","66","","0","images/gray_04.png","","","","trustworthy"
"","","","","","html-slider-response","32","132427","0.0-26.0","202l13kq9g","NaN","<div style=""width:500px;"">
                            <p style=""font-size:50px; font-weight:bold;""
                            >trustworthy</p>
                            <div style=""width:240px; margin: auto;"">
                                <img src=""images/gray_19.png"" style= ""width:200px""alt=""img"">
                            </div>
                        </div>","56","","0","images/gray_19.png","","","","trustworthy"
"","","","","","html-slider-response","33","134460","0.0-27.0","202l13kq9g","NaN","<div style=""width:500px;"">
                            <p style=""font-size:50px; font-weight:bold;""
                            >trustworthy</p>
                            <div style=""width:240px; margin: auto;"">
                                <img src=""images/gray_44.png"" style= ""width:200px""alt=""img"">
                            </div>
                        </div>","63","","0","images/gray_44.png","","","","trustworthy"
"","","","","","html-slider-response","34","137010","0.0-28.0","202l13kq9g","NaN","<div style=""width:500px;"">
                            <p style=""font-size:50px; font-weight:bold;""
                            >trustworthy</p>
                            <div style=""width:240px; margin: auto;"">
                                <img src=""images/gray_14.png"" style= ""width:200px""alt=""img"">
                            </div>
                        </div>","57","","0","images/gray_14.png","","","","trustworthy"
"","","","","","html-slider-response","35","139858","0.0-29.0","202l13kq9g","NaN","<div style=""width:500px;"">
                            <p style=""font-size:50px; font-weight:bold;""
                            >trustworthy</p>
                            <div style=""width:240px; margin: auto;"">
                                <img src=""images/gray_29.png"" style= ""width:200px""alt=""img"">
                            </div>
                        </div>","-20","","0","images/gray_29.png","","","","trustworthy"
"","","","","","html-slider-response","36","141743","0.0-30.0","202l13kq9g","NaN","<div style=""width:500px;"">
                            <p style=""font-size:50px; font-weight:bold;""
                            >trustworthy</p>
                            <div style=""width:240px; margin: auto;"">
                                <img src=""images/gray_26.png"" style= ""width:200px""alt=""img"">
                            </div>
                        </div>","32","","0","images/gray_26.png","","","","trustworthy"
"","","","","","html-slider-response","37","143975","0.0-31.0","202l13kq9g","NaN","<div style=""width:500px;"">
                            <p style=""font-size:50px; font-weight:bold;""
                            >trustworthy</p>
                            <div style=""width:240px; margin: auto;"">
                                <img src=""images/gray_11.png"" style= ""width:200px""alt=""img"">
                            </div>
                        </div>","108","","0","images/gray_11.png","","","","trustworthy"
"","","","","","html-slider-response","38","146060","0.0-32.0","202l13kq9g","NaN","<div style=""width:500px;"">
                            <p style=""font-size:50px; font-weight:bold;""
                            >trustworthy</p>
                            <div style=""width:240px; margin: auto;"">
                                <img src=""images/gray_06.png"" style= ""width:200px""alt=""img"">
                            </div>
                        </div>","78","","0","images/gray_06.png","","","","trustworthy"
"","","","","","html-slider-response","39","148459","0.0-33.0","202l13kq9g","NaN","<div style=""width:500px;"">
                            <p style=""font-size:50px; font-weight:bold;""
                            >trustworthy</p>
                            <div style=""width:240px; margin: auto;"">
                                <img src=""images/gray_03.png"" style= ""width:200px""alt=""img"">
                            </div>
                        </div>","70","","0","images/gray_03.png","","","","trustworthy"
"","","","","","html-slider-response","40","152726","0.0-34.0","202l13kq9g","NaN","<div style=""width:500px;"">
                            <p style=""font-size:50px; font-weight:bold;""
                            >trustworthy</p>
                            <div style=""width:240px; margin: auto;"">
                                <img src=""images/gray_20.png"" style= ""width:200px""alt=""img"">
                            </div>
                        </div>","-44","","0","images/gray_20.png","","","","trustworthy"
"","","","","","html-slider-response","41","154858","0.0-35.0","202l13kq9g","NaN","<div style=""width:500px;"">
                            <p style=""font-size:50px; font-weight:bold;""
                            >trustworthy</p>
                            <div style=""width:240px; margin: auto;"">
                                <img src=""images/gray_24.png"" style= ""width:200px""alt=""img"">
                            </div>
                        </div>","81","","0","images/gray_24.png","","","","trustworthy"
"","","","","","html-slider-response","42","158476","0.0-36.0","202l13kq9g","NaN","<div style=""width:500px;"">
                            <p style=""font-size:50px; font-weight:bold;""
                            >trustworthy</p>
                            <div style=""width:240px; margin: auto;"">
                                <img src=""images/gray_21.png"" style= ""width:200px""alt=""img"">
                            </div>
                        </div>","138","","0","images/gray_21.png","","","","trustworthy"
"","","","","","html-slider-response","43","163677","0.0-37.0","202l13kq9g","NaN","<div style=""width:500px;"">
                            <p style=""font-size:50px; font-weight:bold;""
                            >trustworthy</p>
                            <div style=""width:240px; margin: auto;"">
                                <img src=""images/gray_37.png"" style= ""width:200px""alt=""img"">
                            </div>
                        </div>","33","","0","images/gray_37.png","","","","trustworthy"
"","","","","","html-slider-response","44","165995","0.0-38.0","202l13kq9g","NaN","<div style=""width:500px;"">
                            <p style=""font-size:50px; font-weight:bold;""
                            >trustworthy</p>
                            <div style=""width:240px; margin: auto;"">
                                <img src=""images/gray_42.png"" style= ""width:200px""alt=""img"">
                            </div>
                        </div>","-81","","0","images/gray_42.png","","","","trustworthy"
"","","","","","html-slider-response","45","168393","0.0-39.0","202l13kq9g","NaN","<div style=""width:500px;"">
                            <p style=""font-size:50px; font-weight:bold;""
                            >trustworthy</p>
                            <div style=""width:240px; margin: auto;"">
                                <img src=""images/gray_01.png"" style= ""width:200px""alt=""img"">
                            </div>
                        </div>","-122","","0","images/gray_01.png","","","","trustworthy"
"","","","","","html-slider-response","46","171659","0.0-40.0","202l13kq9g","NaN","<div style=""width:500px;"">
                            <p style=""font-size:50px; font-weight:bold;""
                            >trustworthy</p>
                            <div style=""width:240px; margin: auto;"">
                                <img src=""images/gray_12.png"" style= ""width:200px""alt=""img"">
                            </div>
                        </div>","-200","","0","images/gray_12.png","","","","trustworthy"
"","","","","","html-slider-response","47","174092","0.0-41.0","202l13kq9g","NaN","<div style=""width:500px;"">
                            <p style=""font-size:50px; font-weight:bold;""
                            >trustworthy</p>
                            <div style=""width:240px; margin: auto;"">
                                <img src=""images/gray_40.png"" style= ""width:200px""alt=""img"">
                            </div>
                        </div>","-200","","0","images/gray_40.png","","","","trustworthy"
"","","","","","html-slider-response","48","176292","0.0-42.0","202l13kq9g","NaN","<div style=""width:500px;"">
                            <p style=""font-size:50px; font-weight:bold;""
                            >trustworthy</p>
                            <div style=""width:240px; margin: auto;"">
                                <img src=""images/gray_43.png"" style= ""width:200px""alt=""img"">
                            </div>
                        </div>","46","","0","images/gray_43.png","","","","trustworthy"
"","","","","","html-slider-response","49","178359","0.0-43.0","202l13kq9g","NaN","<div style=""width:500px;"">
                            <p style=""font-size:50px; font-weight:bold;""
                            >trustworthy</p>
                            <div style=""width:240px; margin: auto;"">
                                <img src=""images/gray_33.png"" style= ""width:200px""alt=""img"">
                            </div>
                        </div>","-200","","0","images/gray_33.png","","","","trustworthy"
"","","","","","html-slider-response","50","181775","0.0-44.0","202l13kq9g","NaN","<div style=""width:500px;"">
                            <p style=""font-size:50px; font-weight:bold;""
                            >trustworthy</p>
                            <div style=""width:240px; margin: auto;"">
                                <img src=""images/gray_23.png"" style= ""width:200px""alt=""img"">
                            </div>
                        </div>","-79","","0","images/gray_23.png","","","","trustworthy"
"","","","","","html-slider-response","51","184008","0.0-45.0","202l13kq9g","NaN","<div style=""width:500px;"">
                            <p style=""font-size:50px; font-weight:bold;""
                            >trustworthy</p>
                            <div style=""width:240px; margin: auto;"">
                                <img src=""images/gray_27.png"" style= ""width:200px""alt=""img"">
                            </div>
                        </div>","-200","","0","images/gray_27.png","","","","trustworthy"
"","","","","","html-slider-response","52","186225","0.0-46.0","202l13kq9g","NaN","<div style=""width:500px;"">
                            <p style=""font-size:50px; font-weight:bold;""
                            >trustworthy</p>
                            <div style=""width:240px; margin: auto;"">
                                <img src=""images/gray_18.png"" style= ""width:200px""alt=""img"">
                            </div>
                        </div>","61","","0","images/gray_18.png","","","","trustworthy"
"","","","","","html-slider-response","53","188377","0.0-47.0","202l13kq9g","NaN","<div style=""width:500px;"">
                            <p style=""font-size:50px; font-weight:bold;""
                            >trustworthy</p>
                            <div style=""width:240px; margin: auto;"">
                                <img src=""images/gray_41.png"" style= ""width:200px""alt=""img"">
                            </div>
                        </div>","-70","","0","images/gray_41.png","","","","trustworthy"
"","","","","","html-slider-response","54","190343","0.0-48.0","202l13kq9g","NaN","<div style=""width:500px;"">
                            <p style=""font-size:50px; font-weight:bold;""
                            >trustworthy</p>
                            <div style=""width:240px; margin: auto;"">
                                <img src=""images/gray_08.png"" style= ""width:200px""alt=""img"">
                            </div>
                        </div>","-77","","0","images/gray_08.png","","","","trustworthy"
"","","","","","html-slider-response","55","192262","0.0-49.0","202l13kq9g","NaN","<div style=""width:500px;"">
                            <p style=""font-size:50px; font-weight:bold;""
                            >trustworthy</p>
                            <div style=""width:240px; margin: auto;"">
                                <img src=""images/gray_32.png"" style= ""width:200px""alt=""img"">
                            </div>
                        </div>","49","","0","images/gray_32.png","","","","trustworthy"
"","","","","","html-slider-response","56","194492","0.0-50.0","202l13kq9g","NaN","<div style=""width:500px;"">
                            <p style=""font-size:50px; font-weight:bold;""
                            >trustworthy</p>
                            <div style=""width:240px; margin: auto;"">
                                <img src=""images/gray_30.png"" style= ""width:200px""alt=""img"">
                            </div>
                        </div>","-200","","0","images/gray_30.png","","","","trustworthy"
"","","","","","html-slider-response","57","196759","0.0-51.0","202l13kq9g","NaN","<div style=""width:500px;"">
                            <p style=""font-size:50px; font-weight:bold;""
                            >trustworthy</p>
                            <div style=""width:240px; margin: auto;"">
                                <img src=""images/gray_15.png"" style= ""width:200px""alt=""img"">
                            </div>
                        </div>","38","","0","images/gray_15.png","","","","trustworthy"
"","","","","","html-slider-response","58","198743","0.0-52.0","202l13kq9g","NaN","<div style=""width:500px;"">
                            <p style=""font-size:50px; font-weight:bold;""
                            >trustworthy</p>
                            <div style=""width:240px; margin: auto;"">
                                <img src=""images/gray_02.png"" style= ""width:200px""alt=""img"">
                            </div>
                        </div>","28","","0","images/gray_02.png","","","","trustworthy"
"","","","","","html-slider-response","59","200760","0.0-53.0","202l13kq9g","NaN","<div style=""width:500px;"">
                            <p style=""font-size:50px; font-weight:bold;""
                            >trustworthy</p>
                            <div style=""width:240px; margin: auto;"">
                                <img src=""images/gray_31.png"" style= ""width:200px""alt=""img"">
                            </div>
                        </div>","38","","0","images/gray_31.png","","","","trustworthy"
"","","","","","html-slider-response","60","202993","0.0-54.0","202l13kq9g","NaN","<div style=""width:500px;"">
                            <p style=""font-size:50px; font-weight:bold;""
                            >trustworthy</p>
                            <div style=""width:240px; margin: auto;"">
                                <img src=""images/gray_13.png"" style= ""width:200px""alt=""img"">
                            </div>
                        </div>","-200","","0","images/gray_13.png","","","","trustworthy"
"","","","","","html-slider-response","61","205327","0.0-55.0","202l13kq9g","NaN","<div style=""width:500px;"">
                            <p style=""font-size:50px; font-weight:bold;""
                            >trustworthy</p>
                            <div style=""width:240px; margin: auto;"">
                                <img src=""images/gray_34.png"" style= ""width:200px""alt=""img"">
                            </div>
                        </div>","108","","0","images/gray_34.png","","","","trustworthy"
"","","","","","html-slider-response","62","207461","0.0-56.0","202l13kq9g","NaN","<div style=""width:500px;"">
                            <p style=""font-size:50px; font-weight:bold;""
                            >trustworthy</p>
                            <div style=""width:240px; margin: auto;"">
                                <img src=""images/gray_07.png"" style= ""width:200px""alt=""img"">
                            </div>
                        </div>","-200","","0","images/gray_07.png","","","","trustworthy"
"","","","","","html-slider-response","63","211060","0.0-57.0","202l13kq9g","NaN","<div style=""width:500px;"">
                            <p style=""font-size:50px; font-weight:bold;""
                            >trustworthy</p>
                            <div style=""width:240px; margin: auto;"">
                                <img src=""images/gray_35.png"" style= ""width:200px""alt=""img"">
                            </div>
                        </div>","60","","0","images/gray_35.png","","","","trustworthy"
"","","","","","html-button-response","64","213497","0.0-58.0","202l13kq9g","1934","<p>Great Job! You've finished block 1.<br></br> You have 7 block(s) left to go.<br></br></p>","0","","","","","","",""
"","","","","","html-button-response","65","215015","0.0-59.0","202l13kq9g","1517","<p>In this block of trials, you will be asked to rate how much you associate each map with:</p > <p style = 'font-size:150%; font-weight: bold'>serious</p><br></br>","0","","","","","","",""
"","","","","","html-slider-response","66","217126","0.0-60.0","202l13kq9g","NaN","<div style=""width:500px;"">
                            <p style=""font-size:50px; font-weight:bold;""
                            >serious</p>
                            <div style=""width:240px; margin: auto;"">
                                <img src=""images/gray_30.png"" style= ""width:200px""alt=""img"">
                            </div>
                        </div>","63","","0","images/gray_30.png","","","","serious"
"","","","","","html-slider-response","67","219641","0.0-61.0","202l13kq9g","NaN","<div style=""width:500px;"">
                            <p style=""font-size:50px; font-weight:bold;""
                            >serious</p>
                            <div style=""width:240px; margin: auto;"">
                                <img src=""images/gray_14.png"" style= ""width:200px""alt=""img"">
                            </div>
                        </div>","54","","0","images/gray_14.png","","","","serious"
"","","","","","html-slider-response","68","222225","0.0-62.0","202l13kq9g","NaN","<div style=""width:500px;"">
                            <p style=""font-size:50px; font-weight:bold;""
                            >serious</p>
                            <div style=""width:240px; margin: auto;"">
                                <img src=""images/gray_21.png"" style= ""width:200px""alt=""img"">
                            </div>
                        </div>","-42","","0","images/gray_21.png","","","","serious"
"","","","","","html-slider-response","69","224625","0.0-63.0","202l13kq9g","NaN","<div style=""width:500px;"">
                            <p style=""font-size:50px; font-weight:bold;""
                            >serious</p>
                            <div style=""width:240px; margin: auto;"">
                                <img src=""images/gray_20.png"" style= ""width:200px""alt=""img"">
                            </div>
                        </div>","81","","0","images/gray_20.png","","","","serious"
"","","","","","html-slider-response","70","226911","0.0-64.0","202l13kq9g","NaN","<div style=""width:500px;"">
                            <p style=""font-size:50px; font-weight:bold;""
                            >serious</p>
                            <div style=""width:240px; margin: auto;"">
                                <img src=""images/gray_09.png"" style= ""width:200px""alt=""img"">
                            </div>
                        </div>","77","","0","images/gray_09.png","","","","serious"
"","","","","","html-slider-response","71","229393","0.0-65.0","202l13kq9g","NaN","<div style=""width:500px;"">
                            <p style=""font-size:50px; font-weight:bold;""
                            >serious</p>
                            <div style=""width:240px; margin: auto;"">
                                <img src=""images/gray_10.png"" style= ""width:200px""alt=""img"">
                            </div>
                        </div>","200","","0","images/gray_10.png","","","","serious"
"","","","","","html-slider-response","72","237458","0.0-66.0","202l13kq9g","NaN","<div style=""width:500px;"">
                            <p style=""font-size:50px; font-weight:bold;""
                            >serious</p>
                            <div style=""width:240px; margin: auto;"">
                                <img src=""images/gray_31.png"" style= ""width:200px""alt=""img"">
                            </div>
                        </div>","86","","0","images/gray_31.png","","","","serious"
"","","","","","html-slider-response","73","241275","0.0-67.0","202l13kq9g","NaN","<div style=""width:500px;"">
                            <p style=""font-size:50px; font-weight:bold;""
                            >serious</p>
                            <div style=""width:240px; margin: auto;"">
                                <img src=""images/gray_37.png"" style= ""width:200px""alt=""img"">
                            </div>
                        </div>","109","","0","images/gray_37.png","","","","serious"
"","","","","","html-slider-response","74","243176","0.0-68.0","202l13kq9g","NaN","<div style=""width:500px;"">
                            <p style=""font-size:50px; font-weight:bold;""
                            >serious</p>
                            <div style=""width:240px; margin: auto;"">
                                <img src=""images/gray_12.png"" style= ""width:200px""alt=""img"">
                            </div>
                        </div>","200","","0","images/gray_12.png","","","","serious"
"","","","","","html-slider-response","75","245107","0.0-69.0","202l13kq9g","NaN","<div style=""width:500px;"">
                            <p style=""font-size:50px; font-weight:bold;""
                            >serious</p>
                            <div style=""width:240px; margin: auto;"">
                                <img src=""images/gray_06.png"" style= ""width:200px""alt=""img"">
                            </div>
                        </div>","200","","0","images/gray_06.png","","","","serious"
"","","","","","html-slider-response","76","249059","0.0-70.0","202l13kq9g","NaN","<div style=""width:500px;"">
                            <p style=""font-size:50px; font-weight:bold;""
                            >serious</p>
                            <div style=""width:240px; margin: auto;"">
                                <img src=""images/gray_43.png"" style= ""width:200px""alt=""img"">
                            </div>
                        </div>","-26","","0","images/gray_43.png","","","","serious"
"","","","","","html-slider-response","77","250776","0.0-71.0","202l13kq9g","NaN","<div style=""width:500px;"">
                            <p style=""font-size:50px; font-weight:bold;""
                            >serious</p>
                            <div style=""width:240px; margin: auto;"">
                                <img src=""images/gray_16.png"" style= ""width:200px""alt=""img"">
                            </div>
                        </div>","200","","0","images/gray_16.png","","","","serious"
"","","","","","html-slider-response","78","252825","0.0-72.0","202l13kq9g","NaN","<div style=""width:500px;"">
                            <p style=""font-size:50px; font-weight:bold;""
                            >serious</p>
                            <div style=""width:240px; margin: auto;"">
                                <img src=""images/gray_25.png"" style= ""width:200px""alt=""img"">
                            </div>
                        </div>","200","","0","images/gray_25.png","","","","serious"
"","","","","","html-slider-response","79","254742","0.0-73.0","202l13kq9g","NaN","<div style=""width:500px;"">
                            <p style=""font-size:50px; font-weight:bold;""
                            >serious</p>
                            <div style=""width:240px; margin: auto;"">
                                <img src=""images/gray_04.png"" style= ""width:200px""alt=""img"">
                            </div>
                        </div>","200","","0","images/gray_04.png","","","","serious"
"","","","","","html-slider-response","80","256292","0.0-74.0","202l13kq9g","NaN","<div style=""width:500px;"">
                            <p style=""font-size:50px; font-weight:bold;""
                            >serious</p>
                            <div style=""width:240px; margin: auto;"">
                                <img src=""images/gray_13.png"" style= ""width:200px""alt=""img"">
                            </div>
                        </div>","5","","0","images/gray_13.png","","","","serious"
"","","","","","html-slider-response","81","257859","0.0-75.0","202l13kq9g","NaN","<div style=""width:500px;"">
                            <p style=""font-size:50px; font-weight:bold;""
                            >serious</p>
                            <div style=""width:240px; margin: auto;"">
                                <img src=""images/gray_35.png"" style= ""width:200px""alt=""img"">
                            </div>
                        </div>","200","","0","images/gray_35.png","","","","serious"
"","","","","","html-slider-response","82","259575","0.0-76.0","202l13kq9g","NaN","<div style=""width:500px;"">
                            <p style=""font-size:50px; font-weight:bold;""
                            >serious</p>
                            <div style=""width:240px; margin: auto;"">
                                <img src=""images/gray_23.png"" style= ""width:200px""alt=""img"">
                            </div>
                        </div>","200","","0","images/gray_23.png","","","","serious"
"","","","","","html-slider-response","83","261310","0.0-77.0","202l13kq9g","NaN","<div style=""width:500px;"">
                            <p style=""font-size:50px; font-weight:bold;""
                            >serious</p>
                            <div style=""width:240px; margin: auto;"">
                                <img src=""images/gray_01.png"" style= ""width:200px""alt=""img"">
                            </div>
                        </div>","200","","0","images/gray_01.png","","","","serious"
"","","","","","html-slider-response","84","263259","0.0-78.0","202l13kq9g","NaN","<div style=""width:500px;"">
                            <p style=""font-size:50px; font-weight:bold;""
                            >serious</p>
                            <div style=""width:240px; margin: auto;"">
                                <img src=""images/gray_29.png"" style= ""width:200px""alt=""img"">
                            </div>
                        </div>","-58","","0","images/gray_29.png","","","","serious"
"","","","","","html-slider-response","85","265176","0.0-79.0","202l13kq9g","NaN","<div style=""width:500px;"">
                            <p style=""font-size:50px; font-weight:bold;""
                            >serious</p>
                            <div style=""width:240px; margin: auto;"">
                                <img src=""images/gray_08.png"" style= ""width:200px""alt=""img"">
                            </div>
                        </div>","81","","0","images/gray_08.png","","","","serious"
"","","","","","html-slider-response","86","266929","0.0-80.0","202l13kq9g","NaN","<div style=""width:500px;"">
                            <p style=""font-size:50px; font-weight:bold;""
                            >serious</p>
                            <div style=""width:240px; margin: auto;"">
                                <img src=""images/gray_38.png"" style= ""width:200px""alt=""img"">
                            </div>
                        </div>","106","","0","images/gray_38.png","","","","serious"
"","","","","","html-slider-response","87","268791","0.0-81.0","202l13kq9g","NaN","<div style=""width:500px;"">
                            <p style=""font-size:50px; font-weight:bold;""
                            >serious</p>
                            <div style=""width:240px; margin: auto;"">
                                <img src=""images/gray_07.png"" style= ""width:200px""alt=""img"">
                            </div>
                        </div>","138","","0","images/gray_07.png","","","","serious"
"","","","","","html-slider-response","88","271277","0.0-82.0","202l13kq9g","NaN","<div style=""width:500px;"">
                            <p style=""font-size:50px; font-weight:bold;""
                            >serious</p>
                            <div style=""width:240px; margin: auto;"">
                                <img src=""images/gray_34.png"" style= ""width:200px""alt=""img"">
                            </div>
                        </div>","-42","","0","images/gray_34.png","","","","serious"
"","","","","","html-slider-response","89","273309","0.0-83.0","202l13kq9g","NaN","<div style=""width:500px;"">
                            <p style=""font-size:50px; font-weight:bold;""
                            >serious</p>
                            <div style=""width:240px; margin: auto;"">
                                <img src=""images/gray_11.png"" style= ""width:200px""alt=""img"">
                            </div>
                        </div>","171","","0","images/gray_11.png","","","","serious"
"","","","","","html-slider-response","90","275176","0.0-84.0","202l13kq9g","NaN","<div style=""width:500px;"">
                            <p style=""font-size:50px; font-weight:bold;""
                            >serious</p>
                            <div style=""width:240px; margin: auto;"">
                                <img src=""images/gray_26.png"" style= ""width:200px""alt=""img"">
                            </div>
                        </div>","111","","0","images/gray_26.png","","","","serious"
"","","","","","html-slider-response","91","277942","0.0-85.0","202l13kq9g","NaN","<div style=""width:500px;"">
                            <p style=""font-size:50px; font-weight:bold;""
                            >serious</p>
                            <div style=""width:240px; margin: auto;"">
                                <img src=""images/gray_18.png"" style= ""width:200px""alt=""img"">
                            </div>
                        </div>","-105","","0","images/gray_18.png","","","","serious"
"","","","","","html-slider-response","92","279677","0.0-86.0","202l13kq9g","NaN","<div style=""width:500px;"">
                            <p style=""font-size:50px; font-weight:bold;""
                            >serious</p>
                            <div style=""width:240px; margin: auto;"">
                                <img src=""images/gray_32.png"" style= ""width:200px""alt=""img"">
                            </div>
                        </div>","94","","0","images/gray_32.png","","","","serious"
"","","","","","html-slider-response","93","281359","0.0-87.0","202l13kq9g","NaN","<div style=""width:500px;"">
                            <p style=""font-size:50px; font-weight:bold;""
                            >serious</p>
                            <div style=""width:240px; margin: auto;"">
                                <img src=""images/gray_05.png"" style= ""width:200px""alt=""img"">
                            </div>
                        </div>","132","","0","images/gray_05.png","","","","serious"
"","","","","","html-slider-response","94","283544","0.0-88.0","202l13kq9g","NaN","<div style=""width:500px;"">
                            <p style=""font-size:50px; font-weight:bold;""
                            >serious</p>
                            <div style=""width:240px; margin: auto;"">
                                <img src=""images/gray_42.png"" style= ""width:200px""alt=""img"">
                            </div>
                        </div>","200","","0","images/gray_42.png","","","","serious"
"","","","","","html-slider-response","95","285526","0.0-89.0","202l13kq9g","NaN","<div style=""width:500px;"">
                            <p style=""font-size:50px; font-weight:bold;""
                            >serious</p>
                            <div style=""width:240px; margin: auto;"">
                                <img src=""images/gray_44.png"" style= ""width:200px""alt=""img"">
                            </div>
                        </div>","200","","0","images/gray_44.png","","","","serious"
"","","","","","html-slider-response","96","287560","0.0-90.0","202l13kq9g","NaN","<div style=""width:500px;"">
                            <p style=""font-size:50px; font-weight:bold;""
                            >serious</p>
                            <div style=""width:240px; margin: auto;"">
                                <img src=""images/gray_15.png"" style= ""width:200px""alt=""img"">
                            </div>
                        </div>","190","","0","images/gray_15.png","","","","serious"
"","","","","","html-slider-response","97","291376","0.0-91.0","202l13kq9g","NaN","<div style=""width:500px;"">
                            <p style=""font-size:50px; font-weight:bold;""
                            >serious</p>
                            <div style=""width:240px; margin: auto;"">
                                <img src=""images/gray_24.png"" style= ""width:200px""alt=""img"">
                            </div>
                        </div>","-56","","0","images/gray_24.png","","","","serious"
"","","","","","html-slider-response","98","293708","0.0-92.0","202l13kq9g","NaN","<div style=""width:500px;"">
                            <p style=""font-size:50px; font-weight:bold;""
                            >serious</p>
                            <div style=""width:240px; margin: auto;"">
                                <img src=""images/gray_03.png"" style= ""width:200px""alt=""img"">
                            </div>
                        </div>","-134","","0","images/gray_03.png","","","","serious"
"","","","","","html-slider-response","99","296892","0.0-93.0","202l13kq9g","NaN","<div style=""width:500px;"">
                            <p style=""font-size:50px; font-weight:bold;""
                            >serious</p>
                            <div style=""width:240px; margin: auto;"">
                                <img src=""images/gray_22.png"" style= ""width:200px""alt=""img"">
                            </div>
                        </div>","-132","","0","images/gray_22.png","","","","serious"
"","","","","","html-slider-response","100","299426","0.0-94.0","202l13kq9g","NaN","<div style=""width:500px;"">
                            <p style=""font-size:50px; font-weight:bold;""
                            >serious</p>
                            <div style=""width:240px; margin: auto;"">
                                <img src=""images/gray_17.png"" style= ""width:200px""alt=""img"">
                            </div>
                        </div>","-57","","0","images/gray_17.png","","","","serious"
"","","","","","html-slider-response","101","301477","0.0-95.0","202l13kq9g","NaN","<div style=""width:500px;"">
                            <p style=""font-size:50px; font-weight:bold;""
                            >serious</p>
                            <div style=""width:240px; margin: auto;"">
                                <img src=""images/gray_27.png"" style= ""width:200px""alt=""img"">
                            </div>
                        </div>","200","","0","images/gray_27.png","","","","serious"
"","","","","","html-slider-response","102","303975","0.0-96.0","202l13kq9g","NaN","<div style=""width:500px;"">
                            <p style=""font-size:50px; font-weight:bold;""
                            >serious</p>
                            <div style=""width:240px; margin: auto;"">
                                <img src=""images/gray_39.png"" style= ""width:200px""alt=""img"">
                            </div>
                        </div>","-58","","0","images/gray_39.png","","","","serious"
"","","","","","html-slider-response","103","305841","0.0-97.0","202l13kq9g","NaN","<div style=""width:500px;"">
                            <p style=""font-size:50px; font-weight:bold;""
                            >serious</p>
                            <div style=""width:240px; margin: auto;"">
                                <img src=""images/gray_41.png"" style= ""width:200px""alt=""img"">
                            </div>
                        </div>","200","","0","images/gray_41.png","","","","serious"
"","","","","","html-slider-response","104","307910","0.0-98.0","202l13kq9g","NaN","<div style=""width:500px;"">
                            <p style=""font-size:50px; font-weight:bold;""
                            >serious</p>
                            <div style=""width:240px; margin: auto;"">
                                <img src=""images/gray_02.png"" style= ""width:200px""alt=""img"">
                            </div>
                        </div>","78","","0","images/gray_02.png","","","","serious"
"","","","","","html-slider-response","105","310426","0.0-99.0","202l13kq9g","NaN","<div style=""width:500px;"">
                            <p style=""font-size:50px; font-weight:bold;""
                            >serious</p>
                            <div style=""width:240px; margin: auto;"">
                                <img src=""images/gray_40.png"" style= ""width:200px""alt=""img"">
                            </div>
                        </div>","91","","0","images/gray_40.png","","","","serious"
"","","","","","html-slider-response","106","312695","0.0-100.0","202l13kq9g","NaN","<div style=""width:500px;"">
                            <p style=""font-size:50px; font-weight:bold;""
                            >serious</p>
                            <div style=""width:240px; margin: auto;"">
                                <img src=""images/gray_19.png"" style= ""width:200px""alt=""img"">
                            </div>
                        </div>","131","","0","images/gray_19.png","","","","serious"
"","","","","","html-slider-response","107","315177","0.0-101.0","202l13kq9g","NaN","<div style=""width:500px;"">
                            <p style=""font-size:50px; font-weight:bold;""
                            >serious</p>
                            <div style=""width:240px; margin: auto;"">
                                <img src=""images/gray_36.png"" style= ""width:200px""alt=""img"">
                            </div>
                        </div>","156","","0","images/gray_36.png","","","","serious"
"","","","","","html-slider-response","108","317309","0.0-102.0","202l13kq9g","NaN","<div style=""width:500px;"">
                            <p style=""font-size:50px; font-weight:bold;""
                            >serious</p>
                            <div style=""width:240px; margin: auto;"">
                                <img src=""images/gray_28.png"" style= ""width:200px""alt=""img"">
                            </div>
                        </div>","127","","0","images/gray_28.png","","","","serious"
"","","","","","html-slider-response","109","319343","0.0-103.0","202l13kq9g","NaN","<div style=""width:500px;"">
                            <p style=""font-size:50px; font-weight:bold;""
                            >serious</p>
                            <div style=""width:240px; margin: auto;"">
                                <img src=""images/gray_33.png"" style= ""width:200px""alt=""img"">
                            </div>
                        </div>","200","","0","images/gray_33.png","","","","serious"
"","","","","","html-button-response","110","320982","0.0-104.0","202l13kq9g","1135","<p>Great Job! You've finished block 2.<br></br> You have 6 block(s) left to go.<br></br></p>","0","","","","","","",""
"","","","","","html-button-response","111","322098","0.0-105.0","202l13kq9g","1114","<p>In this block of trials, you will be asked to rate how much you associate each map with:</p > <p style = 'font-size:150%; font-weight: bold'>disturbing</p><br></br>","0","","","","","","",""
"","","","","","html-slider-response","112","323511","0.0-106.0","202l13kq9g","NaN","<div style=""width:500px;"">
                            <p style=""font-size:50px; font-weight:bold;""
                            >disturbing</p>
                            <div style=""width:240px; margin: auto;"">
                                <img src=""images/gray_20.png"" style= ""width:200px""alt=""img"">
                            </div>
                        </div>","71","","0","images/gray_20.png","","","","disturbing"
"","","","","","html-slider-response","113","325095","0.0-107.0","202l13kq9g","NaN","<div style=""width:500px;"">
                            <p style=""font-size:50px; font-weight:bold;""
                            >disturbing</p>
                            <div style=""width:240px; margin: auto;"">
                                <img src=""images/gray_13.png"" style= ""width:200px""alt=""img"">
                            </div>
                        </div>","105","","0","images/gray_13.png","","","","disturbing"
"","","","","","html-slider-response","114","326759","0.0-108.0","202l13kq9g","NaN","<div style=""width:500px;"">
                            <p style=""font-size:50px; font-weight:bold;""
                            >disturbing</p>
                            <div style=""width:240px; margin: auto;"">
                                <img src=""images/gray_05.png"" style= ""width:200px""alt=""img"">
                            </div>
                        </div>","153","","0","images/gray_05.png","","","","disturbing"
"","","","","","html-slider-response","115","329326","0.0-109.0","202l13kq9g","NaN","<div style=""width:500px;"">
                            <p style=""font-size:50px; font-weight:bold;""
                            >disturbing</p>
                            <div style=""width:240px; margin: auto;"">
                                <img src=""images/gray_42.png"" style= ""width:200px""alt=""img"">
                            </div>
                        </div>","151","","0","images/gray_42.png","","","","disturbing"
"","","","","","html-slider-response","116","331976","0.0-110.0","202l13kq9g","NaN","<div style=""width:500px;"">
                            <p style=""font-size:50px; font-weight:bold;""
                            >disturbing</p>
                            <div style=""width:240px; margin: auto;"">
                                <img src=""images/gray_14.png"" style= ""width:200px""alt=""img"">
                            </div>
                        </div>","200","","0","images/gray_14.png","","","","disturbing"
"","","","","","html-slider-response","117","333794","0.0-111.0","202l13kq9g","NaN","<div style=""width:500px;"">
                            <p style=""font-size:50px; font-weight:bold;""
                            >disturbing</p>
                            <div style=""width:240px; margin: auto;"">
                                <img src=""images/gray_33.png"" style= ""width:200px""alt=""img"">
                            </div>
                        </div>","200","","0","images/gray_33.png","","","","disturbing"
"","","","","","html-slider-response","118","335827","0.0-112.0","202l13kq9g","NaN","<div style=""width:500px;"">
                            <p style=""font-size:50px; font-weight:bold;""
                            >disturbing</p>
                            <div style=""width:240px; margin: auto;"">
                                <img src=""images/gray_44.png"" style= ""width:200px""alt=""img"">
                            </div>
                        </div>","200","","0","images/gray_44.png","","","","disturbing"
"","","","","","html-slider-response","119","338109","0.0-113.0","202l13kq9g","NaN","<div style=""width:500px;"">
                            <p style=""font-size:50px; font-weight:bold;""
                            >disturbing</p>
                            <div style=""width:240px; margin: auto;"">
                                <img src=""images/gray_11.png"" style= ""width:200px""alt=""img"">
                            </div>
                        </div>","200","","0","images/gray_11.png","","","","disturbing"
"","","","","","html-slider-response","120","341593","0.0-114.0","202l13kq9g","NaN","<div style=""width:500px;"">
                            <p style=""font-size:50px; font-weight:bold;""
                            >disturbing</p>
                            <div style=""width:240px; margin: auto;"">
                                <img src=""images/gray_15.png"" style= ""width:200px""alt=""img"">
                            </div>
                        </div>","200","","0","images/gray_15.png","","","","disturbing"
"","","","","","html-slider-response","121","343476","0.0-115.0","202l13kq9g","NaN","<div style=""width:500px;"">
                            <p style=""font-size:50px; font-weight:bold;""
                            >disturbing</p>
                            <div style=""width:240px; margin: auto;"">
                                <img src=""images/gray_28.png"" style= ""width:200px""alt=""img"">
                            </div>
                        </div>","200","","0","images/gray_28.png","","","","disturbing"
"","","","","","html-slider-response","122","345876","0.0-116.0","202l13kq9g","NaN","<div style=""width:500px;"">
                            <p style=""font-size:50px; font-weight:bold;""
                            >disturbing</p>
                            <div style=""width:240px; margin: auto;"">
                                <img src=""images/gray_19.png"" style= ""width:200px""alt=""img"">
                            </div>
                        </div>","-20","","0","images/gray_19.png","","","","disturbing"
"","","","","","html-slider-response","123","347543","0.0-117.0","202l13kq9g","NaN","<div style=""width:500px;"">
                            <p style=""font-size:50px; font-weight:bold;""
                            >disturbing</p>
                            <div style=""width:240px; margin: auto;"">
                                <img src=""images/gray_38.png"" style= ""width:200px""alt=""img"">
                            </div>
                        </div>","200","","0","images/gray_38.png","","","","disturbing"
"","","","","","html-slider-response","124","349276","0.0-118.0","202l13kq9g","NaN","<div style=""width:500px;"">
                            <p style=""font-size:50px; font-weight:bold;""
                            >disturbing</p>
                            <div style=""width:240px; margin: auto;"">
                                <img src=""images/gray_02.png"" style= ""width:200px""alt=""img"">
                            </div>
                        </div>","200","","0","images/gray_02.png","","","","disturbing"
"","","","","","html-slider-response","125","351658","0.0-119.0","202l13kq9g","NaN","<div style=""width:500px;"">
                            <p style=""font-size:50px; font-weight:bold;""
                            >disturbing</p>
                            <div style=""width:240px; margin: auto;"">
                                <img src=""images/gray_21.png"" style= ""width:200px""alt=""img"">
                            </div>
                        </div>","200","","0","images/gray_21.png","","","","disturbing"
"","","","","","html-slider-response","126","353760","0.0-120.0","202l13kq9g","NaN","<div style=""width:500px;"">
                            <p style=""font-size:50px; font-weight:bold;""
                            >disturbing</p>
                            <div style=""width:240px; margin: auto;"">
                                <img src=""images/gray_31.png"" style= ""width:200px""alt=""img"">
                            </div>
                        </div>","-32","","0","images/gray_31.png","","","","disturbing"
"","","","","","html-slider-response","127","355779","0.0-121.0","202l13kq9g","NaN","<div style=""width:500px;"">
                            <p style=""font-size:50px; font-weight:bold;""
                            >disturbing</p>
                            <div style=""width:240px; margin: auto;"">
                                <img src=""images/gray_27.png"" style= ""width:200px""alt=""img"">
                            </div>
                        </div>","200","","0","images/gray_27.png","","","","disturbing"
"","","","","","html-slider-response","128","358292","0.0-122.0","202l13kq9g","NaN","<div style=""width:500px;"">
                            <p style=""font-size:50px; font-weight:bold;""
                            >disturbing</p>
                            <div style=""width:240px; margin: auto;"">
                                <img src=""images/gray_37.png"" style= ""width:200px""alt=""img"">
                            </div>
                        </div>","166","","0","images/gray_37.png","","","","disturbing"
"","","","","","html-slider-response","129","365094","0.0-123.0","202l13kq9g","NaN","<div style=""width:500px;"">
                            <p style=""font-size:50px; font-weight:bold;""
                            >disturbing</p>
                            <div style=""width:240px; margin: auto;"">
                                <img src=""images/gray_26.png"" style= ""width:200px""alt=""img"">
                            </div>
                        </div>","54","","0","images/gray_26.png","","","","disturbing"
"","","","","","html-slider-response","130","366992","0.0-124.0","202l13kq9g","NaN","<div style=""width:500px;"">
                            <p style=""font-size:50px; font-weight:bold;""
                            >disturbing</p>
                            <div style=""width:240px; margin: auto;"">
                                <img src=""images/gray_08.png"" style= ""width:200px""alt=""img"">
                            </div>
                        </div>","138","","0","images/gray_08.png","","","","disturbing"
"","","","","","html-slider-response","131","369442","0.0-125.0","202l13kq9g","NaN","<div style=""width:500px;"">
                            <p style=""font-size:50px; font-weight:bold;""
                            >disturbing</p>
                            <div style=""width:240px; margin: auto;"">
                                <img src=""images/gray_41.png"" style= ""width:200px""alt=""img"">
                            </div>
                        </div>","-40","","0","images/gray_41.png","","","","disturbing"
"","","","","","html-slider-response","132","371643","0.0-126.0","202l13kq9g","NaN","<div style=""width:500px;"">
                            <p style=""font-size:50px; font-weight:bold;""
                            >disturbing</p>
                            <div style=""width:240px; margin: auto;"">
                                <img src=""images/gray_36.png"" style= ""width:200px""alt=""img"">
                            </div>
                        </div>","102","","0","images/gray_36.png","","","","disturbing"
"","","","","","html-slider-response","133","373610","0.0-127.0","202l13kq9g","NaN","<div style=""width:500px;"">
                            <p style=""font-size:50px; font-weight:bold;""
                            >disturbing</p>
                            <div style=""width:240px; margin: auto;"">
                                <img src=""images/gray_35.png"" style= ""width:200px""alt=""img"">
                            </div>
                        </div>","142","","0","images/gray_35.png","","","","disturbing"
"","","","","","html-slider-response","134","379943","0.0-128.0","202l13kq9g","NaN","<div style=""width:500px;"">
                            <p style=""font-size:50px; font-weight:bold;""
                            >disturbing</p>
                            <div style=""width:240px; margin: auto;"">
                                <img src=""images/gray_04.png"" style= ""width:200px""alt=""img"">
                            </div>
                        </div>","70","","0","images/gray_04.png","","","","disturbing"
"","","","","","html-slider-response","135","381877","0.0-129.0","202l13kq9g","NaN","<div style=""width:500px;"">
                            <p style=""font-size:50px; font-weight:bold;""
                            >disturbing</p>
                            <div style=""width:240px; margin: auto;"">
                                <img src=""images/gray_03.png"" style= ""width:200px""alt=""img"">
                            </div>
                        </div>","26","","0","images/gray_03.png","","","","disturbing"
"","","","","","html-slider-response","136","384511","0.0-130.0","202l13kq9g","NaN","<div style=""width:500px;"">
                            <p style=""font-size:50px; font-weight:bold;""
                            >disturbing</p>
                            <div style=""width:240px; margin: auto;"">
                                <img src=""images/gray_40.png"" style= ""width:200px""alt=""img"">
                            </div>
                        </div>","-13","","0","images/gray_40.png","","","","disturbing"
"","","","","","html-slider-response","137","386692","0.0-131.0","202l13kq9g","NaN","<div style=""width:500px;"">
                            <p style=""font-size:50px; font-weight:bold;""
                            >disturbing</p>
                            <div style=""width:240px; margin: auto;"">
                                <img src=""images/gray_10.png"" style= ""width:200px""alt=""img"">
                            </div>
                        </div>","62","","0","images/gray_10.png","","","","disturbing"
"","","","","","html-slider-response","138","389245","0.0-132.0","202l13kq9g","NaN","<div style=""width:500px;"">
                            <p style=""font-size:50px; font-weight:bold;""
                            >disturbing</p>
                            <div style=""width:240px; margin: auto;"">
                                <img src=""images/gray_34.png"" style= ""width:200px""alt=""img"">
                            </div>
                        </div>","97","","0","images/gray_34.png","","","","disturbing"
"","","","","","html-slider-response","139","391478","0.0-133.0","202l13kq9g","NaN","<div style=""width:500px;"">
                            <p style=""font-size:50px; font-weight:bold;""
                            >disturbing</p>
                            <div style=""width:240px; margin: auto;"">
                                <img src=""images/gray_06.png"" style= ""width:200px""alt=""img"">
                            </div>
                        </div>","100","","0","images/gray_06.png","","","","disturbing"
"","","","","","html-slider-response","140","394662","0.0-134.0","202l13kq9g","NaN","<div style=""width:500px;"">
                            <p style=""font-size:50px; font-weight:bold;""
                            >disturbing</p>
                            <div style=""width:240px; margin: auto;"">
                                <img src=""images/gray_39.png"" style= ""width:200px""alt=""img"">
                            </div>
                        </div>","-155","","0","images/gray_39.png","","","","disturbing"
"","","","","","html-slider-response","141","396644","0.0-135.0","202l13kq9g","NaN","<div style=""width:500px;"">
                            <p style=""font-size:50px; font-weight:bold;""
                            >disturbing</p>
                            <div style=""width:240px; margin: auto;"">
                                <img src=""images/gray_07.png"" style= ""width:200px""alt=""img"">
                            </div>
                        </div>","146","","0","images/gray_07.png","","","","disturbing"
"","","","","","html-slider-response","142","398827","0.0-136.0","202l13kq9g","NaN","<div style=""width:500px;"">
                            <p style=""font-size:50px; font-weight:bold;""
                            >disturbing</p>
                            <div style=""width:240px; margin: auto;"">
                                <img src=""images/gray_29.png"" style= ""width:200px""alt=""img"">
                            </div>
                        </div>","54","","0","images/gray_29.png","","","","disturbing"
"","","","","","html-slider-response","143","400777","0.0-137.0","202l13kq9g","NaN","<div style=""width:500px;"">
                            <p style=""font-size:50px; font-weight:bold;""
                            >disturbing</p>
                            <div style=""width:240px; margin: auto;"">
                                <img src=""images/gray_24.png"" style= ""width:200px""alt=""img"">
                            </div>
                        </div>","42","","0","images/gray_24.png","","","","disturbing"
"","","","","","html-slider-response","144","402543","0.0-138.0","202l13kq9g","NaN","<div style=""width:500px;"">
                            <p style=""font-size:50px; font-weight:bold;""
                            >disturbing</p>
                            <div style=""width:240px; margin: auto;"">
                                <img src=""images/gray_09.png"" style= ""width:200px""alt=""img"">
                            </div>
                        </div>","42","","0","images/gray_09.png","","","","disturbing"
"","","","","","html-slider-response","145","404361","0.0-139.0","202l13kq9g","NaN","<div style=""width:500px;"">
                            <p style=""font-size:50px; font-weight:bold;""
                            >disturbing</p>
                            <div style=""width:240px; margin: auto;"">
                                <img src=""images/gray_30.png"" style= ""width:200px""alt=""img"">
                            </div>
                        </div>","121","","0","images/gray_30.png","","","","disturbing"
"","","","","","html-slider-response","146","406411","0.0-140.0","202l13kq9g","NaN","<div style=""width:500px;"">
                            <p style=""font-size:50px; font-weight:bold;""
                            >disturbing</p>
                            <div style=""width:240px; margin: auto;"">
                                <img src=""images/gray_43.png"" style= ""width:200px""alt=""img"">
                            </div>
                        </div>","46","","0","images/gray_43.png","","","","disturbing"
"","","","","","html-slider-response","147","408194","0.0-141.0","202l13kq9g","NaN","<div style=""width:500px;"">
                            <p style=""font-size:50px; font-weight:bold;""
                            >disturbing</p>
                            <div style=""width:240px; margin: auto;"">
                                <img src=""images/gray_17.png"" style= ""width:200px""alt=""img"">
                            </div>
                        </div>","128","","0","images/gray_17.png","","","","disturbing"
"","","","","","html-slider-response","148","409996","0.0-142.0","202l13kq9g","NaN","<div style=""width:500px;"">
                            <p style=""font-size:50px; font-weight:bold;""
                            >disturbing</p>
                            <div style=""width:240px; margin: auto;"">
                                <img src=""images/gray_22.png"" style= ""width:200px""alt=""img"">
                            </div>
                        </div>","106","","0","images/gray_22.png","","","","disturbing"
"","","","","","html-slider-response","149","413064","0.0-143.0","202l13kq9g","NaN","<div style=""width:500px;"">
                            <p style=""font-size:50px; font-weight:bold;""
                            >disturbing</p>
                            <div style=""width:240px; margin: auto;"">
                                <img src=""images/gray_12.png"" style= ""width:200px""alt=""img"">
                            </div>
                        </div>","-67","","0","images/gray_12.png","","","","disturbing"
"","","","","","html-slider-response","150","417493","0.0-144.0","202l13kq9g","NaN","<div style=""width:500px;"">
                            <p style=""font-size:50px; font-weight:bold;""
                            >disturbing</p>
                            <div style=""width:240px; margin: auto;"">
                                <img src=""images/gray_18.png"" style= ""width:200px""alt=""img"">
                            </div>
                        </div>","-46","","0","images/gray_18.png","","","","disturbing"
"","","","","","html-slider-response","151","419209","0.0-145.0","202l13kq9g","NaN","<div style=""width:500px;"">
                            <p style=""font-size:50px; font-weight:bold;""
                            >disturbing</p>
                            <div style=""width:240px; margin: auto;"">
                                <img src=""images/gray_23.png"" style= ""width:200px""alt=""img"">
                            </div>
                        </div>","82","","0","images/gray_23.png","","","","disturbing"
"","","","","","html-slider-response","152","421060","0.0-146.0","202l13kq9g","NaN","<div style=""width:500px;"">
                            <p style=""font-size:50px; font-weight:bold;""
                            >disturbing</p>
                            <div style=""width:240px; margin: auto;"">
                                <img src=""images/gray_16.png"" style= ""width:200px""alt=""img"">
                            </div>
                        </div>","162","","0","images/gray_16.png","","","","disturbing"
"","","","","","html-slider-response","153","423044","0.0-147.0","202l13kq9g","NaN","<div style=""width:500px;"">
                            <p style=""font-size:50px; font-weight:bold;""
                            >disturbing</p>
                            <div style=""width:240px; margin: auto;"">
                                <img src=""images/gray_32.png"" style= ""width:200px""alt=""img"">
                            </div>
                        </div>","48","","0","images/gray_32.png","","","","disturbing"
"","","","","","html-slider-response","154","426962","0.0-148.0","202l13kq9g","NaN","<div style=""width:500px;"">
                            <p style=""font-size:50px; font-weight:bold;""
                            >disturbing</p>
                            <div style=""width:240px; margin: auto;"">
                                <img src=""images/gray_25.png"" style= ""width:200px""alt=""img"">
                            </div>
                        </div>","85","","0","images/gray_25.png","","","","disturbing"
"","","","","","html-slider-response","155","429860","0.0-149.0","202l13kq9g","NaN","<div style=""width:500px;"">
                            <p style=""font-size:50px; font-weight:bold;""
                            >disturbing</p>
                            <div style=""width:240px; margin: auto;"">
                                <img src=""images/gray_01.png"" style= ""width:200px""alt=""img"">
                            </div>
                        </div>","-83","","0","images/gray_01.png","","","","disturbing"
"","","","","","html-button-response","156","431366","0.0-150.0","202l13kq9g","1003","<p>Great Job! You've finished block 3.<br></br> You have 5 block(s) left to go.<br></br></p>","0","","","","","","",""
"","","","","","html-button-response","157","432333","0.0-151.0","202l13kq9g","966","<p>In this block of trials, you will be asked to rate how much you associate each map with:</p > <p style = 'font-size:150%; font-weight: bold'>playful</p><br></br>","0","","","","","","",""
"","","","","","html-slider-response","158","434611","0.0-152.0","202l13kq9g","NaN","<div style=""width:500px;"">
                            <p style=""font-size:50px; font-weight:bold;""
                            >playful</p>
                            <div style=""width:240px; margin: auto;"">
                                <img src=""images/gray_32.png"" style= ""width:200px""alt=""img"">
                            </div>
                        </div>","-51","","0","images/gray_32.png","","","","playful"
"","","","","","html-slider-response","159","436444","0.0-153.0","202l13kq9g","NaN","<div style=""width:500px;"">
                            <p style=""font-size:50px; font-weight:bold;""
                            >playful</p>
                            <div style=""width:240px; margin: auto;"">
                                <img src=""images/gray_04.png"" style= ""width:200px""alt=""img"">
                            </div>
                        </div>","-80","","0","images/gray_04.png","","","","playful"
"","","","","","html-slider-response","160","438443","0.0-154.0","202l13kq9g","NaN","<div style=""width:500px;"">
                            <p style=""font-size:50px; font-weight:bold;""
                            >playful</p>
                            <div style=""width:240px; margin: auto;"">
                                <img src=""images/gray_12.png"" style= ""width:200px""alt=""img"">
                            </div>
                        </div>","-103","","0","images/gray_12.png","","","","playful"
"","","","","","html-slider-response","161","440646","0.0-155.0","202l13kq9g","NaN","<div style=""width:500px;"">
                            <p style=""font-size:50px; font-weight:bold;""
                            >playful</p>
                            <div style=""width:240px; margin: auto;"">
                                <img src=""images/gray_21.png"" style= ""width:200px""alt=""img"">
                            </div>
                        </div>","48","","0","images/gray_21.png","","","","playful"
"","","","","","html-slider-response","162","442459","0.0-156.0","202l13kq9g","NaN","<div style=""width:500px;"">
                            <p style=""font-size:50px; font-weight:bold;""
                            >playful</p>
                            <div style=""width:240px; margin: auto;"">
                                <img src=""images/gray_16.png"" style= ""width:200px""alt=""img"">
                            </div>
                        </div>","-123","","0","images/gray_16.png","","","","playful"
"","","","","","html-slider-response","163","444192","0.0-157.0","202l13kq9g","NaN","<div style=""width:500px;"">
                            <p style=""font-size:50px; font-weight:bold;""
                            >playful</p>
                            <div style=""width:240px; margin: auto;"">
                                <img src=""images/gray_17.png"" style= ""width:200px""alt=""img"">
                            </div>
                        </div>","-42","","0","images/gray_17.png","","","","playful"
"","","","","","html-slider-response","164","445977","0.0-158.0","202l13kq9g","NaN","<div style=""width:500px;"">
                            <p style=""font-size:50px; font-weight:bold;""
                            >playful</p>
                            <div style=""width:240px; margin: auto;"">
                                <img src=""images/gray_02.png"" style= ""width:200px""alt=""img"">
                            </div>
                        </div>","-60","","0","images/gray_02.png","","","","playful"
"","","","","","html-slider-response","165","447696","0.0-159.0","202l13kq9g","NaN","<div style=""width:500px;"">
                            <p style=""font-size:50px; font-weight:bold;""
                            >playful</p>
                            <div style=""width:240px; margin: auto;"">
                                <img src=""images/gray_27.png"" style= ""width:200px""alt=""img"">
                            </div>
                        </div>","-68","","0","images/gray_27.png","","","","playful"
"","","","","","html-slider-response","166","449827","0.0-160.0","202l13kq9g","NaN","<div style=""width:500px;"">
                            <p style=""font-size:50px; font-weight:bold;""
                            >playful</p>
                            <div style=""width:240px; margin: auto;"">
                                <img src=""images/gray_31.png"" style= ""width:200px""alt=""img"">
                            </div>
                        </div>","34","","0","images/gray_31.png","","","","playful"
"","","","","","html-slider-response","167","451228","0.0-161.0","202l13kq9g","NaN","<div style=""width:500px;"">
                            <p style=""font-size:50px; font-weight:bold;""
                            >playful</p>
                            <div style=""width:240px; margin: auto;"">
                                <img src=""images/gray_26.png"" style= ""width:200px""alt=""img"">
                            </div>
                        </div>","-62","","0","images/gray_26.png","","","","playful"
"","","","","","html-slider-response","168","452861","0.0-162.0","202l13kq9g","NaN","<div style=""width:500px;"">
                            <p style=""font-size:50px; font-weight:bold;""
                            >playful</p>
                            <div style=""width:240px; margin: auto;"">
                                <img src=""images/gray_05.png"" style= ""width:200px""alt=""img"">
                            </div>
                        </div>","-73","","0","images/gray_05.png","","","","playful"
"","","","","","html-slider-response","169","456410","0.0-163.0","202l13kq9g","NaN","<div style=""width:500px;"">
                            <p style=""font-size:50px; font-weight:bold;""
                            >playful</p>
                            <div style=""width:240px; margin: auto;"">
                                <img src=""images/gray_39.png"" style= ""width:200px""alt=""img"">
                            </div>
                        </div>","7","","0","images/gray_39.png","","","","playful"
"","","","","","html-slider-response","170","459511","0.0-164.0","202l13kq9g","NaN","<div style=""width:500px;"">
                            <p style=""font-size:50px; font-weight:bold;""
                            >playful</p>
                            <div style=""width:240px; margin: auto;"">
                                <img src=""images/gray_29.png"" style= ""width:200px""alt=""img"">
                            </div>
                        </div>","72","","0","images/gray_29.png","","","","playful"
"","","","","","html-slider-response","171","461393","0.0-165.0","202l13kq9g","NaN","<div style=""width:500px;"">
                            <p style=""font-size:50px; font-weight:bold;""
                            >playful</p>
                            <div style=""width:240px; margin: auto;"">
                                <img src=""images/gray_07.png"" style= ""width:200px""alt=""img"">
                            </div>
                        </div>","-70","","0","images/gray_07.png","","","","playful"
"","","","","","html-slider-response","172","464944","0.0-166.0","202l13kq9g","NaN","<div style=""width:500px;"">
                            <p style=""font-size:50px; font-weight:bold;""
                            >playful</p>
                            <div style=""width:240px; margin: auto;"">
                                <img src=""images/gray_15.png"" style= ""width:200px""alt=""img"">
                            </div>
                        </div>","38","","0","images/gray_15.png","","","","playful"
"","","","","","html-slider-response","173","467343","0.0-167.0","202l13kq9g","NaN","<div style=""width:500px;"">
                            <p style=""font-size:50px; font-weight:bold;""
                            >playful</p>
                            <div style=""width:240px; margin: auto;"">
                                <img src=""images/gray_25.png"" style= ""width:200px""alt=""img"">
                            </div>
                        </div>","-108","","0","images/gray_25.png","","","","playful"
"","","","","","html-slider-response","174","472677","0.0-168.0","202l13kq9g","NaN","<div style=""width:500px;"">
                            <p style=""font-size:50px; font-weight:bold;""
                            >playful</p>
                            <div style=""width:240px; margin: auto;"">
                                <img src=""images/gray_03.png"" style= ""width:200px""alt=""img"">
                            </div>
                        </div>","-44","","0","images/gray_03.png","","","","playful"
"","","","","","html-slider-response","175","475411","0.0-169.0","202l13kq9g","NaN","<div style=""width:500px;"">
                            <p style=""font-size:50px; font-weight:bold;""
                            >playful</p>
                            <div style=""width:240px; margin: auto;"">
                                <img src=""images/gray_19.png"" style= ""width:200px""alt=""img"">
                            </div>
                        </div>","34","","0","images/gray_19.png","","","","playful"
"","","","","","html-slider-response","176","477243","0.0-170.0","202l13kq9g","NaN","<div style=""width:500px;"">
                            <p style=""font-size:50px; font-weight:bold;""
                            >playful</p>
                            <div style=""width:240px; margin: auto;"">
                                <img src=""images/gray_11.png"" style= ""width:200px""alt=""img"">
                            </div>
                        </div>","-121","","0","images/gray_11.png","","","","playful"
"","","","","","html-slider-response","177","479245","0.0-171.0","202l13kq9g","NaN","<div style=""width:500px;"">
                            <p style=""font-size:50px; font-weight:bold;""
                            >playful</p>
                            <div style=""width:240px; margin: auto;"">
                                <img src=""images/gray_38.png"" style= ""width:200px""alt=""img"">
                            </div>
                        </div>","38","","0","images/gray_38.png","","","","playful"
"","","","","","html-slider-response","178","481127","0.0-172.0","202l13kq9g","NaN","<div style=""width:500px;"">
                            <p style=""font-size:50px; font-weight:bold;""
                            >playful</p>
                            <div style=""width:240px; margin: auto;"">
                                <img src=""images/gray_33.png"" style= ""width:200px""alt=""img"">
                            </div>
                        </div>","-158","","0","images/gray_33.png","","","","playful"
"","","","","","html-slider-response","179","483127","0.0-173.0","202l13kq9g","NaN","<div style=""width:500px;"">
                            <p style=""font-size:50px; font-weight:bold;""
                            >playful</p>
                            <div style=""width:240px; margin: auto;"">
                                <img src=""images/gray_41.png"" style= ""width:200px""alt=""img"">
                            </div>
                        </div>","-93","","0","images/gray_41.png","","","","playful"
"","","","","","html-slider-response","180","487012","0.0-174.0","202l13kq9g","NaN","<div style=""width:500px;"">
                            <p style=""font-size:50px; font-weight:bold;""
                            >playful</p>
                            <div style=""width:240px; margin: auto;"">
                                <img src=""images/gray_43.png"" style= ""width:200px""alt=""img"">
                            </div>
                        </div>","14","","0","images/gray_43.png","","","","playful"
"","","","","","html-slider-response","181","489160","0.0-175.0","202l13kq9g","NaN","<div style=""width:500px;"">
                            <p style=""font-size:50px; font-weight:bold;""
                            >playful</p>
                            <div style=""width:240px; margin: auto;"">
                                <img src=""images/gray_44.png"" style= ""width:200px""alt=""img"">
                            </div>
                        </div>","-30","","0","images/gray_44.png","","","","playful"
"","","","","","html-slider-response","182","491094","0.0-176.0","202l13kq9g","NaN","<div style=""width:500px;"">
                            <p style=""font-size:50px; font-weight:bold;""
                            >playful</p>
                            <div style=""width:240px; margin: auto;"">
                                <img src=""images/gray_34.png"" style= ""width:200px""alt=""img"">
                            </div>
                        </div>","26","","0","images/gray_34.png","","","","playful"
"","","","","","html-slider-response","183","493177","0.0-177.0","202l13kq9g","NaN","<div style=""width:500px;"">
                            <p style=""font-size:50px; font-weight:bold;""
                            >playful</p>
                            <div style=""width:240px; margin: auto;"">
                                <img src=""images/gray_14.png"" style= ""width:200px""alt=""img"">
                            </div>
                        </div>","-68","","0","images/gray_14.png","","","","playful"
"","","","","","html-slider-response","184","495412","0.0-178.0","202l13kq9g","NaN","<div style=""width:500px;"">
                            <p style=""font-size:50px; font-weight:bold;""
                            >playful</p>
                            <div style=""width:240px; margin: auto;"">
                                <img src=""images/gray_01.png"" style= ""width:200px""alt=""img"">
                            </div>
                        </div>","-71","","0","images/gray_01.png","","","","playful"
"","","","","","html-slider-response","185","497594","0.0-179.0","202l13kq9g","NaN","<div style=""width:500px;"">
                            <p style=""font-size:50px; font-weight:bold;""
                            >playful</p>
                            <div style=""width:240px; margin: auto;"">
                                <img src=""images/gray_36.png"" style= ""width:200px""alt=""img"">
                            </div>
                        </div>","30","","0","images/gray_36.png","","","","playful"
"","","","","","html-slider-response","186","499927","0.0-180.0","202l13kq9g","NaN","<div style=""width:500px;"">
                            <p style=""font-size:50px; font-weight:bold;""
                            >playful</p>
                            <div style=""width:240px; margin: auto;"">
                                <img src=""images/gray_28.png"" style= ""width:200px""alt=""img"">
                            </div>
                        </div>","-45","","0","images/gray_28.png","","","","playful"
"","","","","","html-slider-response","187","501828","0.0-181.0","202l13kq9g","NaN","<div style=""width:500px;"">
                            <p style=""font-size:50px; font-weight:bold;""
                            >playful</p>
                            <div style=""width:240px; margin: auto;"">
                                <img src=""images/gray_40.png"" style= ""width:200px""alt=""img"">
                            </div>
                        </div>","-41","","0","images/gray_40.png","","","","playful"
"","","","","","html-slider-response","188","504927","0.0-182.0","202l13kq9g","NaN","<div style=""width:500px;"">
                            <p style=""font-size:50px; font-weight:bold;""
                            >playful</p>
                            <div style=""width:240px; margin: auto;"">
                                <img src=""images/gray_20.png"" style= ""width:200px""alt=""img"">
                            </div>
                        </div>","-30","","0","images/gray_20.png","","","","playful"
"","","","","","html-slider-response","189","507377","0.0-183.0","202l13kq9g","NaN","<div style=""width:500px;"">
                            <p style=""font-size:50px; font-weight:bold;""
                            >playful</p>
                            <div style=""width:240px; margin: auto;"">
                                <img src=""images/gray_22.png"" style= ""width:200px""alt=""img"">
                            </div>
                        </div>","-110","","0","images/gray_22.png","","","","playful"
"","","","","","html-slider-response","190","509596","0.0-184.0","202l13kq9g","NaN","<div style=""width:500px;"">
                            <p style=""font-size:50px; font-weight:bold;""
                            >playful</p>
                            <div style=""width:240px; margin: auto;"">
                                <img src=""images/gray_08.png"" style= ""width:200px""alt=""img"">
                            </div>
                        </div>","-90","","0","images/gray_08.png","","","","playful"
"","","","","","html-slider-response","191","512195","0.0-185.0","202l13kq9g","NaN","<div style=""width:500px;"">
                            <p style=""font-size:50px; font-weight:bold;""
                            >playful</p>
                            <div style=""width:240px; margin: auto;"">
                                <img src=""images/gray_13.png"" style= ""width:200px""alt=""img"">
                            </div>
                        </div>","-39","","0","images/gray_13.png","","","","playful"
"","","","","","html-slider-response","192","514294","0.0-186.0","202l13kq9g","NaN","<div style=""width:500px;"">
                            <p style=""font-size:50px; font-weight:bold;""
                            >playful</p>
                            <div style=""width:240px; margin: auto;"">
                                <img src=""images/gray_24.png"" style= ""width:200px""alt=""img"">
                            </div>
                        </div>","-104","","0","images/gray_24.png","","","","playful"
"","","","","","html-slider-response","193","516595","0.0-187.0","202l13kq9g","NaN","<div style=""width:500px;"">
                            <p style=""font-size:50px; font-weight:bold;""
                            >playful</p>
                            <div style=""width:240px; margin: auto;"">
                                <img src=""images/gray_37.png"" style= ""width:200px""alt=""img"">
                            </div>
                        </div>","-52","","0","images/gray_37.png","","","","playful"
"","","","","","html-slider-response","194","518611","0.0-188.0","202l13kq9g","NaN","<div style=""width:500px;"">
                            <p style=""font-size:50px; font-weight:bold;""
                            >playful</p>
                            <div style=""width:240px; margin: auto;"">
                                <img src=""images/gray_30.png"" style= ""width:200px""alt=""img"">
                            </div>
                        </div>","-74","","0","images/gray_30.png","","","","playful"
"","","","","","html-slider-response","195","520877","0.0-189.0","202l13kq9g","NaN","<div style=""width:500px;"">
                            <p style=""font-size:50px; font-weight:bold;""
                            >playful</p>
                            <div style=""width:240px; margin: auto;"">
                                <img src=""images/gray_09.png"" style= ""width:200px""alt=""img"">
                            </div>
                        </div>","26","","0","images/gray_09.png","","","","playful"
"","","","","","html-slider-response","196","523194","0.0-190.0","202l13kq9g","NaN","<div style=""width:500px;"">
                            <p style=""font-size:50px; font-weight:bold;""
                            >playful</p>
                            <div style=""width:240px; margin: auto;"">
                                <img src=""images/gray_35.png"" style= ""width:200px""alt=""img"">
                            </div>
                        </div>","49","","0","images/gray_35.png","","","","playful"
"","","","","","html-slider-response","197","525364","0.0-191.0","202l13kq9g","NaN","<div style=""width:500px;"">
                            <p style=""font-size:50px; font-weight:bold;""
                            >playful</p>
                            <div style=""width:240px; margin: auto;"">
                                <img src=""images/gray_10.png"" style= ""width:200px""alt=""img"">
                            </div>
                        </div>","-141","","0","images/gray_10.png","","","","playful"
"","","","","","html-slider-response","198","528494","0.0-192.0","202l13kq9g","NaN","<div style=""width:500px;"">
                            <p style=""font-size:50px; font-weight:bold;""
                            >playful</p>
                            <div style=""width:240px; margin: auto;"">
                                <img src=""images/gray_18.png"" style= ""width:200px""alt=""img"">
                            </div>
                        </div>","-73","","0","images/gray_18.png","","","","playful"
