"success","timeout","failed_images","failed_audio","failed_video","trial_type","trial_index","time_elapsed","internal_node_id","subject_id","rt","stimulus","response","question_order","slider_start","image_path","practiceTrial","practiceTrialNum","correct","concept"
"true","false","[]","[]","[]","preload","0","822","0.0-0.0","33hku3uwa5","","","","","","","","","",""
"","","","","","html-button-response","1","3204","0.0-1.0","33hku3uwa5","2380","Welcome to our experiment!<p>At the bottom of this screen, you will see a button that says ""Begin Experiment"".<br>Please only click that button when you are ready to complete the 25 minute experiment in one sitting.</p><p> Once you click that button, it will not be possible to restart the experiment.","0","","","","","","",""
"true","","","","","fullscreen","2","5399","0.0-2.0","33hku3uwa5","1192","","","","","","","","",""
"","","","","","survey-multi-select","3","36738","0.0-3.0","33hku3uwa5","31336","","{""Consent"":[""<strong>I consent</strong>""]}","[0]","","","","","",""
"","","","","","html-button-response","4","41038","0.0-4.0","33hku3uwa5","4299","Welcome! <p> This experiment involves two parts: demographic information, followed by the experimental task.<p> It will take about 25 minutes to complete both parts.","0","","","","","","",""
"","","","","","survey-text","5","55062","0.0-5.0","33hku3uwa5","14006","","{""Age"":""19"",""Gender"":""Female"",""Race/ethnicity"":""White"",""Languages"":""English""}","","","","","","",""
"","","","","","html-slider-response","6","94982","0.0-6.0","33hku3uwa5","39918","
            <div style='text-align:left; font-size:20px; line-height:25px; width: 1200px;'>
                During this experiment you will be asked to rate how much you associate maps with    different concepts.<br> Below, you can see some examples of the maps you will be asked to rate. Next to the maps
    is the list of concepts.<br>You will be asked    to rate how much you associate each map with each concept on a scale from 'not at all' to 'very much' like the
    one below. <br><br>
    Now, please look at the list of concepts and maps. For each concept, think about the map you associate 'very
    much' with the concept.<br>     When you see that map during the experiment, please rate it near the 'very much' endpoint of the
    scale.<br>Now, please think about which map you associate 'not at all'     with each concept. When you see that map during the experiment, please rate it near the 'not at all' endpoint
    of the scale.<br>
    Please use the full range of the scale. That is, if a map is somewhat associated with the concept, you would
    click partway between the middle point and right side of the scale.    You will be asked to rate each map for a given concept before moving on to the next concept.<br><br>Press the
    'Continue' button for instructions on how to use the slider.    <br><br>
</div>

<div style=""width: 500px; margin: 0 auto;"">
    <div style=""text-align: left; width: 200px; float: left;"">
        <p style=""font-size:25px; line-height:18px;"">calm</p>
        <p style=""font-size:25px; line-height:18px;"">exciting</p>
        <p style=""font-size:25px;line-height:18px;"">positive</p>
        <p style=""font-size:25px;line-height:18px;"">negative</p>
        <p style=""font-size:25px;line-height:18px;"">serious</p>
        <p style=""font-size:25px;line-height:18px;"">playful</p>
        <p style=""font-size:25px;line-height:18px;"">trustworthy</p>
        <p style=""font-size:25px;line-height:18px;"">disturbing</p>
    </div>
    <div style=""width: 200px; float: right; padding-top:15px; padding-right:40px"">
        <br>
        <br>
        <img src=""maps_anchoring.png"" alt=""img"" style=""max-width:500px"">
    </div>
    <div style=""clear: both;""></div>
</div>
            ","null","","0","maps_anchoring.png","true","","",""
"","","","","","html-button-response","7","96894","0.0-7.0","33hku3uwa5","1910","<div style=""width:800px;""><p style=""text-align:left"">To move the slider, click and drag your cursor to the location of the scale where you would like to make your rating and then let go. When you let go of the slider, your response will be recorded and the next trial will begin. <br>
            We are interested in your initial impressions of each map for the given concept, so please go with your first intuition. <br>
            Before you begin the experiment, there will be four training trials for you to practice using the scale. <br>
             When you are ready to start the training trials, please click ""Continue"".</p><br></div>","0","","","","","","",""
"","","","","","html-slider-response","8","101003","0.0-8.0-0.0","33hku3uwa5","NaN","<div style=""width:500px;"">
                            <p style=""font-size:25px;"">Please move the slider all the way to the <br> right endpoint of the scale</p>

                            </div>
                        </div>","200","","0","","true","0","true",""
"","","","","","html-button-response","9","102512","0.0-8.0-1.0","33hku3uwa5","1007","<p align='center'><b>Good job!</b> Click on 'Continue' to proceed.</p>","0","","","","","","",""
"","","","","","html-slider-response","10","104049","0.0-9.0-0.0","33hku3uwa5","NaN","<div style=""width:500px;"">
                            <p style=""font-size:25px;"">Please move the slider all the way to the <br> left endpoint of the scale</p>

                            </div>
                        </div>","-200","","0","","true","1","true",""
"","","","","","html-button-response","11","105468","0.0-9.0-1.0","33hku3uwa5","917","<p align='center'><b>Good job!</b> Click on 'Continue' to proceed.</p>","0","","","","","","",""
"","","","","","html-slider-response","12","110142","0.0-10.0-0.0","33hku3uwa5","NaN","<div style=""width:500px;"">
                            <p style=""font-size:25px;"">Please move the slider halfway between the center and right endpoint of the scale</p>

                            </div>
                        </div>","0","","0","","true","2","false",""
"","","","","","html-button-response","13","112692","0.0-10.0-1.0","33hku3uwa5","2049","<p align='center'><b>Not quite!</b> The slider was not placed near the instructed located. Click on 'Continue' to try again. </p>","0","","","","","","",""
"","","","","","html-slider-response","14","117778","0.0-10.1-0.1","33hku3uwa5","NaN","<div style=""width:500px;"">
                            <p style=""font-size:25px;"">Please move the slider halfway between the center and right endpoint of the scale</p>

                            </div>
                        </div>","108","","0","","true","2","true",""
"","","","","","html-button-response","15","119067","0.0-10.1-1.1","33hku3uwa5","786","<p align='center'><b>Good job!</b> Click on 'Continue' to proceed.</p>","0","","","","","","",""
"","","","","","html-slider-response","16","121575","0.0-11.0-0.0","33hku3uwa5","NaN","<div style=""width:500px;"">
                            <p style=""font-size:25px;"">Please move the slider halfway between the center and left endpoint of the scale</p>

                            </div>
                        </div>","-107","","0","","true","3","true",""
"","","","","","html-button-response","17","123347","0.0-11.0-1.0","33hku3uwa5","1271","<p align='center'><b>Good job!</b> Click on 'Continue' to proceed.</p>","0","","","","","","",""
"","","","","","html-button-response","18","124075","0.0-12.0","33hku3uwa5","727","<p>Great job! You've completed the practice trials. Now you will begin the main task.</p>","0","","","","","","",""
"","","","","","html-button-response","19","150384","0.0-13.0","33hku3uwa5","26308","<p>In this block of trials, you will be asked to rate how much you associate each map with:</p > <p style = 'font-size:150%; font-weight: bold'>negative</p><br></br>","0","","","","","","",""
"","","","","","html-slider-response","20","155154","0.0-14.0","33hku3uwa5","NaN","<div style=""width:500px;"">
                            <p style=""font-size:50px; font-weight:bold;""
                            >negative</p>
                            <div style=""width:240px; margin: auto;"">
                                <img src=""images/gray_10.png"" style= ""width:200px""alt=""img"">
                            </div>
                        </div>","-198","","0","images/gray_10.png","","","","negative"
"","","","","","html-slider-response","21","158447","0.0-15.0","33hku3uwa5","NaN","<div style=""width:500px;"">
                            <p style=""font-size:50px; font-weight:bold;""
                            >negative</p>
                            <div style=""width:240px; margin: auto;"">
                                <img src=""images/gray_05.png"" style= ""width:200px""alt=""img"">
                            </div>
                        </div>","-194","","0","images/gray_05.png","","","","negative"
"","","","","","html-slider-response","22","160423","0.0-16.0","33hku3uwa5","NaN","<div style=""width:500px;"">
                            <p style=""font-size:50px; font-weight:bold;""
                            >negative</p>
                            <div style=""width:240px; margin: auto;"">
                                <img src=""images/gray_43.png"" style= ""width:200px""alt=""img"">
                            </div>
                        </div>","-179","","0","images/gray_43.png","","","","negative"
"","","","","","html-slider-response","23","162546","0.0-17.0","33hku3uwa5","NaN","<div style=""width:500px;"">
                            <p style=""font-size:50px; font-weight:bold;""
                            >negative</p>
                            <div style=""width:240px; margin: auto;"">
                                <img src=""images/gray_13.png"" style= ""width:200px""alt=""img"">
                            </div>
                        </div>","114","","0","images/gray_13.png","","","","negative"
"","","","","","html-slider-response","24","164482","0.0-18.0","33hku3uwa5","NaN","<div style=""width:500px;"">
                            <p style=""font-size:50px; font-weight:bold;""
                            >negative</p>
                            <div style=""width:240px; margin: auto;"">
                                <img src=""images/gray_06.png"" style= ""width:200px""alt=""img"">
                            </div>
                        </div>","51","","0","images/gray_06.png","","","","negative"
"","","","","","html-slider-response","25","166410","0.0-19.0","33hku3uwa5","NaN","<div style=""width:500px;"">
                            <p style=""font-size:50px; font-weight:bold;""
                            >negative</p>
                            <div style=""width:240px; margin: auto;"">
                                <img src=""images/gray_33.png"" style= ""width:200px""alt=""img"">
                            </div>
                        </div>","106","","0","images/gray_33.png","","","","negative"
"","","","","","html-slider-response","26","168344","0.0-20.0","33hku3uwa5","NaN","<div style=""width:500px;"">
                            <p style=""font-size:50px; font-weight:bold;""
                            >negative</p>
                            <div style=""width:240px; margin: auto;"">
                                <img src=""images/gray_28.png"" style= ""width:200px""alt=""img"">
                            </div>
                        </div>","114","","0","images/gray_28.png","","","","negative"
"","","","","","html-slider-response","27","170091","0.0-21.0","33hku3uwa5","NaN","<div style=""width:500px;"">
                            <p style=""font-size:50px; font-weight:bold;""
                            >negative</p>
                            <div style=""width:240px; margin: auto;"">
                                <img src=""images/gray_30.png"" style= ""width:200px""alt=""img"">
                            </div>
                        </div>","81","","0","images/gray_30.png","","","","negative"
"","","","","","html-slider-response","28","171917","0.0-22.0","33hku3uwa5","NaN","<div style=""width:500px;"">
                            <p style=""font-size:50px; font-weight:bold;""
                            >negative</p>
                            <div style=""width:240px; margin: auto;"">
                                <img src=""images/gray_11.png"" style= ""width:200px""alt=""img"">
                            </div>
                        </div>","200","","0","images/gray_11.png","","","","negative"
"","","","","","html-slider-response","29","173809","0.0-23.0","33hku3uwa5","NaN","<div style=""width:500px;"">
                            <p style=""font-size:50px; font-weight:bold;""
                            >negative</p>
                            <div style=""width:240px; margin: auto;"">
                                <img src=""images/gray_04.png"" style= ""width:200px""alt=""img"">
                            </div>
                        </div>","-34","","0","images/gray_04.png","","","","negative"
"","","","","","html-slider-response","30","175695","0.0-24.0","33hku3uwa5","NaN","<div style=""width:500px;"">
                            <p style=""font-size:50px; font-weight:bold;""
                            >negative</p>
                            <div style=""width:240px; margin: auto;"">
                                <img src=""images/gray_03.png"" style= ""width:200px""alt=""img"">
                            </div>
                        </div>","-31","","0","images/gray_03.png","","","","negative"
"","","","","","html-slider-response","31","177803","0.0-25.0","33hku3uwa5","NaN","<div style=""width:500px;"">
                            <p style=""font-size:50px; font-weight:bold;""
                            >negative</p>
                            <div style=""width:240px; margin: auto;"">
                                <img src=""images/gray_25.png"" style= ""width:200px""alt=""img"">
                            </div>
                        </div>","-113","","0","images/gray_25.png","","","","negative"
"","","","","","html-slider-response","32","179819","0.0-26.0","33hku3uwa5","NaN","<div style=""width:500px;"">
                            <p style=""font-size:50px; font-weight:bold;""
                            >negative</p>
                            <div style=""width:240px; margin: auto;"">
                                <img src=""images/gray_35.png"" style= ""width:200px""alt=""img"">
                            </div>
                        </div>","57","","0","images/gray_35.png","","","","negative"
"","","","","","html-slider-response","33","181764","0.0-27.0","33hku3uwa5","NaN","<div style=""width:500px;"">
                            <p style=""font-size:50px; font-weight:bold;""
                            >negative</p>
                            <div style=""width:240px; margin: auto;"">
                                <img src=""images/gray_22.png"" style= ""width:200px""alt=""img"">
                            </div>
                        </div>","-116","","0","images/gray_22.png","","","","negative"
"","","","","","html-slider-response","34","183398","0.0-28.0","33hku3uwa5","NaN","<div style=""width:500px;"">
                            <p style=""font-size:50px; font-weight:bold;""
                            >negative</p>
                            <div style=""width:240px; margin: auto;"">
                                <img src=""images/gray_08.png"" style= ""width:200px""alt=""img"">
                            </div>
                        </div>","104","","0","images/gray_08.png","","","","negative"
"","","","","","html-slider-response","35","185815","0.0-29.0","33hku3uwa5","NaN","<div style=""width:500px;"">
                            <p style=""font-size:50px; font-weight:bold;""
                            >negative</p>
                            <div style=""width:240px; margin: auto;"">
                                <img src=""images/gray_20.png"" style= ""width:200px""alt=""img"">
                            </div>
                        </div>","170","","0","images/gray_20.png","","","","negative"
"","","","","","html-slider-response","36","188029","0.0-30.0","33hku3uwa5","NaN","<div style=""width:500px;"">
                            <p style=""font-size:50px; font-weight:bold;""
                            >negative</p>
                            <div style=""width:240px; margin: auto;"">
                                <img src=""images/gray_39.png"" style= ""width:200px""alt=""img"">
                            </div>
                        </div>","-59","","0","images/gray_39.png","","","","negative"
"","","","","","html-slider-response","37","190219","0.0-31.0","33hku3uwa5","NaN","<div style=""width:500px;"">
                            <p style=""font-size:50px; font-weight:bold;""
                            >negative</p>
                            <div style=""width:240px; margin: auto;"">
                                <img src=""images/gray_36.png"" style= ""width:200px""alt=""img"">
                            </div>
                        </div>","187","","0","images/gray_36.png","","","","negative"
"","","","","","html-slider-response","38","192489","0.0-32.0","33hku3uwa5","NaN","<div style=""width:500px;"">
                            <p style=""font-size:50px; font-weight:bold;""
                            >negative</p>
                            <div style=""width:240px; margin: auto;"">
                                <img src=""images/gray_01.png"" style= ""width:200px""alt=""img"">
                            </div>
                        </div>","-133","","0","images/gray_01.png","","","","negative"
"","","","","","html-slider-response","39","194416","0.0-33.0","33hku3uwa5","NaN","<div style=""width:500px;"">
                            <p style=""font-size:50px; font-weight:bold;""
                            >negative</p>
                            <div style=""width:240px; margin: auto;"">
                                <img src=""images/gray_41.png"" style= ""width:200px""alt=""img"">
                            </div>
                        </div>","186","","0","images/gray_41.png","","","","negative"
"","","","","","html-slider-response","40","196385","0.0-34.0","33hku3uwa5","NaN","<div style=""width:500px;"">
                            <p style=""font-size:50px; font-weight:bold;""
                            >negative</p>
                            <div style=""width:240px; margin: auto;"">
                                <img src=""images/gray_32.png"" style= ""width:200px""alt=""img"">
                            </div>
                        </div>","-40","","0","images/gray_32.png","","","","negative"
"","","","","","html-slider-response","41","198363","0.0-35.0","33hku3uwa5","NaN","<div style=""width:500px;"">
                            <p style=""font-size:50px; font-weight:bold;""
                            >negative</p>
                            <div style=""width:240px; margin: auto;"">
                                <img src=""images/gray_16.png"" style= ""width:200px""alt=""img"">
                            </div>
                        </div>","-34","","0","images/gray_16.png","","","","negative"
"","","","","","html-slider-response","42","200754","0.0-36.0","33hku3uwa5","NaN","<div style=""width:500px;"">
                            <p style=""font-size:50px; font-weight:bold;""
                            >negative</p>
                            <div style=""width:240px; margin: auto;"">
                                <img src=""images/gray_29.png"" style= ""width:200px""alt=""img"">
                            </div>
                        </div>","-82","","0","images/gray_29.png","","","","negative"
"","","","","","html-slider-response","43","202820","0.0-37.0","33hku3uwa5","NaN","<div style=""width:500px;"">
                            <p style=""font-size:50px; font-weight:bold;""
                            >negative</p>
                            <div style=""width:240px; margin: auto;"">
                                <img src=""images/gray_44.png"" style= ""width:200px""alt=""img"">
                            </div>
                        </div>","-123","","0","images/gray_44.png","","","","negative"
"","","","","","html-slider-response","44","204617","0.0-38.0","33hku3uwa5","NaN","<div style=""width:500px;"">
                            <p style=""font-size:50px; font-weight:bold;""
                            >negative</p>
                            <div style=""width:240px; margin: auto;"">
                                <img src=""images/gray_17.png"" style= ""width:200px""alt=""img"">
                            </div>
                        </div>","-35","","0","images/gray_17.png","","","","negative"
"","","","","","html-slider-response","45","206439","0.0-39.0","33hku3uwa5","NaN","<div style=""width:500px;"">
                            <p style=""font-size:50px; font-weight:bold;""
                            >negative</p>
                            <div style=""width:240px; margin: auto;"">
                                <img src=""images/gray_18.png"" style= ""width:200px""alt=""img"">
                            </div>
                        </div>","-80","","0","images/gray_18.png","","","","negative"
"","","","","","html-slider-response","46","208326","0.0-40.0","33hku3uwa5","NaN","<div style=""width:500px;"">
                            <p style=""font-size:50px; font-weight:bold;""
                            >negative</p>
                            <div style=""width:240px; margin: auto;"">
                                <img src=""images/gray_38.png"" style= ""width:200px""alt=""img"">
                            </div>
                        </div>","49","","0","images/gray_38.png","","","","negative"
"","","","","","html-slider-response","47","210295","0.0-41.0","33hku3uwa5","NaN","<div style=""width:500px;"">
                            <p style=""font-size:50px; font-weight:bold;""
                            >negative</p>
                            <div style=""width:240px; margin: auto;"">
                                <img src=""images/gray_14.png"" style= ""width:200px""alt=""img"">
                            </div>
                        </div>","15","","0","images/gray_14.png","","","","negative"
"","","","","","html-slider-response","48","212318","0.0-42.0","33hku3uwa5","NaN","<div style=""width:500px;"">
                            <p style=""font-size:50px; font-weight:bold;""
                            >negative</p>
                            <div style=""width:240px; margin: auto;"">
                                <img src=""images/gray_37.png"" style= ""width:200px""alt=""img"">
                            </div>
                        </div>","26","","0","images/gray_37.png","","","","negative"
"","","","","","html-slider-response","49","214697","0.0-43.0","33hku3uwa5","NaN","<div style=""width:500px;"">
                            <p style=""font-size:50px; font-weight:bold;""
                            >negative</p>
                            <div style=""width:240px; margin: auto;"">
                                <img src=""images/gray_42.png"" style= ""width:200px""alt=""img"">
                            </div>
                        </div>","18","","0","images/gray_42.png","","","","negative"
"","","","","","html-slider-response","50","216273","0.0-44.0","33hku3uwa5","NaN","<div style=""width:500px;"">
                            <p style=""font-size:50px; font-weight:bold;""
                            >negative</p>
                            <div style=""width:240px; margin: auto;"">
                                <img src=""images/gray_26.png"" style= ""width:200px""alt=""img"">
                            </div>
                        </div>","22","","0","images/gray_26.png","","","","negative"
"","","","","","html-slider-response","51","218004","0.0-45.0","33hku3uwa5","NaN","<div style=""width:500px;"">
                            <p style=""font-size:50px; font-weight:bold;""
                            >negative</p>
                            <div style=""width:240px; margin: auto;"">
                                <img src=""images/gray_34.png"" style= ""width:200px""alt=""img"">
                            </div>
                        </div>","22","","0","images/gray_34.png","","","","negative"
"","","","","","html-slider-response","52","219540","0.0-46.0","33hku3uwa5","NaN","<div style=""width:500px;"">
                            <p style=""font-size:50px; font-weight:bold;""
                            >negative</p>
                            <div style=""width:240px; margin: auto;"">
                                <img src=""images/gray_02.png"" style= ""width:200px""alt=""img"">
                            </div>
                        </div>","25","","0","images/gray_02.png","","","","negative"
"","","","","","html-slider-response","53","221451","0.0-47.0","33hku3uwa5","NaN","<div style=""width:500px;"">
                            <p style=""font-size:50px; font-weight:bold;""
                            >negative</p>
                            <div style=""width:240px; margin: auto;"">
                                <img src=""images/gray_27.png"" style= ""width:200px""alt=""img"">
                            </div>
                        </div>","35","","0","images/gray_27.png","","","","negative"
"","","","","","html-slider-response","54","223444","0.0-48.0","33hku3uwa5","NaN","<div style=""width:500px;"">
                            <p style=""font-size:50px; font-weight:bold;""
                            >negative</p>
                            <div style=""width:240px; margin: auto;"">
                                <img src=""images/gray_31.png"" style= ""width:200px""alt=""img"">
                            </div>
                        </div>","-45","","0","images/gray_31.png","","","","negative"
"","","","","","html-slider-response","55","225322","0.0-49.0","33hku3uwa5","NaN","<div style=""width:500px;"">
                            <p style=""font-size:50px; font-weight:bold;""
                            >negative</p>
                            <div style=""width:240px; margin: auto;"">
                                <img src=""images/gray_19.png"" style= ""width:200px""alt=""img"">
                            </div>
                        </div>","-56","","0","images/gray_19.png","","","","negative"
"","","","","","html-slider-response","56","227454","0.0-50.0","33hku3uwa5","NaN","<div style=""width:500px;"">
                            <p style=""font-size:50px; font-weight:bold;""
                            >negative</p>
                            <div style=""width:240px; margin: auto;"">
                                <img src=""images/gray_07.png"" style= ""width:200px""alt=""img"">
                            </div>
                        </div>","193","","0","images/gray_07.png","","","","negative"
"","","","","","html-slider-response","57","229405","0.0-51.0","33hku3uwa5","NaN","<div style=""width:500px;"">
                            <p style=""font-size:50px; font-weight:bold;""
                            >negative</p>
                            <div style=""width:240px; margin: auto;"">
                                <img src=""images/gray_15.png"" style= ""width:200px""alt=""img"">
                            </div>
                        </div>","200","","0","images/gray_15.png","","","","negative"
"","","","","","html-slider-response","58","231147","0.0-52.0","33hku3uwa5","NaN","<div style=""width:500px;"">
                            <p style=""font-size:50px; font-weight:bold;""
                            >negative</p>
                            <div style=""width:240px; margin: auto;"">
                                <img src=""images/gray_24.png"" style= ""width:200px""alt=""img"">
                            </div>
                        </div>","101","","0","images/gray_24.png","","","","negative"
"","","","","","html-slider-response","59","232893","0.0-53.0","33hku3uwa5","NaN","<div style=""width:500px;"">
                            <p style=""font-size:50px; font-weight:bold;""
                            >negative</p>
                            <div style=""width:240px; margin: auto;"">
                                <img src=""images/gray_12.png"" style= ""width:200px""alt=""img"">
                            </div>
                        </div>","113","","0","images/gray_12.png","","","","negative"
"","","","","","html-slider-response","60","234290","0.0-54.0","33hku3uwa5","NaN","<div style=""width:500px;"">
                            <p style=""font-size:50px; font-weight:bold;""
                            >negative</p>
                            <div style=""width:240px; margin: auto;"">
                                <img src=""images/gray_09.png"" style= ""width:200px""alt=""img"">
                            </div>
                        </div>","97","","0","images/gray_09.png","","","","negative"
"","","","","","html-slider-response","61","236022","0.0-55.0","33hku3uwa5","NaN","<div style=""width:500px;"">
                            <p style=""font-size:50px; font-weight:bold;""
                            >negative</p>
                            <div style=""width:240px; margin: auto;"">
                                <img src=""images/gray_40.png"" style= ""width:200px""alt=""img"">
                            </div>
                        </div>","62","","0","images/gray_40.png","","","","negative"
"","","","","","html-slider-response","62","238538","0.0-56.0","33hku3uwa5","NaN","<div style=""width:500px;"">
                            <p style=""font-size:50px; font-weight:bold;""
                            >negative</p>
                            <div style=""width:240px; margin: auto;"">
                                <img src=""images/gray_21.png"" style= ""width:200px""alt=""img"">
                            </div>
                        </div>","80","","0","images/gray_21.png","","","","negative"
"","","","","","html-slider-response","63","240294","0.0-57.0","33hku3uwa5","NaN","<div style=""width:500px;"">
                            <p style=""font-size:50px; font-weight:bold;""
                            >negative</p>
                            <div style=""width:240px; margin: auto;"">
                                <img src=""images/gray_23.png"" style= ""width:200px""alt=""img"">
                            </div>
                        </div>","65","","0","images/gray_23.png","","","","negative"
"","","","","","html-button-response","64","245952","0.0-58.0","33hku3uwa5","5156","<p>Great Job! You've finished block 1.<br></br> You have 7 block(s) left to go.<br></br></p>","0","","","","","","",""
"","","","","","html-button-response","65","247000","0.0-59.0","33hku3uwa5","1047","<p>In this block of trials, you will be asked to rate how much you associate each map with:</p > <p style = 'font-size:150%; font-weight: bold'>disturbing</p><br></br>","0","","","","","","",""
"","","","","","html-slider-response","66","249788","0.0-60.0","33hku3uwa5","NaN","<div style=""width:500px;"">
                            <p style=""font-size:50px; font-weight:bold;""
                            >disturbing</p>
                            <div style=""width:240px; margin: auto;"">
                                <img src=""images/gray_16.png"" style= ""width:200px""alt=""img"">
                            </div>
                        </div>","-92","","0","images/gray_16.png","","","","disturbing"
"","","","","","html-slider-response","67","251037","0.0-61.0","33hku3uwa5","NaN","<div style=""width:500px;"">
                            <p style=""font-size:50px; font-weight:bold;""
                            >disturbing</p>
                            <div style=""width:240px; margin: auto;"">
                                <img src=""images/gray_02.png"" style= ""width:200px""alt=""img"">
                            </div>
                        </div>","-69","","0","images/gray_02.png","","","","disturbing"
"","","","","","html-slider-response","68","252949","0.0-62.0","33hku3uwa5","NaN","<div style=""width:500px;"">
                            <p style=""font-size:50px; font-weight:bold;""
                            >disturbing</p>
                            <div style=""width:240px; margin: auto;"">
                                <img src=""images/gray_27.png"" style= ""width:200px""alt=""img"">
                            </div>
                        </div>","55","","0","images/gray_27.png","","","","disturbing"
"","","","","","html-slider-response","69","254223","0.0-63.0","33hku3uwa5","NaN","<div style=""width:500px;"">
                            <p style=""font-size:50px; font-weight:bold;""
                            >disturbing</p>
                            <div style=""width:240px; margin: auto;"">
                                <img src=""images/gray_40.png"" style= ""width:200px""alt=""img"">
                            </div>
                        </div>","-66","","0","images/gray_40.png","","","","disturbing"
"","","","","","html-slider-response","70","255236","0.0-64.0","33hku3uwa5","NaN","<div style=""width:500px;"">
                            <p style=""font-size:50px; font-weight:bold;""
                            >disturbing</p>
                            <div style=""width:240px; margin: auto;"">
                                <img src=""images/gray_38.png"" style= ""width:200px""alt=""img"">
                            </div>
                        </div>","-58","","0","images/gray_38.png","","","","disturbing"
"","","","","","html-slider-response","71","256200","0.0-65.0","33hku3uwa5","NaN","<div style=""width:500px;"">
                            <p style=""font-size:50px; font-weight:bold;""
                            >disturbing</p>
                            <div style=""width:240px; margin: auto;"">
                                <img src=""images/gray_14.png"" style= ""width:200px""alt=""img"">
                            </div>
                        </div>","-52","","0","images/gray_14.png","","","","disturbing"
"","","","","","html-slider-response","72","258299","0.0-66.0","33hku3uwa5","NaN","<div style=""width:500px;"">
                            <p style=""font-size:50px; font-weight:bold;""
                            >disturbing</p>
                            <div style=""width:240px; margin: auto;"">
                                <img src=""images/gray_33.png"" style= ""width:200px""alt=""img"">
                            </div>
                        </div>","163","","0","images/gray_33.png","","","","disturbing"
"","","","","","html-slider-response","73","260553","0.0-67.0","33hku3uwa5","NaN","<div style=""width:500px;"">
                            <p style=""font-size:50px; font-weight:bold;""
                            >disturbing</p>
                            <div style=""width:240px; margin: auto;"">
                                <img src=""images/gray_12.png"" style= ""width:200px""alt=""img"">
                            </div>
                        </div>","-29","","0","images/gray_12.png","","","","disturbing"
"","","","","","html-slider-response","74","261844","0.0-68.0","33hku3uwa5","NaN","<div style=""width:500px;"">
                            <p style=""font-size:50px; font-weight:bold;""
                            >disturbing</p>
                            <div style=""width:240px; margin: auto;"">
                                <img src=""images/gray_39.png"" style= ""width:200px""alt=""img"">
                            </div>
                        </div>","-72","","0","images/gray_39.png","","","","disturbing"
"","","","","","html-slider-response","75","263306","0.0-69.0","33hku3uwa5","NaN","<div style=""width:500px;"">
                            <p style=""font-size:50px; font-weight:bold;""
                            >disturbing</p>
                            <div style=""width:240px; margin: auto;"">
                                <img src=""images/gray_04.png"" style= ""width:200px""alt=""img"">
                            </div>
                        </div>","-100","","0","images/gray_04.png","","","","disturbing"
"","","","","","html-slider-response","76","265413","0.0-70.0","33hku3uwa5","NaN","<div style=""width:500px;"">
                            <p style=""font-size:50px; font-weight:bold;""
                            >disturbing</p>
                            <div style=""width:240px; margin: auto;"">
                                <img src=""images/gray_25.png"" style= ""width:200px""alt=""img"">
                            </div>
                        </div>","138","","0","images/gray_25.png","","","","disturbing"
"","","","","","html-slider-response","77","267022","0.0-71.0","33hku3uwa5","NaN","<div style=""width:500px;"">
                            <p style=""font-size:50px; font-weight:bold;""
                            >disturbing</p>
                            <div style=""width:240px; margin: auto;"">
                                <img src=""images/gray_23.png"" style= ""width:200px""alt=""img"">
                            </div>
                        </div>","-131","","0","images/gray_23.png","","","","disturbing"
"","","","","","html-slider-response","78","269383","0.0-72.0","33hku3uwa5","NaN","<div style=""width:500px;"">
                            <p style=""font-size:50px; font-weight:bold;""
                            >disturbing</p>
                            <div style=""width:240px; margin: auto;"">
                                <img src=""images/gray_41.png"" style= ""width:200px""alt=""img"">
                            </div>
                        </div>","122","","0","images/gray_41.png","","","","disturbing"
"","","","","","html-slider-response","79","270796","0.0-73.0","33hku3uwa5","NaN","<div style=""width:500px;"">
                            <p style=""font-size:50px; font-weight:bold;""
                            >disturbing</p>
                            <div style=""width:240px; margin: auto;"">
                                <img src=""images/gray_29.png"" style= ""width:200px""alt=""img"">
                            </div>
                        </div>","149","","0","images/gray_29.png","","","","disturbing"
"","","","","","html-slider-response","80","273426","0.0-74.0","33hku3uwa5","NaN","<div style=""width:500px;"">
                            <p style=""font-size:50px; font-weight:bold;""
                            >disturbing</p>
                            <div style=""width:240px; margin: auto;"">
                                <img src=""images/gray_31.png"" style= ""width:200px""alt=""img"">
                            </div>
                        </div>","68","","0","images/gray_31.png","","","","disturbing"
"","","","","","html-slider-response","81","274903","0.0-75.0","33hku3uwa5","NaN","<div style=""width:500px;"">
                            <p style=""font-size:50px; font-weight:bold;""
                            >disturbing</p>
                            <div style=""width:240px; margin: auto;"">
                                <img src=""images/gray_19.png"" style= ""width:200px""alt=""img"">
                            </div>
                        </div>","50","","0","images/gray_19.png","","","","disturbing"
"","","","","","html-slider-response","82","276946","0.0-76.0","33hku3uwa5","NaN","<div style=""width:500px;"">
                            <p style=""font-size:50px; font-weight:bold;""
                            >disturbing</p>
                            <div style=""width:240px; margin: auto;"">
                                <img src=""images/gray_28.png"" style= ""width:200px""alt=""img"">
                            </div>
                        </div>","118","","0","images/gray_28.png","","","","disturbing"
"","","","","","html-slider-response","83","278555","0.0-77.0","33hku3uwa5","NaN","<div style=""width:500px;"">
                            <p style=""font-size:50px; font-weight:bold;""
                            >disturbing</p>
                            <div style=""width:240px; margin: auto;"">
                                <img src=""images/gray_17.png"" style= ""width:200px""alt=""img"">
                            </div>
                        </div>","44","","0","images/gray_17.png","","","","disturbing"
"","","","","","html-slider-response","84","280851","0.0-78.0","33hku3uwa5","NaN","<div style=""width:500px;"">
                            <p style=""font-size:50px; font-weight:bold;""
                            >disturbing</p>
                            <div style=""width:240px; margin: auto;"">
                                <img src=""images/gray_08.png"" style= ""width:200px""alt=""img"">
                            </div>
                        </div>","102","","0","images/gray_08.png","","","","disturbing"
"","","","","","html-slider-response","85","282385","0.0-79.0","33hku3uwa5","NaN","<div style=""width:500px;"">
                            <p style=""font-size:50px; font-weight:bold;""
                            >disturbing</p>
                            <div style=""width:240px; margin: auto;"">
                                <img src=""images/gray_26.png"" style= ""width:200px""alt=""img"">
                            </div>
                        </div>","88","","0","images/gray_26.png","","","","disturbing"
"","","","","","html-slider-response","86","284967","0.0-80.0","33hku3uwa5","NaN","<div style=""width:500px;"">
                            <p style=""font-size:50px; font-weight:bold;""
                            >disturbing</p>
                            <div style=""width:240px; margin: auto;"">
                                <img src=""images/gray_43.png"" style= ""width:200px""alt=""img"">
                            </div>
                        </div>","-82","","0","images/gray_43.png","","","","disturbing"
"","","","","","html-slider-response","87","298923","0.0-81.0","33hku3uwa5","NaN","<div style=""width:500px;"">
                            <p style=""font-size:50px; font-weight:bold;""
                            >disturbing</p>
                            <div style=""width:240px; margin: auto;"">
                                <img src=""images/gray_44.png"" style= ""width:200px""alt=""img"">
                            </div>
                        </div>","38","","0","images/gray_44.png","","","","disturbing"
"","","","","","html-slider-response","88","300736","0.0-82.0","33hku3uwa5","NaN","<div style=""width:500px;"">
                            <p style=""font-size:50px; font-weight:bold;""
                            >disturbing</p>
                            <div style=""width:240px; margin: auto;"">
                                <img src=""images/gray_42.png"" style= ""width:200px""alt=""img"">
                            </div>
                        </div>","30","","0","images/gray_42.png","","","","disturbing"
"","","","","","html-slider-response","89","302125","0.0-83.0","33hku3uwa5","NaN","<div style=""width:500px;"">
                            <p style=""font-size:50px; font-weight:bold;""
                            >disturbing</p>
                            <div style=""width:240px; margin: auto;"">
                                <img src=""images/gray_01.png"" style= ""width:200px""alt=""img"">
                            </div>
                        </div>","30","","0","images/gray_01.png","","","","disturbing"
"","","","","","html-slider-response","90","307811","0.0-84.0","33hku3uwa5","NaN","<div style=""width:500px;"">
                            <p style=""font-size:50px; font-weight:bold;""
                            >disturbing</p>
                            <div style=""width:240px; margin: auto;"">
                                <img src=""images/gray_37.png"" style= ""width:200px""alt=""img"">
                            </div>
                        </div>","-65","","0","images/gray_37.png","","","","disturbing"
"","","","","","html-slider-response","91","310619","0.0-85.0","33hku3uwa5","NaN","<div style=""width:500px;"">
                            <p style=""font-size:50px; font-weight:bold;""
                            >disturbing</p>
                            <div style=""width:240px; margin: auto;"">
                                <img src=""images/gray_15.png"" style= ""width:200px""alt=""img"">
                            </div>
                        </div>","-92","","0","images/gray_15.png","","","","disturbing"
"","","","","","html-slider-response","92","311574","0.0-86.0","33hku3uwa5","NaN","<div style=""width:500px;"">
                            <p style=""font-size:50px; font-weight:bold;""
                            >disturbing</p>
                            <div style=""width:240px; margin: auto;"">
                                <img src=""images/gray_30.png"" style= ""width:200px""alt=""img"">
                            </div>
                        </div>","-92","","0","images/gray_30.png","","","","disturbing"
"","","","","","html-slider-response","93","312521","0.0-87.0","33hku3uwa5","NaN","<div style=""width:500px;"">
                            <p style=""font-size:50px; font-weight:bold;""
                            >disturbing</p>
                            <div style=""width:240px; margin: auto;"">
                                <img src=""images/gray_06.png"" style= ""width:200px""alt=""img"">
                            </div>
                        </div>","-83","","0","images/gray_06.png","","","","disturbing"
"","","","","","html-slider-response","94","313404","0.0-88.0","33hku3uwa5","NaN","<div style=""width:500px;"">
                            <p style=""font-size:50px; font-weight:bold;""
                            >disturbing</p>
                            <div style=""width:240px; margin: auto;"">
                                <img src=""images/gray_03.png"" style= ""width:200px""alt=""img"">
                            </div>
                        </div>","-83","","0","images/gray_03.png","","","","disturbing"
"","","","","","html-slider-response","95","314310","0.0-89.0","33hku3uwa5","NaN","<div style=""width:500px;"">
                            <p style=""font-size:50px; font-weight:bold;""
                            >disturbing</p>
                            <div style=""width:240px; margin: auto;"">
                                <img src=""images/gray_18.png"" style= ""width:200px""alt=""img"">
                            </div>
                        </div>","-83","","0","images/gray_18.png","","","","disturbing"
"","","","","","html-slider-response","96","315265","0.0-90.0","33hku3uwa5","NaN","<div style=""width:500px;"">
                            <p style=""font-size:50px; font-weight:bold;""
                            >disturbing</p>
                            <div style=""width:240px; margin: auto;"">
                                <img src=""images/gray_07.png"" style= ""width:200px""alt=""img"">
                            </div>
                        </div>","-121","","0","images/gray_07.png","","","","disturbing"
"","","","","","html-slider-response","97","316147","0.0-91.0","33hku3uwa5","NaN","<div style=""width:500px;"">
                            <p style=""font-size:50px; font-weight:bold;""
                            >disturbing</p>
                            <div style=""width:240px; margin: auto;"">
                                <img src=""images/gray_10.png"" style= ""width:200px""alt=""img"">
                            </div>
                        </div>","-42","","0","images/gray_10.png","","","","disturbing"
"","","","","","html-slider-response","98","316972","0.0-92.0","33hku3uwa5","NaN","<div style=""width:500px;"">
                            <p style=""font-size:50px; font-weight:bold;""
                            >disturbing</p>
                            <div style=""width:240px; margin: auto;"">
                                <img src=""images/gray_13.png"" style= ""width:200px""alt=""img"">
                            </div>
                        </div>","-125","","0","images/gray_13.png","","","","disturbing"
"","","","","","html-slider-response","99","317741","0.0-93.0","33hku3uwa5","NaN","<div style=""width:500px;"">
                            <p style=""font-size:50px; font-weight:bold;""
                            >disturbing</p>
                            <div style=""width:240px; margin: auto;"">
                                <img src=""images/gray_32.png"" style= ""width:200px""alt=""img"">
                            </div>
                        </div>","-46","","0","images/gray_32.png","","","","disturbing"
"","","","","","html-slider-response","100","318435","0.0-94.0","33hku3uwa5","NaN","<div style=""width:500px;"">
                            <p style=""font-size:50px; font-weight:bold;""
                            >disturbing</p>
                            <div style=""width:240px; margin: auto;"">
                                <img src=""images/gray_36.png"" style= ""width:200px""alt=""img"">
                            </div>
                        </div>","-152","","0","images/gray_36.png","","","","disturbing"
"","","","","","html-slider-response","101","319235","0.0-95.0","33hku3uwa5","NaN","<div style=""width:500px;"">
                            <p style=""font-size:50px; font-weight:bold;""
                            >disturbing</p>
                            <div style=""width:240px; margin: auto;"">
                                <img src=""images/gray_24.png"" style= ""width:200px""alt=""img"">
                            </div>
                        </div>","-37","","0","images/gray_24.png","","","","disturbing"
"","","","","","html-slider-response","102","319905","0.0-96.0","33hku3uwa5","NaN","<div style=""width:500px;"">
                            <p style=""font-size:50px; font-weight:bold;""
                            >disturbing</p>
                            <div style=""width:240px; margin: auto;"">
                                <img src=""images/gray_21.png"" style= ""width:200px""alt=""img"">
                            </div>
                        </div>","-141","","0","images/gray_21.png","","","","disturbing"
"","","","","","html-slider-response","103","320698","0.0-97.0","33hku3uwa5","NaN","<div style=""width:500px;"">
                            <p style=""font-size:50px; font-weight:bold;""
                            >disturbing</p>
                            <div style=""width:240px; margin: auto;"">
                                <img src=""images/gray_34.png"" style= ""width:200px""alt=""img"">
                            </div>
                        </div>","-41","","0","images/gray_34.png","","","","disturbing"
"","","","","","html-slider-response","104","321457","0.0-98.0","33hku3uwa5","NaN","<div style=""width:500px;"">
                            <p style=""font-size:50px; font-weight:bold;""
                            >disturbing</p>
                            <div style=""width:240px; margin: auto;"">
                                <img src=""images/gray_35.png"" style= ""width:200px""alt=""img"">
                            </div>
                        </div>","-146","","0","images/gray_35.png","","","","disturbing"
"","","","","","html-slider-response","105","322387","0.0-99.0","33hku3uwa5","NaN","<div style=""width:500px;"">
                            <p style=""font-size:50px; font-weight:bold;""
                            >disturbing</p>
                            <div style=""width:240px; margin: auto;"">
                                <img src=""images/gray_05.png"" style= ""width:200px""alt=""img"">
                            </div>
                        </div>","-45","","0","images/gray_05.png","","","","disturbing"
"","","","","","html-slider-response","106","323173","0.0-100.0","33hku3uwa5","NaN","<div style=""width:500px;"">
                            <p style=""font-size:50px; font-weight:bold;""
                            >disturbing</p>
                            <div style=""width:240px; margin: auto;"">
                                <img src=""images/gray_11.png"" style= ""width:200px""alt=""img"">
                            </div>
                        </div>","-178","","0","images/gray_11.png","","","","disturbing"
"","","","","","html-slider-response","107","324046","0.0-101.0","33hku3uwa5","NaN","<div style=""width:500px;"">
                            <p style=""font-size:50px; font-weight:bold;""
                            >disturbing</p>
                            <div style=""width:240px; margin: auto;"">
                                <img src=""images/gray_20.png"" style= ""width:200px""alt=""img"">
                            </div>
                        </div>","-65","","0","images/gray_20.png","","","","disturbing"
"","","","","","html-slider-response","108","324732","0.0-102.0","33hku3uwa5","NaN","<div style=""width:500px;"">
                            <p style=""font-size:50px; font-weight:bold;""
                            >disturbing</p>
                            <div style=""width:240px; margin: auto;"">
                                <img src=""images/gray_22.png"" style= ""width:200px""alt=""img"">
                            </div>
                        </div>","-164","","0","images/gray_22.png","","","","disturbing"
"","","","","","html-slider-response","109","325484","0.0-103.0","33hku3uwa5","NaN","<div style=""width:500px;"">
                            <p style=""font-size:50px; font-weight:bold;""
                            >disturbing</p>
                            <div style=""width:240px; margin: auto;"">
                                <img src=""images/gray_09.png"" style= ""width:200px""alt=""img"">
                            </div>
                        </div>","-69","","0","images/gray_09.png","","","","disturbing"
"","","","","","html-button-response","110","327467","0.0-104.0","33hku3uwa5","1481","<p>Great Job! You've finished block 2.<br></br> You have 6 block(s) left to go.<br></br></p>","0","","","","","","",""
"","","","","","html-button-response","111","329382","0.0-105.0","33hku3uwa5","1914","<p>In this block of trials, you will be asked to rate how much you associate each map with:</p > <p style = 'font-size:150%; font-weight: bold'>positive</p><br></br>","0","","","","","","",""
"","","","","","html-slider-response","112","338622","0.0-106.0","33hku3uwa5","NaN","<div style=""width:500px;"">
                            <p style=""font-size:50px; font-weight:bold;""
                            >positive</p>
                            <div style=""width:240px; margin: auto;"">
                                <img src=""images/gray_12.png"" style= ""width:200px""alt=""img"">
                            </div>
                        </div>","81","","0","images/gray_12.png","","","","positive"
"","","","","","html-slider-response","113","339913","0.0-107.0","33hku3uwa5","NaN","<div style=""width:500px;"">
                            <p style=""font-size:50px; font-weight:bold;""
                            >positive</p>
                            <div style=""width:240px; margin: auto;"">
                                <img src=""images/gray_01.png"" style= ""width:200px""alt=""img"">
                            </div>
                        </div>","72","","0","images/gray_01.png","","","","positive"
"","","","","","html-slider-response","114","340982","0.0-108.0","33hku3uwa5","NaN","<div style=""width:500px;"">
                            <p style=""font-size:50px; font-weight:bold;""
                            >positive</p>
                            <div style=""width:240px; margin: auto;"">
                                <img src=""images/gray_28.png"" style= ""width:200px""alt=""img"">
                            </div>
                        </div>","86","","0","images/gray_28.png","","","","positive"
"","","","","","html-slider-response","115","341750","0.0-109.0","33hku3uwa5","NaN","<div style=""width:500px;"">
                            <p style=""font-size:50px; font-weight:bold;""
                            >positive</p>
                            <div style=""width:240px; margin: auto;"">
                                <img src=""images/gray_29.png"" style= ""width:200px""alt=""img"">
                            </div>
                        </div>","44","","0","images/gray_29.png","","","","positive"
"","","","","","html-slider-response","116","343008","0.0-110.0","33hku3uwa5","NaN","<div style=""width:500px;"">
                            <p style=""font-size:50px; font-weight:bold;""
                            >positive</p>
                            <div style=""width:240px; margin: auto;"">
                                <img src=""images/gray_32.png"" style= ""width:200px""alt=""img"">
                            </div>
                        </div>","90","","0","images/gray_32.png","","","","positive"
"","","","","","html-slider-response","117","343792","0.0-111.0","33hku3uwa5","NaN","<div style=""width:500px;"">
                            <p style=""font-size:50px; font-weight:bold;""
                            >positive</p>
                            <div style=""width:240px; margin: auto;"">
                                <img src=""images/gray_33.png"" style= ""width:200px""alt=""img"">
                            </div>
                        </div>","48","","0","images/gray_33.png","","","","positive"
"","","","","","html-slider-response","118","344593","0.0-112.0","33hku3uwa5","NaN","<div style=""width:500px;"">
                            <p style=""font-size:50px; font-weight:bold;""
                            >positive</p>
                            <div style=""width:240px; margin: auto;"">
                                <img src=""images/gray_18.png"" style= ""width:200px""alt=""img"">
                            </div>
                        </div>","125","","0","images/gray_18.png","","","","positive"
"","","","","","html-slider-response","119","345425","0.0-113.0","33hku3uwa5","NaN","<div style=""width:500px;"">
                            <p style=""font-size:50px; font-weight:bold;""
                            >positive</p>
                            <div style=""width:240px; margin: auto;"">
                                <img src=""images/gray_06.png"" style= ""width:200px""alt=""img"">
                            </div>
                        </div>","44","","0","images/gray_06.png","","","","positive"
"","","","","","html-slider-response","120","346136","0.0-114.0","33hku3uwa5","NaN","<div style=""width:500px;"">
                            <p style=""font-size:50px; font-weight:bold;""
                            >positive</p>
                            <div style=""width:240px; margin: auto;"">
                                <img src=""images/gray_25.png"" style= ""width:200px""alt=""img"">
                            </div>
                        </div>","99","","0","images/gray_25.png","","","","positive"
"","","","","","html-slider-response","121","346863","0.0-115.0","33hku3uwa5","NaN","<div style=""width:500px;"">
                            <p style=""font-size:50px; font-weight:bold;""
                            >positive</p>
                            <div style=""width:240px; margin: auto;"">
                                <img src=""images/gray_07.png"" style= ""width:200px""alt=""img"">
                            </div>
                        </div>","19","","0","images/gray_07.png","","","","positive"
"","","","","","html-slider-response","122","347615","0.0-116.0","33hku3uwa5","NaN","<div style=""width:500px;"">
                            <p style=""font-size:50px; font-weight:bold;""
                            >positive</p>
                            <div style=""width:240px; margin: auto;"">
                                <img src=""images/gray_10.png"" style= ""width:200px""alt=""img"">
                            </div>
                        </div>","114","","0","images/gray_10.png","","","","positive"
"","","","","","html-slider-response","123","348285","0.0-117.0","33hku3uwa5","NaN","<div style=""width:500px;"">
                            <p style=""font-size:50px; font-weight:bold;""
                            >positive</p>
                            <div style=""width:240px; margin: auto;"">
                                <img src=""images/gray_27.png"" style= ""width:200px""alt=""img"">
                            </div>
                        </div>","40","","0","images/gray_27.png","","","","positive"
"","","","","","html-slider-response","124","348905","0.0-118.0","33hku3uwa5","NaN","<div style=""width:500px;"">
                            <p style=""font-size:50px; font-weight:bold;""
                            >positive</p>
                            <div style=""width:240px; margin: auto;"">
                                <img src=""images/gray_09.png"" style= ""width:200px""alt=""img"">
                            </div>
                        </div>","-56","","0","images/gray_09.png","","","","positive"
"","","","","","html-slider-response","125","349656","0.0-119.0","33hku3uwa5","NaN","<div style=""width:500px;"">
                            <p style=""font-size:50px; font-weight:bold;""
                            >positive</p>
                            <div style=""width:240px; margin: auto;"">
                                <img src=""images/gray_42.png"" style= ""width:200px""alt=""img"">
                            </div>
                        </div>","-122","","0","images/gray_42.png","","","","positive"
"","","","","","html-slider-response","126","350317","0.0-120.0","33hku3uwa5","NaN","<div style=""width:500px;"">
                            <p style=""font-size:50px; font-weight:bold;""
                            >positive</p>
                            <div style=""width:240px; margin: auto;"">
                                <img src=""images/gray_14.png"" style= ""width:200px""alt=""img"">
                            </div>
                        </div>","-49","","0","images/gray_14.png","","","","positive"
"","","","","","html-slider-response","127","351093","0.0-121.0","33hku3uwa5","NaN","<div style=""width:500px;"">
                            <p style=""font-size:50px; font-weight:bold;""
                            >positive</p>
                            <div style=""width:240px; margin: auto;"">
                                <img src=""images/gray_23.png"" style= ""width:200px""alt=""img"">
                            </div>
                        </div>","51","","0","images/gray_23.png","","","","positive"
"","","","","","html-slider-response","128","351731","0.0-122.0","33hku3uwa5","NaN","<div style=""width:500px;"">
                            <p style=""font-size:50px; font-weight:bold;""
                            >positive</p>
                            <div style=""width:240px; margin: auto;"">
                                <img src=""images/gray_11.png"" style= ""width:200px""alt=""img"">
                            </div>
                        </div>","129","","0","images/gray_11.png","","","","positive"
"","","","","","html-slider-response","129","352425","0.0-123.0","33hku3uwa5","NaN","<div style=""width:500px;"">
                            <p style=""font-size:50px; font-weight:bold;""
                            >positive</p>
                            <div style=""width:240px; margin: auto;"">
                                <img src=""images/gray_22.png"" style= ""width:200px""alt=""img"">
                            </div>
                        </div>","187","","0","images/gray_22.png","","","","positive"
"","","","","","html-slider-response","130","353071","0.0-124.0","33hku3uwa5","NaN","<div style=""width:500px;"">
                            <p style=""font-size:50px; font-weight:bold;""
                            >positive</p>
                            <div style=""width:240px; margin: auto;"">
                                <img src=""images/gray_41.png"" style= ""width:200px""alt=""img"">
                            </div>
                        </div>","72","","0","images/gray_41.png","","","","positive"
"","","","","","html-slider-response","131","353773","0.0-125.0","33hku3uwa5","NaN","<div style=""width:500px;"">
                            <p style=""font-size:50px; font-weight:bold;""
                            >positive</p>
                            <div style=""width:240px; margin: auto;"">
                                <img src=""images/gray_16.png"" style= ""width:200px""alt=""img"">
                            </div>
                        </div>","14","","0","images/gray_16.png","","","","positive"
"","","","","","html-slider-response","132","355048","0.0-126.0","33hku3uwa5","NaN","<div style=""width:500px;"">
                            <p style=""font-size:50px; font-weight:bold;""
                            >positive</p>
                            <div style=""width:240px; margin: auto;"">
                                <img src=""images/gray_40.png"" style= ""width:200px""alt=""img"">
                            </div>
                        </div>","-79","","0","images/gray_40.png","","","","positive"
"","","","","","html-slider-response","133","355889","0.0-127.0","33hku3uwa5","NaN","<div style=""width:500px;"">
                            <p style=""font-size:50px; font-weight:bold;""
                            >positive</p>
                            <div style=""width:240px; margin: auto;"">
                                <img src=""images/gray_39.png"" style= ""width:200px""alt=""img"">
                            </div>
                        </div>","-138","","0","images/gray_39.png","","","","positive"
"","","","","","html-slider-response","134","356705","0.0-128.0","33hku3uwa5","NaN","<div style=""width:500px;"">
                            <p style=""font-size:50px; font-weight:bold;""
                            >positive</p>
                            <div style=""width:240px; margin: auto;"">
                                <img src=""images/gray_37.png"" style= ""width:200px""alt=""img"">
                            </div>
                        </div>","-174","","0","images/gray_37.png","","","","positive"
"","","","","","html-slider-response","135","357400","0.0-129.0","33hku3uwa5","NaN","<div style=""width:500px;"">
                            <p style=""font-size:50px; font-weight:bold;""
                            >positive</p>
                            <div style=""width:240px; margin: auto;"">
                                <img src=""images/gray_02.png"" style= ""width:200px""alt=""img"">
                            </div>
                        </div>","-106","","0","images/gray_02.png","","","","positive"
"","","","","","html-slider-response","136","358102","0.0-130.0","33hku3uwa5","NaN","<div style=""width:500px;"">
                            <p style=""font-size:50px; font-weight:bold;""
                            >positive</p>
                            <div style=""width:240px; margin: auto;"">
                                <img src=""images/gray_35.png"" style= ""width:200px""alt=""img"">
                            </div>
                        </div>","-53","","0","images/gray_35.png","","","","positive"
"","","","","","html-slider-response","137","358845","0.0-131.0","33hku3uwa5","NaN","<div style=""width:500px;"">
                            <p style=""font-size:50px; font-weight:bold;""
                            >positive</p>
                            <div style=""width:240px; margin: auto;"">
                                <img src=""images/gray_30.png"" style= ""width:200px""alt=""img"">
                            </div>
                        </div>","40","","0","images/gray_30.png","","","","positive"
"","","","","","html-slider-response","138","359490","0.0-132.0","33hku3uwa5","NaN","<div style=""width:500px;"">
                            <p style=""font-size:50px; font-weight:bold;""
                            >positive</p>
                            <div style=""width:240px; margin: auto;"">
                                <img src=""images/gray_34.png"" style= ""width:200px""alt=""img"">
                            </div>
                        </div>","105","","0","images/gray_34.png","","","","positive"
"","","","","","html-slider-response","139","360210","0.0-133.0","33hku3uwa5","NaN","<div style=""width:500px;"">
                            <p style=""font-size:50px; font-weight:bold;""
                            >positive</p>
                            <div style=""width:240px; margin: auto;"">
                                <img src=""images/gray_15.png"" style= ""width:200px""alt=""img"">
                            </div>
                        </div>","170","","0","images/gray_15.png","","","","positive"
"","","","","","html-slider-response","140","360871","0.0-134.0","33hku3uwa5","NaN","<div style=""width:500px;"">
                            <p style=""font-size:50px; font-weight:bold;""
                            >positive</p>
                            <div style=""width:240px; margin: auto;"">
                                <img src=""images/gray_38.png"" style= ""width:200px""alt=""img"">
                            </div>
                        </div>","101","","0","images/gray_38.png","","","","positive"
"","","","","","html-slider-response","141","361631","0.0-135.0","33hku3uwa5","NaN","<div style=""width:500px;"">
                            <p style=""font-size:50px; font-weight:bold;""
                            >positive</p>
                            <div style=""width:240px; margin: auto;"">
                                <img src=""images/gray_04.png"" style= ""width:200px""alt=""img"">
                            </div>
                        </div>","27","","0","images/gray_04.png","","","","positive"
"","","","","","html-slider-response","142","362285","0.0-136.0","33hku3uwa5","NaN","<div style=""width:500px;"">
                            <p style=""font-size:50px; font-weight:bold;""
                            >positive</p>
                            <div style=""width:240px; margin: auto;"">
                                <img src=""images/gray_08.png"" style= ""width:200px""alt=""img"">
                            </div>
                        </div>","-54","","0","images/gray_08.png","","","","positive"
"","","","","","html-slider-response","143","362971","0.0-137.0","33hku3uwa5","NaN","<div style=""width:500px;"">
                            <p style=""font-size:50px; font-weight:bold;""
                            >positive</p>
                            <div style=""width:240px; margin: auto;"">
                                <img src=""images/gray_17.png"" style= ""width:200px""alt=""img"">
                            </div>
                        </div>","-109","","0","images/gray_17.png","","","","positive"
"","","","","","html-slider-response","144","363714","0.0-138.0","33hku3uwa5","NaN","<div style=""width:500px;"">
                            <p style=""font-size:50px; font-weight:bold;""
                            >positive</p>
                            <div style=""width:240px; margin: auto;"">
                                <img src=""images/gray_24.png"" style= ""width:200px""alt=""img"">
                            </div>
                        </div>","-170","","0","images/gray_24.png","","","","positive"
"","","","","","html-slider-response","145","364400","0.0-139.0","33hku3uwa5","NaN","<div style=""width:500px;"">
                            <p style=""font-size:50px; font-weight:bold;""
                            >positive</p>
                            <div style=""width:240px; margin: auto;"">
                                <img src=""images/gray_03.png"" style= ""width:200px""alt=""img"">
                            </div>
                        </div>","-108","","0","images/gray_03.png","","","","positive"
"","","","","","html-slider-response","146","365126","0.0-140.0","33hku3uwa5","NaN","<div style=""width:500px;"">
                            <p style=""font-size:50px; font-weight:bold;""
                            >positive</p>
                            <div style=""width:240px; margin: auto;"">
                                <img src=""images/gray_13.png"" style= ""width:200px""alt=""img"">
                            </div>
                        </div>","-50","","0","images/gray_13.png","","","","positive"
"","","","","","html-slider-response","147","365854","0.0-141.0","33hku3uwa5","NaN","<div style=""width:500px;"">
                            <p style=""font-size:50px; font-weight:bold;""
                            >positive</p>
                            <div style=""width:240px; margin: auto;"">
                                <img src=""images/gray_26.png"" style= ""width:200px""alt=""img"">
                            </div>
                        </div>","77","","0","images/gray_26.png","","","","positive"
"","","","","","html-slider-response","148","366646","0.0-142.0","33hku3uwa5","NaN","<div style=""width:500px;"">
                            <p style=""font-size:50px; font-weight:bold;""
                            >positive</p>
                            <div style=""width:240px; margin: auto;"">
                                <img src=""images/gray_43.png"" style= ""width:200px""alt=""img"">
                            </div>
                        </div>","128","","0","images/gray_43.png","","","","positive"
"","","","","","html-slider-response","149","367431","0.0-143.0","33hku3uwa5","NaN","<div style=""width:500px;"">
                            <p style=""font-size:50px; font-weight:bold;""
                            >positive</p>
                            <div style=""width:240px; margin: auto;"">
                                <img src=""images/gray_05.png"" style= ""width:200px""alt=""img"">
                            </div>
                        </div>","173","","0","images/gray_05.png","","","","positive"
"","","","","","html-slider-response","150","368117","0.0-144.0","33hku3uwa5","NaN","<div style=""width:500px;"">
                            <p style=""font-size:50px; font-weight:bold;""
                            >positive</p>
                            <div style=""width:240px; margin: auto;"">
                                <img src=""images/gray_21.png"" style= ""width:200px""alt=""img"">
                            </div>
                        </div>","123","","0","images/gray_21.png","","","","positive"
"","","","","","html-slider-response","151","368868","0.0-145.0","33hku3uwa5","NaN","<div style=""width:500px;"">
                            <p style=""font-size:50px; font-weight:bold;""
                            >positive</p>
                            <div style=""width:240px; margin: auto;"">
                                <img src=""images/gray_20.png"" style= ""width:200px""alt=""img"">
                            </div>
                        </div>","65","","0","images/gray_20.png","","","","positive"
"","","","","","html-slider-response","152","369635","0.0-146.0","33hku3uwa5","NaN","<div style=""width:500px;"">
                            <p style=""font-size:50px; font-weight:bold;""
                            >positive</p>
                            <div style=""width:240px; margin: auto;"">
                                <img src=""images/gray_44.png"" style= ""width:200px""alt=""img"">
                            </div>
                        </div>","23","","0","images/gray_44.png","","","","positive"
"","","","","","html-slider-response","153","370306","0.0-147.0","33hku3uwa5","NaN","<div style=""width:500px;"">
                            <p style=""font-size:50px; font-weight:bold;""
                            >positive</p>
                            <div style=""width:240px; margin: auto;"">
                                <img src=""images/gray_36.png"" style= ""width:200px""alt=""img"">
                            </div>
                        </div>","-42","","0","images/gray_36.png","","","","positive"
"","","","","","html-slider-response","154","371047","0.0-148.0","33hku3uwa5","NaN","<div style=""width:500px;"">
                            <p style=""font-size:50px; font-weight:bold;""
                            >positive</p>
                            <div style=""width:240px; margin: auto;"">
                                <img src=""images/gray_19.png"" style= ""width:200px""alt=""img"">
                            </div>
                        </div>","-89","","0","images/gray_19.png","","","","positive"
"","","","","","html-slider-response","155","371874","0.0-149.0","33hku3uwa5","NaN","<div style=""width:500px;"">
                            <p style=""font-size:50px; font-weight:bold;""
                            >positive</p>
                            <div style=""width:240px; margin: auto;"">
                                <img src=""images/gray_31.png"" style= ""width:200px""alt=""img"">
                            </div>
                        </div>","-137","","0","images/gray_31.png","","","","positive"
"","","","","","html-button-response","156","374129","0.0-150.0","33hku3uwa5","1753","<p>Great Job! You've finished block 3.<br></br> You have 5 block(s) left to go.<br></br></p>","0","","","","","","",""
"","","","","","html-button-response","157","375098","0.0-151.0","33hku3uwa5","968","<p>In this block of trials, you will be asked to rate how much you associate each map with:</p > <p style = 'font-size:150%; font-weight: bold'>trustworthy</p><br></br>","0","","","","","","",""
"","","","","","html-slider-response","158","376366","0.0-152.0","33hku3uwa5","NaN","<div style=""width:500px;"">
                            <p style=""font-size:50px; font-weight:bold;""
                            >trustworthy</p>
                            <div style=""width:240px; margin: auto;"">
                                <img src=""images/gray_44.png"" style= ""width:200px""alt=""img"">
                            </div>
                        </div>","-188","","0","images/gray_44.png","","","","trustworthy"
"","","","","","html-slider-response","159","377379","0.0-153.0","33hku3uwa5","NaN","<div style=""width:500px;"">
                            <p style=""font-size:50px; font-weight:bold;""
                            >trustworthy</p>
                            <div style=""width:240px; margin: auto;"">
                                <img src=""images/gray_23.png"" style= ""width:200px""alt=""img"">
                            </div>
                        </div>","-127","","0","images/gray_23.png","","","","trustworthy"
"","","","","","html-slider-response","160","378155","0.0-154.0","33hku3uwa5","NaN","<div style=""width:500px;"">
                            <p style=""font-size:50px; font-weight:bold;""
                            >trustworthy</p>
                            <div style=""width:240px; margin: auto;"">
                                <img src=""images/gray_28.png"" style= ""width:200px""alt=""img"">
                            </div>
                        </div>","-77","","0","images/gray_28.png","","","","trustworthy"
"","","","","","html-slider-response","161","378955","0.0-155.0","33hku3uwa5","NaN","<div style=""width:500px;"">
                            <p style=""font-size:50px; font-weight:bold;""
                            >trustworthy</p>
                            <div style=""width:240px; margin: auto;"">
                                <img src=""images/gray_18.png"" style= ""width:200px""alt=""img"">
                            </div>
                        </div>","-25","","0","images/gray_18.png","","","","trustworthy"
"","","","","","html-slider-response","162","379788","0.0-156.0","33hku3uwa5","NaN","<div style=""width:500px;"">
                            <p style=""font-size:50px; font-weight:bold;""
                            >trustworthy</p>
                            <div style=""width:240px; margin: auto;"">
                                <img src=""images/gray_10.png"" style= ""width:200px""alt=""img"">
                            </div>
                        </div>","39","","0","images/gray_10.png","","","","trustworthy"
"","","","","","html-slider-response","163","380589","0.0-157.0","33hku3uwa5","NaN","<div style=""width:500px;"">
                            <p style=""font-size:50px; font-weight:bold;""
                            >trustworthy</p>
                            <div style=""width:240px; margin: auto;"">
                                <img src=""images/gray_13.png"" style= ""width:200px""alt=""img"">
                            </div>
                        </div>","102","","0","images/gray_13.png","","","","trustworthy"
"","","","","","html-slider-response","164","381447","0.0-158.0","33hku3uwa5","NaN","<div style=""width:500px;"">
                            <p style=""font-size:50px; font-weight:bold;""
                            >trustworthy</p>
                            <div style=""width:240px; margin: auto;"">
                                <img src=""images/gray_01.png"" style= ""width:200px""alt=""img"">
                            </div>
                        </div>","146","","0","images/gray_01.png","","","","trustworthy"
"","","","","","html-slider-response","165","382312","0.0-159.0","33hku3uwa5","NaN","<div style=""width:500px;"">
                            <p style=""font-size:50px; font-weight:bold;""
                            >trustworthy</p>
                            <div style=""width:240px; margin: auto;"">
                                <img src=""images/gray_14.png"" style= ""width:200px""alt=""img"">
                            </div>
                        </div>","182","","0","images/gray_14.png","","","","trustworthy"
"","","","","","html-slider-response","166","383114","0.0-160.0","33hku3uwa5","NaN","<div style=""width:500px;"">
                            <p style=""font-size:50px; font-weight:bold;""
                            >trustworthy</p>
                            <div style=""width:240px; margin: auto;"">
                                <img src=""images/gray_06.png"" style= ""width:200px""alt=""img"">
                            </div>
                        </div>","135","","0","images/gray_06.png","","","","trustworthy"
"","","","","","html-slider-response","167","383913","0.0-161.0","33hku3uwa5","NaN","<div style=""width:500px;"">
                            <p style=""font-size:50px; font-weight:bold;""
                            >trustworthy</p>
                            <div style=""width:240px; margin: auto;"">
                                <img src=""images/gray_20.png"" style= ""width:200px""alt=""img"">
                            </div>
                        </div>","93","","0","images/gray_20.png","","","","trustworthy"
"","","","","","html-slider-response","168","384657","0.0-162.0","33hku3uwa5","NaN","<div style=""width:500px;"">
                            <p style=""font-size:50px; font-weight:bold;""
                            >trustworthy</p>
                            <div style=""width:240px; margin: auto;"">
                                <img src=""images/gray_42.png"" style= ""width:200px""alt=""img"">
                            </div>
                        </div>","56","","0","images/gray_42.png","","","","trustworthy"
"","","","","","html-slider-response","169","385490","0.0-163.0","33hku3uwa5","NaN","<div style=""width:500px;"">
                            <p style=""font-size:50px; font-weight:bold;""
                            >trustworthy</p>
                            <div style=""width:240px; margin: auto;"">
                                <img src=""images/gray_12.png"" style= ""width:200px""alt=""img"">
                            </div>
                        </div>","4","","0","images/gray_12.png","","","","trustworthy"
"","","","","","html-slider-response","170","386282","0.0-164.0","33hku3uwa5","NaN","<div style=""width:500px;"">
                            <p style=""font-size:50px; font-weight:bold;""
                            >trustworthy</p>
                            <div style=""width:240px; margin: auto;"">
                                <img src=""images/gray_21.png"" style= ""width:200px""alt=""img"">
                            </div>
                        </div>","-44","","0","images/gray_21.png","","","","trustworthy"
"","","","","","html-slider-response","171","387197","0.0-165.0","33hku3uwa5","NaN","<div style=""width:500px;"">
                            <p style=""font-size:50px; font-weight:bold;""
                            >trustworthy</p>
                            <div style=""width:240px; margin: auto;"">
                                <img src=""images/gray_09.png"" style= ""width:200px""alt=""img"">
                            </div>
                        </div>","-102","","0","images/gray_09.png","","","","trustworthy"
"","","","","","html-slider-response","172","387957","0.0-166.0","33hku3uwa5","NaN","<div style=""width:500px;"">
                            <p style=""font-size:50px; font-weight:bold;""
                            >trustworthy</p>
                            <div style=""width:240px; margin: auto;"">
                                <img src=""images/gray_26.png"" style= ""width:200px""alt=""img"">
                            </div>
                        </div>","-157","","0","images/gray_26.png","","","","trustworthy"
"","","","","","html-slider-response","173","388814","0.0-167.0","33hku3uwa5","NaN","<div style=""width:500px;"">
                            <p style=""font-size:50px; font-weight:bold;""
                            >trustworthy</p>
                            <div style=""width:240px; margin: auto;"">
                                <img src=""images/gray_05.png"" style= ""width:200px""alt=""img"">
                            </div>
                        </div>","-182","","0","images/gray_05.png","","","","trustworthy"
"","","","","","html-slider-response","174","389533","0.0-168.0","33hku3uwa5","NaN","<div style=""width:500px;"">
                            <p style=""font-size:50px; font-weight:bold;""
                            >trustworthy</p>
                            <div style=""width:240px; margin: auto;"">
                                <img src=""images/gray_24.png"" style= ""width:200px""alt=""img"">
                            </div>
                        </div>","-143","","0","images/gray_24.png","","","","trustworthy"
"","","","","","html-slider-response","175","390382","0.0-169.0","33hku3uwa5","NaN","<div style=""width:500px;"">
                            <p style=""font-size:50px; font-weight:bold;""
                            >trustworthy</p>
                            <div style=""width:240px; margin: auto;"">
                                <img src=""images/gray_35.png"" style= ""width:200px""alt=""img"">
                            </div>
                        </div>","-109","","0","images/gray_35.png","","","","trustworthy"
"","","","","","html-slider-response","176","391224","0.0-170.0","33hku3uwa5","NaN","<div style=""width:500px;"">
                            <p style=""font-size:50px; font-weight:bold;""
                            >trustworthy</p>
                            <div style=""width:240px; margin: auto;"">
                                <img src=""images/gray_02.png"" style= ""width:200px""alt=""img"">
                            </div>
                        </div>","-94","","0","images/gray_02.png","","","","trustworthy"
"","","","","","html-slider-response","177","392261","0.0-171.0","33hku3uwa5","NaN","<div style=""width:500px;"">
                            <p style=""font-size:50px; font-weight:bold;""
                            >trustworthy</p>
                            <div style=""width:240px; margin: auto;"">
                                <img src=""images/gray_29.png"" style= ""width:200px""alt=""img"">
                            </div>
                        </div>","-70","","0","images/gray_29.png","","","","trustworthy"
"","","","","","html-slider-response","178","393101","0.0-172.0","33hku3uwa5","NaN","<div style=""width:500px;"">
                            <p style=""font-size:50px; font-weight:bold;""
                            >trustworthy</p>
                            <div style=""width:240px; margin: auto;"">
                                <img src=""images/gray_33.png"" style= ""width:200px""alt=""img"">
                            </div>
                        </div>","-47","","0","images/gray_33.png","","","","trustworthy"
"","","","","","html-slider-response","179","393968","0.0-173.0","33hku3uwa5","NaN","<div style=""width:500px;"">
                            <p style=""font-size:50px; font-weight:bold;""
                            >trustworthy</p>
                            <div style=""width:240px; margin: auto;"">
                                <img src=""images/gray_15.png"" style= ""width:200px""alt=""img"">
                            </div>
                        </div>","-6","","0","images/gray_15.png","","","","trustworthy"
"","","","","","html-slider-response","180","394867","0.0-174.0","33hku3uwa5","NaN","<div style=""width:500px;"">
                            <p style=""font-size:50px; font-weight:bold;""
                            >trustworthy</p>
                            <div style=""width:240px; margin: auto;"">
                                <img src=""images/gray_30.png"" style= ""width:200px""alt=""img"">
                            </div>
                        </div>","36","","0","images/gray_30.png","","","","trustworthy"
"","","","","","html-slider-response","181","395756","0.0-175.0","33hku3uwa5","NaN","<div style=""width:500px;"">
                            <p style=""font-size:50px; font-weight:bold;""
                            >trustworthy</p>
                            <div style=""width:240px; margin: auto;"">
                                <img src=""images/gray_16.png"" style= ""width:200px""alt=""img"">
                            </div>
                        </div>","65","","0","images/gray_16.png","","","","trustworthy"
"","","","","","html-slider-response","182","396590","0.0-176.0","33hku3uwa5","NaN","<div style=""width:500px;"">
                            <p style=""font-size:50px; font-weight:bold;""
                            >trustworthy</p>
                            <div style=""width:240px; margin: auto;"">
                                <img src=""images/gray_22.png"" style= ""width:200px""alt=""img"">
                            </div>
                        </div>","98","","0","images/gray_22.png","","","","trustworthy"
"","","","","","html-slider-response","183","397464","0.0-177.0","33hku3uwa5","NaN","<div style=""width:500px;"">
                            <p style=""font-size:50px; font-weight:bold;""
                            >trustworthy</p>
                            <div style=""width:240px; margin: auto;"">
                                <img src=""images/gray_25.png"" style= ""width:200px""alt=""img"">
                            </div>
                        </div>","140","","0","images/gray_25.png","","","","trustworthy"
"","","","","","html-slider-response","184","398281","0.0-178.0","33hku3uwa5","NaN","<div style=""width:500px;"">
                            <p style=""font-size:50px; font-weight:bold;""
                            >trustworthy</p>
                            <div style=""width:240px; margin: auto;"">
                                <img src=""images/gray_43.png"" style= ""width:200px""alt=""img"">
                            </div>
                        </div>","170","","0","images/gray_43.png","","","","trustworthy"
"","","","","","html-slider-response","185","399359","0.0-179.0","33hku3uwa5","NaN","<div style=""width:500px;"">
                            <p style=""font-size:50px; font-weight:bold;""
                            >trustworthy</p>
                            <div style=""width:240px; margin: auto;"">
                                <img src=""images/gray_38.png"" style= ""width:200px""alt=""img"">
                            </div>
                        </div>","138","","0","images/gray_38.png","","","","trustworthy"
"","","","","","html-slider-response","186","400249","0.0-180.0","33hku3uwa5","NaN","<div style=""width:500px;"">
                            <p style=""font-size:50px; font-weight:bold;""
                            >trustworthy</p>
                            <div style=""width:240px; margin: auto;"">
                                <img src=""images/gray_39.png"" style= ""width:200px""alt=""img"">
                            </div>
                        </div>","93","","0","images/gray_39.png","","","","trustworthy"
"","","","","","html-slider-response","187","401099","0.0-181.0","33hku3uwa5","NaN","<div style=""width:500px;"">
                            <p style=""font-size:50px; font-weight:bold;""
                            >trustworthy</p>
                            <div style=""width:240px; margin: auto;"">
                                <img src=""images/gray_11.png"" style= ""width:200px""alt=""img"">
                            </div>
                        </div>","58","","0","images/gray_11.png","","","","trustworthy"
"","","","","","html-slider-response","188","401981","0.0-182.0","33hku3uwa5","NaN","<div style=""width:500px;"">
                            <p style=""font-size:50px; font-weight:bold;""
                            >trustworthy</p>
                            <div style=""width:240px; margin: auto;"">
                                <img src=""images/gray_41.png"" style= ""width:200px""alt=""img"">
                            </div>
                        </div>","-26","","0","images/gray_41.png","","","","trustworthy"
"","","","","","html-slider-response","189","402822","0.0-183.0","33hku3uwa5","NaN","<div style=""width:500px;"">
                            <p style=""font-size:50px; font-weight:bold;""
                            >trustworthy</p>
                            <div style=""width:240px; margin: auto;"">
                                <img src=""images/gray_37.png"" style= ""width:200px""alt=""img"">
                            </div>
                        </div>","-95","","0","images/gray_37.png","","","","trustworthy"
"","","","","","html-slider-response","190","403696","0.0-184.0","33hku3uwa5","NaN","<div style=""width:500px;"">
                            <p style=""font-size:50px; font-weight:bold;""
                            >trustworthy</p>
                            <div style=""width:240px; margin: auto;"">
                                <img src=""images/gray_34.png"" style= ""width:200px""alt=""img"">
                            </div>
                        </div>","-144","","0","images/gray_34.png","","","","trustworthy"
"","","","","","html-slider-response","191","404480","0.0-185.0","33hku3uwa5","NaN","<div style=""width:500px;"">
                            <p style=""font-size:50px; font-weight:bold;""
                            >trustworthy</p>
                            <div style=""width:240px; margin: auto;"">
                                <img src=""images/gray_40.png"" style= ""width:200px""alt=""img"">
                            </div>
                        </div>","-174","","0","images/gray_40.png","","","","trustworthy"
"","","","","","html-slider-response","192","405280","0.0-186.0","33hku3uwa5","NaN","<div style=""width:500px;"">
                            <p style=""font-size:50px; font-weight:bold;""
                            >trustworthy</p>
                            <div style=""width:240px; margin: auto;"">
                                <img src=""images/gray_31.png"" style= ""width:200px""alt=""img"">
                            </div>
                        </div>","-144","","0","images/gray_31.png","","","","trustworthy"
"","","","","","html-slider-response","193","406117","0.0-187.0","33hku3uwa5","NaN","<div style=""width:500px;"">
                            <p style=""font-size:50px; font-weight:bold;""
                            >trustworthy</p>
                            <div style=""width:240px; margin: auto;"">
                                <img src=""images/gray_32.png"" style= ""width:200px""alt=""img"">
                            </div>
                        </div>","-106","","0","images/gray_32.png","","","","trustworthy"
"","","","","","html-slider-response","194","407012","0.0-188.0","33hku3uwa5","NaN","<div style=""width:500px;"">
                            <p style=""font-size:50px; font-weight:bold;""
                            >trustworthy</p>
                            <div style=""width:240px; margin: auto;"">
                                <img src=""images/gray_08.png"" style= ""width:200px""alt=""img"">
                            </div>
                        </div>","-62","","0","images/gray_08.png","","","","trustworthy"
"","","","","","html-slider-response","195","407706","0.0-189.0","33hku3uwa5","NaN","<div style=""width:500px;"">
                            <p style=""font-size:50px; font-weight:bold;""
                            >trustworthy</p>
                            <div style=""width:240px; margin: auto;"">
                                <img src=""images/gray_04.png"" style= ""width:200px""alt=""img"">
                            </div>
                        </div>","-6","","0","images/gray_04.png","","","","trustworthy"
"","","","","","html-slider-response","196","408391","0.0-190.0","33hku3uwa5","NaN","<div style=""width:500px;"">
                            <p style=""font-size:50px; font-weight:bold;""
                            >trustworthy</p>
                            <div style=""width:240px; margin: auto;"">
                                <img src=""images/gray_27.png"" style= ""width:200px""alt=""img"">
                            </div>
                        </div>","42","","0","images/gray_27.png","","","","trustworthy"
"","","","","","html-slider-response","197","409143","0.0-191.0","33hku3uwa5","NaN","<div style=""width:500px;"">
                            <p style=""font-size:50px; font-weight:bold;""
                            >trustworthy</p>
                            <div style=""width:240px; margin: auto;"">
                                <img src=""images/gray_07.png"" style= ""width:200px""alt=""img"">
                            </div>
                        </div>","84","","0","images/gray_07.png","","","","trustworthy"
"","","","","","html-slider-response","198","410344","0.0-192.0","33hku3uwa5","NaN","<div style=""width:500px;"">
                            <p style=""font-size:50px; font-weight:bold;""
                            >trustworthy</p>
                            <div style=""width:240px; margin: auto;"">
                                <img src=""images/gray_19.png"" style= ""width:200px""alt=""img"">
