"success","timeout","failed_images","failed_audio","failed_video","trial_type","trial_index","time_elapsed","internal_node_id","subject_id","rt","stimulus","response","question_order","slider_start","image_path","practiceTrial","practiceTrialNum","correct","concept"
"true","false","[]","[]","[]","preload","0","564","0.0-0.0","3f3cxjy2g9","","","","","","","","","",""
"","","","","","html-button-response","1","2005","0.0-1.0","3f3cxjy2g9","1438","Welcome to our experiment!<p>At the bottom of this screen, you will see a button that says ""Begin Experiment"".<br>Please only click that button when you are ready to complete the 25 minute experiment in one sitting.</p><p> Once you click that button, it will not be possible to restart the experiment.","0","","","","","","",""
"true","","","","","fullscreen","2","4605","0.0-2.0","3f3cxjy2g9","1591","","","","","","","","",""
"","","","","","survey-multi-select","3","15478","0.0-3.0","3f3cxjy2g9","10866","","{""Consent"":[""<strong>I consent</strong>""]}","[0]","","","","","",""
"","","","","","html-button-response","4","16716","0.0-4.0","3f3cxjy2g9","1233","Welcome! <p> This experiment involves two parts: demographic information, followed by the experimental task.<p> It will take about 25 minutes to complete both parts.","0","","","","","","",""
"","","","","","survey-text","5","30399","0.0-5.0","3f3cxjy2g9","13666","","{""Age"":""18"",""Gender"":""Male"",""Race/ethnicity"":""White"",""Languages"":""English""}","","","","","","",""
"","","","","","html-slider-response","6","41675","0.0-6.0","3f3cxjy2g9","11272","
            <div style='text-align:left; font-size:20px; line-height:25px; width: 1200px;'>
                During this experiment you will be asked to rate how much you associate maps with    different concepts.<br> Below, you can see some examples of the maps you will be asked to rate. Next to the maps
    is the list of concepts.<br>You will be asked    to rate how much you associate each map with each concept on a scale from 'not at all' to 'very much' like the
    one below. <br><br>
    Now, please look at the list of concepts and maps. For each concept, think about the map you associate 'very
    much' with the concept.<br>     When you see that map during the experiment, please rate it near the 'very much' endpoint of the
    scale.<br>Now, please think about which map you associate 'not at all'     with each concept. When you see that map during the experiment, please rate it near the 'not at all' endpoint
    of the scale.<br>
    Please use the full range of the scale. That is, if a map is somewhat associated with the concept, you would
    click partway between the middle point and right side of the scale.    You will be asked to rate each map for a given concept before moving on to the next concept.<br><br>Press the
    'Continue' button for instructions on how to use the slider.    <br><br>
</div>

<div style=""width: 500px; margin: 0 auto;"">
    <div style=""text-align: left; width: 200px; float: left;"">
        <p style=""font-size:25px; line-height:18px;"">calm</p>
        <p style=""font-size:25px; line-height:18px;"">exciting</p>
        <p style=""font-size:25px;line-height:18px;"">positive</p>
        <p style=""font-size:25px;line-height:18px;"">negative</p>
        <p style=""font-size:25px;line-height:18px;"">serious</p>
        <p style=""font-size:25px;line-height:18px;"">playful</p>
        <p style=""font-size:25px;line-height:18px;"">trustworthy</p>
        <p style=""font-size:25px;line-height:18px;"">disturbing</p>
    </div>
    <div style=""width: 200px; float: right; padding-top:15px; padding-right:40px"">
        <br>
        <br>
        <img src=""maps_anchoring.png"" alt=""img"" style=""max-width:500px"">
    </div>
    <div style=""clear: both;""></div>
</div>
            ","80","","0","maps_anchoring.png","true","","",""
"","","","","","html-button-response","7","43675","0.0-7.0","3f3cxjy2g9","1997","<div style=""width:800px;""><p style=""text-align:left"">To move the slider, click and drag your cursor to the location of the scale where you would like to make your rating and then let go. When you let go of the slider, your response will be recorded and the next trial will begin. <br>
            We are interested in your initial impressions of each map for the given concept, so please go with your first intuition. <br>
            Before you begin the experiment, there will be four training trials for you to practice using the scale. <br>
             When you are ready to start the training trials, please click ""Continue"".</p><br></div>","0","","","","","","",""
"","","","","","html-slider-response","8","48906","0.0-8.0-0.0","3f3cxjy2g9","NaN","<div style=""width:500px;"">
                            <p style=""font-size:25px;"">Please move the slider all the way to the <br> right endpoint of the scale</p>

                            </div>
                        </div>","-200","","0","","true","0","false",""
"","","","","","html-button-response","9","50829","0.0-8.0-1.0","3f3cxjy2g9","1416","<p align='center'><b>Not quite!</b> The slider was not placed near the instructed located. Click on 'Continue' to try again. </p>","0","","","","","","",""
"","","","","","html-slider-response","10","52979","0.0-8.1-0.1","3f3cxjy2g9","NaN","<div style=""width:500px;"">
                            <p style=""font-size:25px;"">Please move the slider all the way to the <br> right endpoint of the scale</p>

                            </div>
                        </div>","200","","0","","true","0","true",""
"","","","","","html-button-response","11","54672","0.0-8.1-1.1","3f3cxjy2g9","1189","<p align='center'><b>Good job!</b> Click on 'Continue' to proceed.</p>","0","","","","","","",""
"","","","","","html-slider-response","12","111753","0.0-9.0-0.0","3f3cxjy2g9","NaN","<div style=""width:500px;"">
                            <p style=""font-size:25px;"">Please move the slider all the way to the <br> left endpoint of the scale</p>

                            </div>
                        </div>","-200","","0","","true","1","true",""
"","","","","","html-button-response","13","113654","0.0-9.0-1.0","3f3cxjy2g9","1386","<p align='center'><b>Good job!</b> Click on 'Continue' to proceed.</p>","0","","","","","","",""
"","","","","","html-slider-response","14","117008","0.0-10.0-0.0","3f3cxjy2g9","NaN","<div style=""width:500px;"">
                            <p style=""font-size:25px;"">Please move the slider halfway between the center and right endpoint of the scale</p>

                            </div>
                        </div>","114","","0","","true","2","false",""
"","","","","","html-button-response","15","118369","0.0-10.0-1.0","3f3cxjy2g9","854","<p align='center'><b>Not quite!</b> The slider was not placed near the instructed located. Click on 'Continue' to try again. </p>","0","","","","","","",""
"","","","","","html-slider-response","16","120935","0.0-10.1-0.1","3f3cxjy2g9","NaN","<div style=""width:500px;"">
                            <p style=""font-size:25px;"">Please move the slider halfway between the center and right endpoint of the scale</p>

                            </div>
                        </div>","98","","0","","true","2","true",""
"","","","","","html-button-response","17","122147","0.0-10.1-1.1","3f3cxjy2g9","707","<p align='center'><b>Good job!</b> Click on 'Continue' to proceed.</p>","0","","","","","","",""
"","","","","","html-slider-response","18","124408","0.0-11.0-0.0","3f3cxjy2g9","NaN","<div style=""width:500px;"">
                            <p style=""font-size:25px;"">Please move the slider halfway between the center and left endpoint of the scale</p>

                            </div>
                        </div>","-106","","0","","true","3","true",""
"","","","","","html-button-response","19","125593","0.0-11.0-1.0","3f3cxjy2g9","672","<p align='center'><b>Good job!</b> Click on 'Continue' to proceed.</p>","0","","","","","","",""
"","","","","","html-button-response","20","126548","0.0-12.0","3f3cxjy2g9","953","<p>Great job! You've completed the practice trials. Now you will begin the main task.</p>","0","","","","","","",""
"","","","","","html-button-response","21","127935","0.0-13.0","3f3cxjy2g9","1383","<p>In this block of trials, you will be asked to rate how much you associate each map with:</p > <p style = 'font-size:150%; font-weight: bold'>trustworthy</p><br></br>","0","","","","","","",""
"","","","","","html-slider-response","22","130061","0.0-14.0","3f3cxjy2g9","NaN","<div style=""width:500px;"">
                            <p style=""font-size:50px; font-weight:bold;""
                            >trustworthy</p>
                            <div style=""width:240px; margin: auto;"">
                                <img src=""images/gray_37.png"" style= ""width:200px""alt=""img"">
                            </div>
                        </div>","93","","0","images/gray_37.png","","","","trustworthy"
"","","","","","html-slider-response","23","132862","0.0-15.0","3f3cxjy2g9","NaN","<div style=""width:500px;"">
                            <p style=""font-size:50px; font-weight:bold;""
                            >trustworthy</p>
                            <div style=""width:240px; margin: auto;"">
                                <img src=""images/gray_06.png"" style= ""width:200px""alt=""img"">
                            </div>
                        </div>","100","","0","images/gray_06.png","","","","trustworthy"
"","","","","","html-slider-response","24","135714","0.0-16.0","3f3cxjy2g9","NaN","<div style=""width:500px;"">
                            <p style=""font-size:50px; font-weight:bold;""
                            >trustworthy</p>
                            <div style=""width:240px; margin: auto;"">
                                <img src=""images/gray_32.png"" style= ""width:200px""alt=""img"">
                            </div>
                        </div>","89","","0","images/gray_32.png","","","","trustworthy"
"","","","","","html-slider-response","25","137604","0.0-17.0","3f3cxjy2g9","NaN","<div style=""width:500px;"">
                            <p style=""font-size:50px; font-weight:bold;""
                            >trustworthy</p>
                            <div style=""width:240px; margin: auto;"">
                                <img src=""images/gray_05.png"" style= ""width:200px""alt=""img"">
                            </div>
                        </div>","115","","0","images/gray_05.png","","","","trustworthy"
"","","","","","html-slider-response","26","139433","0.0-18.0","3f3cxjy2g9","NaN","<div style=""width:500px;"">
                            <p style=""font-size:50px; font-weight:bold;""
                            >trustworthy</p>
                            <div style=""width:240px; margin: auto;"">
                                <img src=""images/gray_34.png"" style= ""width:200px""alt=""img"">
                            </div>
                        </div>","114","","0","images/gray_34.png","","","","trustworthy"
"","","","","","html-slider-response","27","141151","0.0-19.0","3f3cxjy2g9","NaN","<div style=""width:500px;"">
                            <p style=""font-size:50px; font-weight:bold;""
                            >trustworthy</p>
                            <div style=""width:240px; margin: auto;"">
                                <img src=""images/gray_03.png"" style= ""width:200px""alt=""img"">
                            </div>
                        </div>","70","","0","images/gray_03.png","","","","trustworthy"
"","","","","","html-slider-response","28","142825","0.0-20.0","3f3cxjy2g9","NaN","<div style=""width:500px;"">
                            <p style=""font-size:50px; font-weight:bold;""
                            >trustworthy</p>
                            <div style=""width:240px; margin: auto;"">
                                <img src=""images/gray_30.png"" style= ""width:200px""alt=""img"">
                            </div>
                        </div>","83","","0","images/gray_30.png","","","","trustworthy"
"","","","","","html-slider-response","29","144384","0.0-21.0","3f3cxjy2g9","NaN","<div style=""width:500px;"">
                            <p style=""font-size:50px; font-weight:bold;""
                            >trustworthy</p>
                            <div style=""width:240px; margin: auto;"">
                                <img src=""images/gray_39.png"" style= ""width:200px""alt=""img"">
                            </div>
                        </div>","87","","0","images/gray_39.png","","","","trustworthy"
"","","","","","html-slider-response","30","146063","0.0-22.0","3f3cxjy2g9","NaN","<div style=""width:500px;"">
                            <p style=""font-size:50px; font-weight:bold;""
                            >trustworthy</p>
                            <div style=""width:240px; margin: auto;"">
                                <img src=""images/gray_42.png"" style= ""width:200px""alt=""img"">
                            </div>
                        </div>","86","","0","images/gray_42.png","","","","trustworthy"
"","","","","","html-slider-response","31","147676","0.0-23.0","3f3cxjy2g9","NaN","<div style=""width:500px;"">
                            <p style=""font-size:50px; font-weight:bold;""
                            >trustworthy</p>
                            <div style=""width:240px; margin: auto;"">
                                <img src=""images/gray_40.png"" style= ""width:200px""alt=""img"">
                            </div>
                        </div>","86","","0","images/gray_40.png","","","","trustworthy"
"","","","","","html-slider-response","32","149677","0.0-24.0","3f3cxjy2g9","NaN","<div style=""width:500px;"">
                            <p style=""font-size:50px; font-weight:bold;""
                            >trustworthy</p>
                            <div style=""width:240px; margin: auto;"">
                                <img src=""images/gray_17.png"" style= ""width:200px""alt=""img"">
                            </div>
                        </div>","85","","0","images/gray_17.png","","","","trustworthy"
"","","","","","html-slider-response","33","151601","0.0-25.0","3f3cxjy2g9","NaN","<div style=""width:500px;"">
                            <p style=""font-size:50px; font-weight:bold;""
                            >trustworthy</p>
                            <div style=""width:240px; margin: auto;"">
                                <img src=""images/gray_07.png"" style= ""width:200px""alt=""img"">
                            </div>
                        </div>","95","","0","images/gray_07.png","","","","trustworthy"
"","","","","","html-slider-response","34","153061","0.0-26.0","3f3cxjy2g9","NaN","<div style=""width:500px;"">
                            <p style=""font-size:50px; font-weight:bold;""
                            >trustworthy</p>
                            <div style=""width:240px; margin: auto;"">
                                <img src=""images/gray_09.png"" style= ""width:200px""alt=""img"">
                            </div>
                        </div>","103","","0","images/gray_09.png","","","","trustworthy"
"","","","","","html-slider-response","35","154619","0.0-27.0","3f3cxjy2g9","NaN","<div style=""width:500px;"">
                            <p style=""font-size:50px; font-weight:bold;""
                            >trustworthy</p>
                            <div style=""width:240px; margin: auto;"">
                                <img src=""images/gray_19.png"" style= ""width:200px""alt=""img"">
                            </div>
                        </div>","86","","0","images/gray_19.png","","","","trustworthy"
"","","","","","html-slider-response","36","156046","0.0-28.0","3f3cxjy2g9","NaN","<div style=""width:500px;"">
                            <p style=""font-size:50px; font-weight:bold;""
                            >trustworthy</p>
                            <div style=""width:240px; margin: auto;"">
                                <img src=""images/gray_24.png"" style= ""width:200px""alt=""img"">
                            </div>
                        </div>","94","","0","images/gray_24.png","","","","trustworthy"
"","","","","","html-slider-response","37","157408","0.0-29.0","3f3cxjy2g9","NaN","<div style=""width:500px;"">
                            <p style=""font-size:50px; font-weight:bold;""
                            >trustworthy</p>
                            <div style=""width:240px; margin: auto;"">
                                <img src=""images/gray_21.png"" style= ""width:200px""alt=""img"">
                            </div>
                        </div>","108","","0","images/gray_21.png","","","","trustworthy"
"","","","","","html-slider-response","38","158870","0.0-30.0","3f3cxjy2g9","NaN","<div style=""width:500px;"">
                            <p style=""font-size:50px; font-weight:bold;""
                            >trustworthy</p>
                            <div style=""width:240px; margin: auto;"">
                                <img src=""images/gray_27.png"" style= ""width:200px""alt=""img"">
                            </div>
                        </div>","86","","0","images/gray_27.png","","","","trustworthy"
"","","","","","html-slider-response","39","160414","0.0-31.0","3f3cxjy2g9","NaN","<div style=""width:500px;"">
                            <p style=""font-size:50px; font-weight:bold;""
                            >trustworthy</p>
                            <div style=""width:240px; margin: auto;"">
                                <img src=""images/gray_01.png"" style= ""width:200px""alt=""img"">
                            </div>
                        </div>","101","","0","images/gray_01.png","","","","trustworthy"
"","","","","","html-slider-response","40","162625","0.0-32.0","3f3cxjy2g9","NaN","<div style=""width:500px;"">
                            <p style=""font-size:50px; font-weight:bold;""
                            >trustworthy</p>
                            <div style=""width:240px; margin: auto;"">
                                <img src=""images/gray_33.png"" style= ""width:200px""alt=""img"">
                            </div>
                        </div>","56","","0","images/gray_33.png","","","","trustworthy"
"","","","","","html-slider-response","41","199841","0.0-33.0","3f3cxjy2g9","NaN","<div style=""width:500px;"">
                            <p style=""font-size:50px; font-weight:bold;""
                            >trustworthy</p>
                            <div style=""width:240px; margin: auto;"">
                                <img src=""images/gray_29.png"" style= ""width:200px""alt=""img"">
                            </div>
                        </div>","124","","0","images/gray_29.png","","","","trustworthy"
"","","","","","html-slider-response","42","201298","0.0-34.0","3f3cxjy2g9","NaN","<div style=""width:500px;"">
                            <p style=""font-size:50px; font-weight:bold;""
                            >trustworthy</p>
                            <div style=""width:240px; margin: auto;"">
                                <img src=""images/gray_25.png"" style= ""width:200px""alt=""img"">
                            </div>
                        </div>","107","","0","images/gray_25.png","","","","trustworthy"
"","","","","","html-slider-response","43","202818","0.0-35.0","3f3cxjy2g9","NaN","<div style=""width:500px;"">
                            <p style=""font-size:50px; font-weight:bold;""
                            >trustworthy</p>
                            <div style=""width:240px; margin: auto;"">
                                <img src=""images/gray_20.png"" style= ""width:200px""alt=""img"">
                            </div>
                        </div>","88","","0","images/gray_20.png","","","","trustworthy"
"","","","","","html-slider-response","44","204198","0.0-36.0","3f3cxjy2g9","NaN","<div style=""width:500px;"">
                            <p style=""font-size:50px; font-weight:bold;""
                            >trustworthy</p>
                            <div style=""width:240px; margin: auto;"">
                                <img src=""images/gray_36.png"" style= ""width:200px""alt=""img"">
                            </div>
                        </div>","59","","0","images/gray_36.png","","","","trustworthy"
"","","","","","html-slider-response","45","205476","0.0-37.0","3f3cxjy2g9","NaN","<div style=""width:500px;"">
                            <p style=""font-size:50px; font-weight:bold;""
                            >trustworthy</p>
                            <div style=""width:240px; margin: auto;"">
                                <img src=""images/gray_31.png"" style= ""width:200px""alt=""img"">
                            </div>
                        </div>","88","","0","images/gray_31.png","","","","trustworthy"
"","","","","","html-slider-response","46","206730","0.0-38.0","3f3cxjy2g9","NaN","<div style=""width:500px;"">
                            <p style=""font-size:50px; font-weight:bold;""
                            >trustworthy</p>
                            <div style=""width:240px; margin: auto;"">
                                <img src=""images/gray_12.png"" style= ""width:200px""alt=""img"">
                            </div>
                        </div>","89","","0","images/gray_12.png","","","","trustworthy"
"","","","","","html-slider-response","47","208059","0.0-39.0","3f3cxjy2g9","NaN","<div style=""width:500px;"">
                            <p style=""font-size:50px; font-weight:bold;""
                            >trustworthy</p>
                            <div style=""width:240px; margin: auto;"">
                                <img src=""images/gray_02.png"" style= ""width:200px""alt=""img"">
                            </div>
                        </div>","-52","","0","images/gray_02.png","","","","trustworthy"
"","","","","","html-slider-response","48","209416","0.0-40.0","3f3cxjy2g9","NaN","<div style=""width:500px;"">
                            <p style=""font-size:50px; font-weight:bold;""
                            >trustworthy</p>
                            <div style=""width:240px; margin: auto;"">
                                <img src=""images/gray_41.png"" style= ""width:200px""alt=""img"">
                            </div>
                        </div>","62","","0","images/gray_41.png","","","","trustworthy"
"","","","","","html-slider-response","49","210915","0.0-41.0","3f3cxjy2g9","NaN","<div style=""width:500px;"">
                            <p style=""font-size:50px; font-weight:bold;""
                            >trustworthy</p>
                            <div style=""width:240px; margin: auto;"">
                                <img src=""images/gray_26.png"" style= ""width:200px""alt=""img"">
                            </div>
                        </div>","-79","","0","images/gray_26.png","","","","trustworthy"
"","","","","","html-slider-response","50","212489","0.0-42.0","3f3cxjy2g9","NaN","<div style=""width:500px;"">
                            <p style=""font-size:50px; font-weight:bold;""
                            >trustworthy</p>
                            <div style=""width:240px; margin: auto;"">
                                <img src=""images/gray_44.png"" style= ""width:200px""alt=""img"">
                            </div>
                        </div>","66","","0","images/gray_44.png","","","","trustworthy"
"","","","","","html-slider-response","51","213873","0.0-43.0","3f3cxjy2g9","NaN","<div style=""width:500px;"">
                            <p style=""font-size:50px; font-weight:bold;""
                            >trustworthy</p>
                            <div style=""width:240px; margin: auto;"">
                                <img src=""images/gray_23.png"" style= ""width:200px""alt=""img"">
                            </div>
                        </div>","65","","0","images/gray_23.png","","","","trustworthy"
"","","","","","html-slider-response","52","215407","0.0-44.0","3f3cxjy2g9","NaN","<div style=""width:500px;"">
                            <p style=""font-size:50px; font-weight:bold;""
                            >trustworthy</p>
                            <div style=""width:240px; margin: auto;"">
                                <img src=""images/gray_18.png"" style= ""width:200px""alt=""img"">
                            </div>
                        </div>","-69","","0","images/gray_18.png","","","","trustworthy"
"","","","","","html-slider-response","53","216787","0.0-45.0","3f3cxjy2g9","NaN","<div style=""width:500px;"">
                            <p style=""font-size:50px; font-weight:bold;""
                            >trustworthy</p>
                            <div style=""width:240px; margin: auto;"">
                                <img src=""images/gray_38.png"" style= ""width:200px""alt=""img"">
                            </div>
                        </div>","85","","0","images/gray_38.png","","","","trustworthy"
"","","","","","html-slider-response","54","218059","0.0-46.0","3f3cxjy2g9","NaN","<div style=""width:500px;"">
                            <p style=""font-size:50px; font-weight:bold;""
                            >trustworthy</p>
                            <div style=""width:240px; margin: auto;"">
                                <img src=""images/gray_35.png"" style= ""width:200px""alt=""img"">
                            </div>
                        </div>","85","","0","images/gray_35.png","","","","trustworthy"
"","","","","","html-slider-response","55","219272","0.0-47.0","3f3cxjy2g9","NaN","<div style=""width:500px;"">
                            <p style=""font-size:50px; font-weight:bold;""
                            >trustworthy</p>
                            <div style=""width:240px; margin: auto;"">
                                <img src=""images/gray_04.png"" style= ""width:200px""alt=""img"">
                            </div>
                        </div>","126","","0","images/gray_04.png","","","","trustworthy"
"","","","","","html-slider-response","56","220549","0.0-48.0","3f3cxjy2g9","NaN","<div style=""width:500px;"">
                            <p style=""font-size:50px; font-weight:bold;""
                            >trustworthy</p>
                            <div style=""width:240px; margin: auto;"">
                                <img src=""images/gray_08.png"" style= ""width:200px""alt=""img"">
                            </div>
                        </div>","78","","0","images/gray_08.png","","","","trustworthy"
"","","","","","html-slider-response","57","221881","0.0-49.0","3f3cxjy2g9","NaN","<div style=""width:500px;"">
                            <p style=""font-size:50px; font-weight:bold;""
                            >trustworthy</p>
                            <div style=""width:240px; margin: auto;"">
                                <img src=""images/gray_28.png"" style= ""width:200px""alt=""img"">
                            </div>
                        </div>","94","","0","images/gray_28.png","","","","trustworthy"
"","","","","","html-slider-response","58","223318","0.0-50.0","3f3cxjy2g9","NaN","<div style=""width:500px;"">
                            <p style=""font-size:50px; font-weight:bold;""
                            >trustworthy</p>
                            <div style=""width:240px; margin: auto;"">
                                <img src=""images/gray_11.png"" style= ""width:200px""alt=""img"">
                            </div>
                        </div>","76","","0","images/gray_11.png","","","","trustworthy"
"","","","","","html-slider-response","59","224793","0.0-51.0","3f3cxjy2g9","NaN","<div style=""width:500px;"">
                            <p style=""font-size:50px; font-weight:bold;""
                            >trustworthy</p>
                            <div style=""width:240px; margin: auto;"">
                                <img src=""images/gray_13.png"" style= ""width:200px""alt=""img"">
                            </div>
                        </div>","54","","0","images/gray_13.png","","","","trustworthy"
"","","","","","html-slider-response","60","226363","0.0-52.0","3f3cxjy2g9","NaN","<div style=""width:500px;"">
                            <p style=""font-size:50px; font-weight:bold;""
                            >trustworthy</p>
                            <div style=""width:240px; margin: auto;"">
                                <img src=""images/gray_10.png"" style= ""width:200px""alt=""img"">
                            </div>
                        </div>","-35","","0","images/gray_10.png","","","","trustworthy"
"","","","","","html-slider-response","61","227602","0.0-53.0","3f3cxjy2g9","NaN","<div style=""width:500px;"">
                            <p style=""font-size:50px; font-weight:bold;""
                            >trustworthy</p>
                            <div style=""width:240px; margin: auto;"">
                                <img src=""images/gray_14.png"" style= ""width:200px""alt=""img"">
                            </div>
                        </div>","50","","0","images/gray_14.png","","","","trustworthy"
"","","","","","html-slider-response","62","228901","0.0-54.0","3f3cxjy2g9","NaN","<div style=""width:500px;"">
                            <p style=""font-size:50px; font-weight:bold;""
                            >trustworthy</p>
                            <div style=""width:240px; margin: auto;"">
                                <img src=""images/gray_15.png"" style= ""width:200px""alt=""img"">
                            </div>
                        </div>","93","","0","images/gray_15.png","","","","trustworthy"
"","","","","","html-slider-response","63","230290","0.0-55.0","3f3cxjy2g9","NaN","<div style=""width:500px;"">
                            <p style=""font-size:50px; font-weight:bold;""
                            >trustworthy</p>
                            <div style=""width:240px; margin: auto;"">
                                <img src=""images/gray_43.png"" style= ""width:200px""alt=""img"">
                            </div>
                        </div>","93","","0","images/gray_43.png","","","","trustworthy"
"","","","","","html-slider-response","64","231656","0.0-56.0","3f3cxjy2g9","NaN","<div style=""width:500px;"">
                            <p style=""font-size:50px; font-weight:bold;""
                            >trustworthy</p>
                            <div style=""width:240px; margin: auto;"">
                                <img src=""images/gray_16.png"" style= ""width:200px""alt=""img"">
                            </div>
                        </div>","93","","0","images/gray_16.png","","","","trustworthy"
"","","","","","html-slider-response","65","233016","0.0-57.0","3f3cxjy2g9","NaN","<div style=""width:500px;"">
                            <p style=""font-size:50px; font-weight:bold;""
                            >trustworthy</p>
                            <div style=""width:240px; margin: auto;"">
                                <img src=""images/gray_22.png"" style= ""width:200px""alt=""img"">
                            </div>
                        </div>","94","","0","images/gray_22.png","","","","trustworthy"
"","","","","","html-button-response","66","236639","0.0-58.0","3f3cxjy2g9","3112","<p>Great Job! You've finished block 1.<br></br> You have 7 block(s) left to go.<br></br></p>","0","","","","","","",""
"","","","","","html-button-response","67","237913","0.0-59.0","3f3cxjy2g9","1271","<p>In this block of trials, you will be asked to rate how much you associate each map with:</p > <p style = 'font-size:150%; font-weight: bold'>serious</p><br></br>","0","","","","","","",""
"","","","","","html-slider-response","68","239604","0.0-60.0","3f3cxjy2g9","NaN","<div style=""width:500px;"">
                            <p style=""font-size:50px; font-weight:bold;""
                            >serious</p>
                            <div style=""width:240px; margin: auto;"">
                                <img src=""images/gray_08.png"" style= ""width:200px""alt=""img"">
                            </div>
                        </div>","58","","0","images/gray_08.png","","","","serious"
"","","","","","html-slider-response","69","243706","0.0-61.0","3f3cxjy2g9","NaN","<div style=""width:500px;"">
                            <p style=""font-size:50px; font-weight:bold;""
                            >serious</p>
                            <div style=""width:240px; margin: auto;"">
                                <img src=""images/gray_13.png"" style= ""width:200px""alt=""img"">
                            </div>
                        </div>","80","","0","images/gray_13.png","","","","serious"
"","","","","","html-slider-response","70","245360","0.0-62.0","3f3cxjy2g9","NaN","<div style=""width:500px;"">
                            <p style=""font-size:50px; font-weight:bold;""
                            >serious</p>
                            <div style=""width:240px; margin: auto;"">
                                <img src=""images/gray_07.png"" style= ""width:200px""alt=""img"">
                            </div>
                        </div>","-45","","0","images/gray_07.png","","","","serious"
"","","","","","html-slider-response","71","246837","0.0-63.0","3f3cxjy2g9","NaN","<div style=""width:500px;"">
                            <p style=""font-size:50px; font-weight:bold;""
                            >serious</p>
                            <div style=""width:240px; margin: auto;"">
                                <img src=""images/gray_39.png"" style= ""width:200px""alt=""img"">
                            </div>
                        </div>","-24","","0","images/gray_39.png","","","","serious"
"","","","","","html-slider-response","72","248230","0.0-64.0","3f3cxjy2g9","NaN","<div style=""width:500px;"">
                            <p style=""font-size:50px; font-weight:bold;""
                            >serious</p>
                            <div style=""width:240px; margin: auto;"">
                                <img src=""images/gray_01.png"" style= ""width:200px""alt=""img"">
                            </div>
                        </div>","37","","0","images/gray_01.png","","","","serious"
"","","","","","html-slider-response","73","249642","0.0-65.0","3f3cxjy2g9","NaN","<div style=""width:500px;"">
                            <p style=""font-size:50px; font-weight:bold;""
                            >serious</p>
                            <div style=""width:240px; margin: auto;"">
                                <img src=""images/gray_27.png"" style= ""width:200px""alt=""img"">
                            </div>
                        </div>","78","","0","images/gray_27.png","","","","serious"
"","","","","","html-slider-response","74","251090","0.0-66.0","3f3cxjy2g9","NaN","<div style=""width:500px;"">
                            <p style=""font-size:50px; font-weight:bold;""
                            >serious</p>
                            <div style=""width:240px; margin: auto;"">
                                <img src=""images/gray_34.png"" style= ""width:200px""alt=""img"">
                            </div>
                        </div>","-34","","0","images/gray_34.png","","","","serious"
"","","","","","html-slider-response","75","252346","0.0-67.0","3f3cxjy2g9","NaN","<div style=""width:500px;"">
                            <p style=""font-size:50px; font-weight:bold;""
                            >serious</p>
                            <div style=""width:240px; margin: auto;"">
                                <img src=""images/gray_16.png"" style= ""width:200px""alt=""img"">
                            </div>
                        </div>","-36","","0","images/gray_16.png","","","","serious"
"","","","","","html-slider-response","76","253745","0.0-68.0","3f3cxjy2g9","NaN","<div style=""width:500px;"">
                            <p style=""font-size:50px; font-weight:bold;""
                            >serious</p>
                            <div style=""width:240px; margin: auto;"">
                                <img src=""images/gray_11.png"" style= ""width:200px""alt=""img"">
                            </div>
                        </div>","-20","","0","images/gray_11.png","","","","serious"
"","","","","","html-slider-response","77","255245","0.0-69.0","3f3cxjy2g9","NaN","<div style=""width:500px;"">
                            <p style=""font-size:50px; font-weight:bold;""
                            >serious</p>
                            <div style=""width:240px; margin: auto;"">
                                <img src=""images/gray_38.png"" style= ""width:200px""alt=""img"">
                            </div>
                        </div>","-22","","0","images/gray_38.png","","","","serious"
"","","","","","html-slider-response","78","256777","0.0-70.0","3f3cxjy2g9","NaN","<div style=""width:500px;"">
                            <p style=""font-size:50px; font-weight:bold;""
                            >serious</p>
                            <div style=""width:240px; margin: auto;"">
                                <img src=""images/gray_04.png"" style= ""width:200px""alt=""img"">
                            </div>
                        </div>","-25","","0","images/gray_04.png","","","","serious"
"","","","","","html-slider-response","79","258071","0.0-71.0","3f3cxjy2g9","NaN","<div style=""width:500px;"">
                            <p style=""font-size:50px; font-weight:bold;""
                            >serious</p>
                            <div style=""width:240px; margin: auto;"">
                                <img src=""images/gray_29.png"" style= ""width:200px""alt=""img"">
                            </div>
                        </div>","-35","","0","images/gray_29.png","","","","serious"
"","","","","","html-slider-response","80","259446","0.0-72.0","3f3cxjy2g9","NaN","<div style=""width:500px;"">
                            <p style=""font-size:50px; font-weight:bold;""
                            >serious</p>
                            <div style=""width:240px; margin: auto;"">
                                <img src=""images/gray_09.png"" style= ""width:200px""alt=""img"">
                            </div>
                        </div>","-67","","0","images/gray_09.png","","","","serious"
"","","","","","html-slider-response","81","260823","0.0-73.0","3f3cxjy2g9","NaN","<div style=""width:500px;"">
                            <p style=""font-size:50px; font-weight:bold;""
                            >serious</p>
                            <div style=""width:240px; margin: auto;"">
                                <img src=""images/gray_44.png"" style= ""width:200px""alt=""img"">
                            </div>
                        </div>","40","","0","images/gray_44.png","","","","serious"
"","","","","","html-slider-response","82","262370","0.0-74.0","3f3cxjy2g9","NaN","<div style=""width:500px;"">
                            <p style=""font-size:50px; font-weight:bold;""
                            >serious</p>
                            <div style=""width:240px; margin: auto;"">
                                <img src=""images/gray_31.png"" style= ""width:200px""alt=""img"">
                            </div>
                        </div>","62","","0","images/gray_31.png","","","","serious"
"","","","","","html-slider-response","83","263795","0.0-75.0","3f3cxjy2g9","NaN","<div style=""width:500px;"">
                            <p style=""font-size:50px; font-weight:bold;""
                            >serious</p>
                            <div style=""width:240px; margin: auto;"">
                                <img src=""images/gray_35.png"" style= ""width:200px""alt=""img"">
                            </div>
                        </div>","61","","0","images/gray_35.png","","","","serious"
"","","","","","html-slider-response","84","265319","0.0-76.0","3f3cxjy2g9","NaN","<div style=""width:500px;"">
                            <p style=""font-size:50px; font-weight:bold;""
                            >serious</p>
                            <div style=""width:240px; margin: auto;"">
                                <img src=""images/gray_17.png"" style= ""width:200px""alt=""img"">
                            </div>
                        </div>","60","","0","images/gray_17.png","","","","serious"
"","","","","","html-slider-response","85","266872","0.0-77.0","3f3cxjy2g9","NaN","<div style=""width:500px;"">
                            <p style=""font-size:50px; font-weight:bold;""
                            >serious</p>
                            <div style=""width:240px; margin: auto;"">
                                <img src=""images/gray_02.png"" style= ""width:200px""alt=""img"">
                            </div>
                        </div>","43","","0","images/gray_02.png","","","","serious"
"","","","","","html-slider-response","86","268187","0.0-78.0","3f3cxjy2g9","NaN","<div style=""width:500px;"">
                            <p style=""font-size:50px; font-weight:bold;""
                            >serious</p>
                            <div style=""width:240px; margin: auto;"">
                                <img src=""images/gray_21.png"" style= ""width:200px""alt=""img"">
                            </div>
                        </div>","57","","0","images/gray_21.png","","","","serious"
"","","","","","html-slider-response","87","269580","0.0-79.0","3f3cxjy2g9","NaN","<div style=""width:500px;"">
                            <p style=""font-size:50px; font-weight:bold;""
                            >serious</p>
                            <div style=""width:240px; margin: auto;"">
                                <img src=""images/gray_05.png"" style= ""width:200px""alt=""img"">
                            </div>
                        </div>","72","","0","images/gray_05.png","","","","serious"
"","","","","","html-slider-response","88","270896","0.0-80.0","3f3cxjy2g9","NaN","<div style=""width:500px;"">
                            <p style=""font-size:50px; font-weight:bold;""
                            >serious</p>
                            <div style=""width:240px; margin: auto;"">
                                <img src=""images/gray_18.png"" style= ""width:200px""alt=""img"">
                            </div>
                        </div>","66","","0","images/gray_18.png","","","","serious"
"","","","","","html-slider-response","89","272218","0.0-81.0","3f3cxjy2g9","NaN","<div style=""width:500px;"">
                            <p style=""font-size:50px; font-weight:bold;""
                            >serious</p>
                            <div style=""width:240px; margin: auto;"">
                                <img src=""images/gray_28.png"" style= ""width:200px""alt=""img"">
                            </div>
                        </div>","58","","0","images/gray_28.png","","","","serious"
"","","","","","html-slider-response","90","299643","0.0-82.0","3f3cxjy2g9","NaN","<div style=""width:500px;"">
                            <p style=""font-size:50px; font-weight:bold;""
                            >serious</p>
                            <div style=""width:240px; margin: auto;"">
                                <img src=""images/gray_14.png"" style= ""width:200px""alt=""img"">
                            </div>
                        </div>","83","","0","images/gray_14.png","","","","serious"
"","","","","","html-slider-response","91","300897","0.0-83.0","3f3cxjy2g9","NaN","<div style=""width:500px;"">
                            <p style=""font-size:50px; font-weight:bold;""
                            >serious</p>
                            <div style=""width:240px; margin: auto;"">
                                <img src=""images/gray_03.png"" style= ""width:200px""alt=""img"">
                            </div>
                        </div>","66","","0","images/gray_03.png","","","","serious"
"","","","","","html-slider-response","92","302306","0.0-84.0","3f3cxjy2g9","NaN","<div style=""width:500px;"">
                            <p style=""font-size:50px; font-weight:bold;""
                            >serious</p>
                            <div style=""width:240px; margin: auto;"">
                                <img src=""images/gray_24.png"" style= ""width:200px""alt=""img"">
                            </div>
                        </div>","-52","","0","images/gray_24.png","","","","serious"
"","","","","","html-slider-response","93","303914","0.0-85.0","3f3cxjy2g9","NaN","<div style=""width:500px;"">
                            <p style=""font-size:50px; font-weight:bold;""
                            >serious</p>
                            <div style=""width:240px; margin: auto;"">
                                <img src=""images/gray_15.png"" style= ""width:200px""alt=""img"">
                            </div>
                        </div>","38","","0","images/gray_15.png","","","","serious"
"","","","","","html-slider-response","94","314743","0.0-86.0","3f3cxjy2g9","NaN","<div style=""width:500px;"">
                            <p style=""font-size:50px; font-weight:bold;""
                            >serious</p>
                            <div style=""width:240px; margin: auto;"">
                                <img src=""images/gray_06.png"" style= ""width:200px""alt=""img"">
                            </div>
                        </div>","34","","0","images/gray_06.png","","","","serious"
"","","","","","html-slider-response","95","316243","0.0-87.0","3f3cxjy2g9","NaN","<div style=""width:500px;"">
                            <p style=""font-size:50px; font-weight:bold;""
                            >serious</p>
                            <div style=""width:240px; margin: auto;"">
                                <img src=""images/gray_23.png"" style= ""width:200px""alt=""img"">
                            </div>
                        </div>","116","","0","images/gray_23.png","","","","serious"
"","","","","","html-slider-response","96","326035","0.0-88.0","3f3cxjy2g9","NaN","<div style=""width:500px;"">
                            <p style=""font-size:50px; font-weight:bold;""
                            >serious</p>
                            <div style=""width:240px; margin: auto;"">
                                <img src=""images/gray_19.png"" style= ""width:200px""alt=""img"">
                            </div>
                        </div>","41","","0","images/gray_19.png","","","","serious"
"","","","","","html-slider-response","97","328099","0.0-89.0","3f3cxjy2g9","NaN","<div style=""width:500px;"">
                            <p style=""font-size:50px; font-weight:bold;""
                            >serious</p>
                            <div style=""width:240px; margin: auto;"">
                                <img src=""images/gray_10.png"" style= ""width:200px""alt=""img"">
                            </div>
                        </div>","63","","0","images/gray_10.png","","","","serious"
"","","","","","html-slider-response","98","329615","0.0-90.0","3f3cxjy2g9","NaN","<div style=""width:500px;"">
                            <p style=""font-size:50px; font-weight:bold;""
                            >serious</p>
                            <div style=""width:240px; margin: auto;"">
                                <img src=""images/gray_32.png"" style= ""width:200px""alt=""img"">
                            </div>
                        </div>","56","","0","images/gray_32.png","","","","serious"
"","","","","","html-slider-response","99","331050","0.0-91.0","3f3cxjy2g9","NaN","<div style=""width:500px;"">
                            <p style=""font-size:50px; font-weight:bold;""
                            >serious</p>
                            <div style=""width:240px; margin: auto;"">
                                <img src=""images/gray_36.png"" style= ""width:200px""alt=""img"">
                            </div>
                        </div>","69","","0","images/gray_36.png","","","","serious"
"","","","","","html-slider-response","100","332282","0.0-92.0","3f3cxjy2g9","NaN","<div style=""width:500px;"">
                            <p style=""font-size:50px; font-weight:bold;""
                            >serious</p>
                            <div style=""width:240px; margin: auto;"">
                                <img src=""images/gray_20.png"" style= ""width:200px""alt=""img"">
                            </div>
                        </div>","51","","0","images/gray_20.png","","","","serious"
"","","","","","html-slider-response","101","333727","0.0-93.0","3f3cxjy2g9","NaN","<div style=""width:500px;"">
                            <p style=""font-size:50px; font-weight:bold;""
                            >serious</p>
                            <div style=""width:240px; margin: auto;"">
                                <img src=""images/gray_37.png"" style= ""width:200px""alt=""img"">
                            </div>
                        </div>","-37","","0","images/gray_37.png","","","","serious"
"","","","","","html-slider-response","102","335051","0.0-94.0","3f3cxjy2g9","NaN","<div style=""width:500px;"">
                            <p style=""font-size:50px; font-weight:bold;""
                            >serious</p>
                            <div style=""width:240px; margin: auto;"">
                                <img src=""images/gray_33.png"" style= ""width:200px""alt=""img"">
                            </div>
                        </div>","-22","","0","images/gray_33.png","","","","serious"
"","","","","","html-slider-response","103","336491","0.0-95.0","3f3cxjy2g9","NaN","<div style=""width:500px;"">
                            <p style=""font-size:50px; font-weight:bold;""
                            >serious</p>
                            <div style=""width:240px; margin: auto;"">
                                <img src=""images/gray_41.png"" style= ""width:200px""alt=""img"">
                            </div>
                        </div>","21","","0","images/gray_41.png","","","","serious"
"","","","","","html-slider-response","104","337868","0.0-96.0","3f3cxjy2g9","NaN","<div style=""width:500px;"">
                            <p style=""font-size:50px; font-weight:bold;""
                            >serious</p>
                            <div style=""width:240px; margin: auto;"">
                                <img src=""images/gray_40.png"" style= ""width:200px""alt=""img"">
                            </div>
                        </div>","22","","0","images/gray_40.png","","","","serious"
"","","","","","html-slider-response","105","339017","0.0-97.0","3f3cxjy2g9","NaN","<div style=""width:500px;"">
                            <p style=""font-size:50px; font-weight:bold;""
                            >serious</p>
                            <div style=""width:240px; margin: auto;"">
                                <img src=""images/gray_30.png"" style= ""width:200px""alt=""img"">
                            </div>
                        </div>","42","","0","images/gray_30.png","","","","serious"
"","","","","","html-slider-response","106","340350","0.0-98.0","3f3cxjy2g9","NaN","<div style=""width:500px;"">
                            <p style=""font-size:50px; font-weight:bold;""
                            >serious</p>
                            <div style=""width:240px; margin: auto;"">
                                <img src=""images/gray_12.png"" style= ""width:200px""alt=""img"">
                            </div>
                        </div>","104","","0","images/gray_12.png","","","","serious"
"","","","","","html-slider-response","107","341921","0.0-99.0","3f3cxjy2g9","NaN","<div style=""width:500px;"">
                            <p style=""font-size:50px; font-weight:bold;""
                            >serious</p>
                            <div style=""width:240px; margin: auto;"">
                                <img src=""images/gray_43.png"" style= ""width:200px""alt=""img"">
                            </div>
                        </div>","97","","0","images/gray_43.png","","","","serious"
"","","","","","html-slider-response","108","343378","0.0-100.0","3f3cxjy2g9","NaN","<div style=""width:500px;"">
                            <p style=""font-size:50px; font-weight:bold;""
                            >serious</p>
                            <div style=""width:240px; margin: auto;"">
                                <img src=""images/gray_26.png"" style= ""width:200px""alt=""img"">
                            </div>
                        </div>","85","","0","images/gray_26.png","","","","serious"
"","","","","","html-slider-response","109","344754","0.0-101.0","3f3cxjy2g9","NaN","<div style=""width:500px;"">
                            <p style=""font-size:50px; font-weight:bold;""
                            >serious</p>
                            <div style=""width:240px; margin: auto;"">
                                <img src=""images/gray_42.png"" style= ""width:200px""alt=""img"">
                            </div>
                        </div>","98","","0","images/gray_42.png","","","","serious"
"","","","","","html-slider-response","110","346111","0.0-102.0","3f3cxjy2g9","NaN","<div style=""width:500px;"">
                            <p style=""font-size:50px; font-weight:bold;""
                            >serious</p>
                            <div style=""width:240px; margin: auto;"">
                                <img src=""images/gray_22.png"" style= ""width:200px""alt=""img"">
                            </div>
                        </div>","36","","0","images/gray_22.png","","","","serious"
"","","","","","html-slider-response","111","347587","0.0-103.0","3f3cxjy2g9","NaN","<div style=""width:500px;"">
                            <p style=""font-size:50px; font-weight:bold;""
                            >serious</p>
                            <div style=""width:240px; margin: auto;"">
                                <img src=""images/gray_25.png"" style= ""width:200px""alt=""img"">
                            </div>
                        </div>","-34","","0","images/gray_25.png","","","","serious"
"","","","","","html-button-response","112","349010","0.0-104.0","3f3cxjy2g9","909","<p>Great Job! You've finished block 2.<br></br> You have 6 block(s) left to go.<br></br></p>","0","","","","","","",""
"","","","","","html-button-response","113","349786","0.0-105.0","3f3cxjy2g9","774","<p>In this block of trials, you will be asked to rate how much you associate each map with:</p > <p style = 'font-size:150%; font-weight: bold'>positive</p><br></br>","0","","","","","","",""
"","","","","","html-slider-response","114","351239","0.0-106.0","3f3cxjy2g9","NaN","<div style=""width:500px;"">
                            <p style=""font-size:50px; font-weight:bold;""
                            >positive</p>
                            <div style=""width:240px; margin: auto;"">
                                <img src=""images/gray_10.png"" style= ""width:200px""alt=""img"">
                            </div>
                        </div>","61","","0","images/gray_10.png","","","","positive"
"","","","","","html-slider-response","115","352726","0.0-107.0","3f3cxjy2g9","NaN","<div style=""width:500px;"">
                            <p style=""font-size:50px; font-weight:bold;""
                            >positive</p>
                            <div style=""width:240px; margin: auto;"">
                                <img src=""images/gray_09.png"" style= ""width:200px""alt=""img"">
                            </div>
                        </div>","63","","0","images/gray_09.png","","","","positive"
"","","","","","html-slider-response","116","354340","0.0-108.0","3f3cxjy2g9","NaN","<div style=""width:500px;"">
                            <p style=""font-size:50px; font-weight:bold;""
                            >positive</p>
                            <div style=""width:240px; margin: auto;"">
                                <img src=""images/gray_32.png"" style= ""width:200px""alt=""img"">
                            </div>
                        </div>","106","","0","images/gray_32.png","","","","positive"
"","","","","","html-slider-response","117","355791","0.0-109.0","3f3cxjy2g9","NaN","<div style=""width:500px;"">
                            <p style=""font-size:50px; font-weight:bold;""
                            >positive</p>
                            <div style=""width:240px; margin: auto;"">
                                <img src=""images/gray_27.png"" style= ""width:200px""alt=""img"">
                            </div>
                        </div>","113","","0","images/gray_27.png","","","","positive"
"","","","","","html-slider-response","118","357328","0.0-110.0","3f3cxjy2g9","NaN","<div style=""width:500px;"">
                            <p style=""font-size:50px; font-weight:bold;""
                            >positive</p>
                            <div style=""width:240px; margin: auto;"">
                                <img src=""images/gray_04.png"" style= ""width:200px""alt=""img"">
                            </div>
                        </div>","150","","0","images/gray_04.png","","","","positive"
"","","","","","html-slider-response","119","358621","0.0-111.0","3f3cxjy2g9","NaN","<div style=""width:500px;"">
                            <p style=""font-size:50px; font-weight:bold;""
                            >positive</p>
                            <div style=""width:240px; margin: auto;"">
                                <img src=""images/gray_35.png"" style= ""width:200px""alt=""img"">
                            </div>
                        </div>","34","","0","images/gray_35.png","","","","positive"
"","","","","","html-slider-response","120","359866","0.0-112.0","3f3cxjy2g9","NaN","<div style=""width:500px;"">
                            <p style=""font-size:50px; font-weight:bold;""
                            >positive</p>
                            <div style=""width:240px; margin: auto;"">
                                <img src=""images/gray_13.png"" style= ""width:200px""alt=""img"">
                            </div>
                        </div>","39","","0","images/gray_13.png","","","","positive"
"","","","","","html-slider-response","121","360917","0.0-113.0","3f3cxjy2g9","NaN","<div style=""width:500px;"">
                            <p style=""font-size:50px; font-weight:bold;""
                            >positive</p>
                            <div style=""width:240px; margin: auto;"">
                                <img src=""images/gray_05.png"" style= ""width:200px""alt=""img"">
                            </div>
                        </div>","45","","0","images/gray_05.png","","","","positive"
"","","","","","html-slider-response","122","361917","0.0-114.0","3f3cxjy2g9","NaN","<div style=""width:500px;"">
                            <p style=""font-size:50px; font-weight:bold;""
                            >positive</p>
                            <div style=""width:240px; margin: auto;"">
                                <img src=""images/gray_16.png"" style= ""width:200px""alt=""img"">
                            </div>
                        </div>","84","","0","images/gray_16.png","","","","positive"
"","","","","","html-slider-response","123","363075","0.0-115.0","3f3cxjy2g9","NaN","<div style=""width:500px;"">
                            <p style=""font-size:50px; font-weight:bold;""
                            >positive</p>
                            <div style=""width:240px; margin: auto;"">
                                <img src=""images/gray_38.png"" style= ""width:200px""alt=""img"">
                            </div>
                        </div>","84","","0","images/gray_38.png","","","","positive"
"","","","","","html-slider-response","124","363967","0.0-116.0","3f3cxjy2g9","NaN","<div style=""width:500px;"">
                            <p style=""font-size:50px; font-weight:bold;""
                            >positive</p>
                            <div style=""width:240px; margin: auto;"">
                                <img src=""images/gray_40.png"" style= ""width:200px""alt=""img"">
                            </div>
                        </div>","122","","0","images/gray_40.png","","","","positive"
"","","","","","html-slider-response","125","364831","0.0-117.0","3f3cxjy2g9","NaN","<div style=""width:500px;"">
                            <p style=""font-size:50px; font-weight:bold;""
                            >positive</p>
                            <div style=""width:240px; margin: auto;"">
                                <img src=""images/gray_37.png"" style= ""width:200px""alt=""img"">
                            </div>
                        </div>","122","","0","images/gray_37.png","","","","positive"
"","","","","","html-slider-response","126","365590","0.0-118.0","3f3cxjy2g9","NaN","<div style=""width:500px;"">
                            <p style=""font-size:50px; font-weight:bold;""
                            >positive</p>
                            <div style=""width:240px; margin: auto;"">
                                <img src=""images/gray_34.png"" style= ""width:200px""alt=""img"">
                            </div>
                        </div>","122","","0","images/gray_34.png","","","","positive"
"","","","","","html-slider-response","127","366297","0.0-119.0","3f3cxjy2g9","NaN","<div style=""width:500px;"">
                            <p style=""font-size:50px; font-weight:bold;""
                            >positive</p>
                            <div style=""width:240px; margin: auto;"">
                                <img src=""images/gray_44.png"" style= ""width:200px""alt=""img"">
                            </div>
                        </div>","122","","0","images/gray_44.png","","","","positive"
"","","","","","html-slider-response","128","367323","0.0-120.0","3f3cxjy2g9","NaN","<div style=""width:500px;"">
                            <p style=""font-size:50px; font-weight:bold;""
                            >positive</p>
                            <div style=""width:240px; margin: auto;"">
                                <img src=""images/gray_42.png"" style= ""width:200px""alt=""img"">
                            </div>
                        </div>","154","","0","images/gray_42.png","","","","positive"
"","","","","","html-slider-response","129","368592","0.0-121.0","3f3cxjy2g9","NaN","<div style=""width:500px;"">
                            <p style=""font-size:50px; font-weight:bold;""
                            >positive</p>
                            <div style=""width:240px; margin: auto;"">
                                <img src=""images/gray_08.png"" style= ""width:200px""alt=""img"">
                            </div>
                        </div>","51","","0","images/gray_08.png","","","","positive"
"","","","","","html-slider-response","130","371814","0.0-122.0","3f3cxjy2g9","NaN","<div style=""width:500px;"">
                            <p style=""font-size:50px; font-weight:bold;""
                            >positive</p>
                            <div style=""width:240px; margin: auto;"">
                                <img src=""images/gray_18.png"" style= ""width:200px""alt=""img"">
                            </div>
                        </div>","37","","0","images/gray_18.png","","","","positive"
"","","","","","html-slider-response","131","372937","0.0-123.0","3f3cxjy2g9","NaN","<div style=""width:500px;"">
                            <p style=""font-size:50px; font-weight:bold;""
                            >positive</p>
                            <div style=""width:240px; margin: auto;"">
                                <img src=""images/gray_15.png"" style= ""width:200px""alt=""img"">
                            </div>
                        </div>","-24","","0","images/gray_15.png","","","","positive"
"","","","","","html-slider-response","132","373984","0.0-124.0","3f3cxjy2g9","NaN","<div style=""width:500px;"">
                            <p style=""font-size:50px; font-weight:bold;""
                            >positive</p>
                            <div style=""width:240px; margin: auto;"">
                                <img src=""images/gray_14.png"" style= ""width:200px""alt=""img"">
                            </div>
                        </div>","66","","0","images/gray_14.png","","","","positive"
"","","","","","html-slider-response","133","375135","0.0-125.0","3f3cxjy2g9","NaN","<div style=""width:500px;"">
                            <p style=""font-size:50px; font-weight:bold;""
                            >positive</p>
                            <div style=""width:240px; margin: auto;"">
                                <img src=""images/gray_31.png"" style= ""width:200px""alt=""img"">
                            </div>
                        </div>","-20","","0","images/gray_31.png","","","","positive"
"","","","","","html-slider-response","134","376195","0.0-126.0","3f3cxjy2g9","NaN","<div style=""width:500px;"">
                            <p style=""font-size:50px; font-weight:bold;""
                            >positive</p>
                            <div style=""width:240px; margin: auto;"">
                                <img src=""images/gray_17.png"" style= ""width:200px""alt=""img"">
                            </div>
                        </div>","58","","0","images/gray_17.png","","","","positive"
"","","","","","html-slider-response","135","377186","0.0-127.0","3f3cxjy2g9","NaN","<div style=""width:500px;"">
                            <p style=""font-size:50px; font-weight:bold;""
                            >positive</p>
                            <div style=""width:240px; margin: auto;"">
                                <img src=""images/gray_33.png"" style= ""width:200px""alt=""img"">
                            </div>
                        </div>","91","","0","images/gray_33.png","","","","positive"
"","","","","","html-slider-response","136","378395","0.0-128.0","3f3cxjy2g9","NaN","<div style=""width:500px;"">
                            <p style=""font-size:50px; font-weight:bold;""
                            >positive</p>
                            <div style=""width:240px; margin: auto;"">
                                <img src=""images/gray_07.png"" style= ""width:200px""alt=""img"">
                            </div>
                        </div>","22","","0","images/gray_07.png","","","","positive"
"","","","","","html-slider-response","137","379650","0.0-129.0","3f3cxjy2g9","NaN","<div style=""width:500px;"">
                            <p style=""font-size:50px; font-weight:bold;""
                            >positive</p>
                            <div style=""width:240px; margin: auto;"">
                                <img src=""images/gray_11.png"" style= ""width:200px""alt=""img"">
                            </div>
                        </div>","-14","","0","images/gray_11.png","","","","positive"
"","","","","","html-slider-response","138","380777","0.0-130.0","3f3cxjy2g9","NaN","<div style=""width:500px;"">
                            <p style=""font-size:50px; font-weight:bold;""
                            >positive</p>
                            <div style=""width:240px; margin: auto;"">
                                <img src=""images/gray_22.png"" style= ""width:200px""alt=""img"">
                            </div>
                        </div>","56","","0","images/gray_22.png","","","","positive"
"","","","","","html-slider-response","139","393871","0.0-131.0","3f3cxjy2g9","NaN","<div style=""width:500px;"">
                            <p style=""font-size:50px; font-weight:bold;""
                            >positive</p>
                            <div style=""width:240px; margin: auto;"">
                                <img src=""images/gray_41.png"" style= ""width:200px""alt=""img"">
                            </div>
                        </div>","56","","0","images/gray_41.png","","","","positive"
"","","","","","html-slider-response","140","394876","0.0-132.0","3f3cxjy2g9","NaN","<div style=""width:500px;"">
                            <p style=""font-size:50px; font-weight:bold;""
                            >positive</p>
                            <div style=""width:240px; margin: auto;"">
                                <img src=""images/gray_03.png"" style= ""width:200px""alt=""img"">
                            </div>
                        </div>","56","","0","images/gray_03.png","","","","positive"
"","","","","","html-slider-response","141","395862","0.0-133.0","3f3cxjy2g9","NaN","<div style=""width:500px;"">
                            <p style=""font-size:50px; font-weight:bold;""
                            >positive</p>
                            <div style=""width:240px; margin: auto;"">
                                <img src=""images/gray_30.png"" style= ""width:200px""alt=""img"">
                            </div>
                        </div>","56","","0","images/gray_30.png","","","","positive"
"","","","","","html-slider-response","142","396762","0.0-134.0","3f3cxjy2g9","NaN","<div style=""width:500px;"">
                            <p style=""font-size:50px; font-weight:bold;""
                            >positive</p>
                            <div style=""width:240px; margin: auto;"">
                                <img src=""images/gray_29.png"" style= ""width:200px""alt=""img"">
                            </div>
                        </div>","56","","0","images/gray_29.png","","","","positive"
"","","","","","html-slider-response","143","397939","0.0-135.0","3f3cxjy2g9","NaN","<div style=""width:500px;"">
                            <p style=""font-size:50px; font-weight:bold;""
                            >positive</p>
                            <div style=""width:240px; margin: auto;"">
                                <img src=""images/gray_43.png"" style= ""width:200px""alt=""img"">
                            </div>
                        </div>","56","","0","images/gray_43.png","","","","positive"
"","","","","","html-slider-response","144","399005","0.0-136.0","3f3cxjy2g9","NaN","<div style=""width:500px;"">
                            <p style=""font-size:50px; font-weight:bold;""
                            >positive</p>
                            <div style=""width:240px; margin: auto;"">
                                <img src=""images/gray_26.png"" style= ""width:200px""alt=""img"">
                            </div>
                        </div>","74","","0","images/gray_26.png","","","","positive"
"","","","","","html-slider-response","145","399884","0.0-137.0","3f3cxjy2g9","NaN","<div style=""width:500px;"">
                            <p style=""font-size:50px; font-weight:bold;""
                            >positive</p>
                            <div style=""width:240px; margin: auto;"">
                                <img src=""images/gray_21.png"" style= ""width:200px""alt=""img"">
                            </div>
                        </div>","101","","0","images/gray_21.png","","","","positive"
"","","","","","html-slider-response","146","400940","0.0-138.0","3f3cxjy2g9","NaN","<div style=""width:500px;"">
                            <p style=""font-size:50px; font-weight:bold;""
                            >positive</p>
                            <div style=""width:240px; margin: auto;"">
                                <img src=""images/gray_23.png"" style= ""width:200px""alt=""img"">
                            </div>
                        </div>","96","","0","images/gray_23.png","","","","positive"
"","","","","","html-slider-response","147","402018","0.0-139.0","3f3cxjy2g9","NaN","<div style=""width:500px;"">
                            <p style=""font-size:50px; font-weight:bold;""
                            >positive</p>
                            <div style=""width:240px; margin: auto;"">
                                <img src=""images/gray_25.png"" style= ""width:200px""alt=""img"">
                            </div>
                        </div>","106","","0","images/gray_25.png","","","","positive"
"","","","","","html-slider-response","148","405556","0.0-140.0","3f3cxjy2g9","NaN","<div style=""width:500px;"">
                            <p style=""font-size:50px; font-weight:bold;""
                            >positive</p>
                            <div style=""width:240px; margin: auto;"">
                                <img src=""images/gray_12.png"" style= ""width:200px""alt=""img"">
                            </div>
                        </div>","106","","0","images/gray_12.png","","","","positive"
"","","","","","html-slider-response","149","407462","0.0-141.0","3f3cxjy2g9","NaN","<div style=""width:500px;"">
                            <p style=""font-size:50px; font-weight:bold;""
                            >positive</p>
                            <div style=""width:240px; margin: auto;"">
                                <img src=""images/gray_24.png"" style= ""width:200px""alt=""img"">
                            </div>
                        </div>","113","","0","images/gray_24.png","","","","positive"
"","","","","","html-slider-response","150","408415","0.0-142.0","3f3cxjy2g9","NaN","<div style=""width:500px;"">
                            <p style=""font-size:50px; font-weight:bold;""
                            >positive</p>
                            <div style=""width:240px; margin: auto;"">
                                <img src=""images/gray_28.png"" style= ""width:200px""alt=""img"">
                            </div>
                        </div>","126","","0","images/gray_28.png","","","","positive"
"","","","","","html-slider-response","151","409343","0.0-143.0","3f3cxjy2g9","NaN","<div style=""width:500px;"">
                            <p style=""font-size:50px; font-weight:bold;""
                            >positive</p>
                            <div style=""width:240px; margin: auto;"">
                                <img src=""images/gray_39.png"" style= ""width:200px""alt=""img"">
                            </div>
                        </div>","123","","0","images/gray_39.png","","","","positive"
"","","","","","html-slider-response","152","411638","0.0-144.0","3f3cxjy2g9","NaN","<div style=""width:500px;"">
                            <p style=""font-size:50px; font-weight:bold;""
                            >positive</p>
                            <div style=""width:240px; margin: auto;"">
                                <img src=""images/gray_01.png"" style= ""width:200px""alt=""img"">
                            </div>
                        </div>","123","","0","images/gray_01.png","","","","positive"
"","","","","","html-slider-response","153","412577","0.0-145.0","3f3cxjy2g9","NaN","<div style=""width:500px;"">
                            <p style=""font-size:50px; font-weight:bold;""
                            >positive</p>
                            <div style=""width:240px; margin: auto;"">
                                <img src=""images/gray_36.png"" style= ""width:200px""alt=""img"">
                            </div>
                        </div>","123","","0","images/gray_36.png","","","","positive"
"","","","","","html-slider-response","154","413547","0.0-146.0","3f3cxjy2g9","NaN","<div style=""width:500px;"">
                            <p style=""font-size:50px; font-weight:bold;""
                            >positive</p>
                            <div style=""width:240px; margin: auto;"">
                                <img src=""images/gray_02.png"" style= ""width:200px""alt=""img"">
                            </div>
                        </div>","126","","0","images/gray_02.png","","","","positive"
"","","","","","html-slider-response","155","415385","0.0-147.0","3f3cxjy2g9","NaN","<div style=""width:500px;"">
                            <p style=""font-size:50px; font-weight:bold;""
                            >positive</p>
                            <div style=""width:240px; margin: auto;"">
                                <img src=""images/gray_19.png"" style= ""width:200px""alt=""img"">
                            </div>
                        </div>","126","","0","images/gray_19.png","","","","positive"
"","","","","","html-slider-response","156","416607","0.0-148.0","3f3cxjy2g9","NaN","<div style=""width:500px;"">
                            <p style=""font-size:50px; font-weight:bold;""
                            >positive</p>
                            <div style=""width:240px; margin: auto;"">
                                <img src=""images/gray_20.png"" style= ""width:200px""alt=""img"">
                            </div>
                        </div>","38","","0","images/gray_20.png","","","","positive"
"","","","","","html-slider-response","157","417713","0.0-149.0","3f3cxjy2g9","NaN","<div style=""width:500px;"">
                            <p style=""font-size:50px; font-weight:bold;""
                            >positive</p>
                            <div style=""width:240px; margin: auto;"">
                                <img src=""images/gray_06.png"" style= ""width:200px""alt=""img"">
                            </div>
                        </div>","43","","0","images/gray_06.png","","","","positive"
"","","","","","html-button-response","158","421571","0.0-150.0","3f3cxjy2g9","3353","<p>Great Job! You've finished block 3.<br></br> You have 5 block(s) left to go.<br></br></p>","0","","","","","","",""
"","","","","","html-button-response","159","422249","0.0-151.0","3f3cxjy2g9","675","<p>In this block of trials, you will be asked to rate how much you associate each map with:</p > <p style = 'font-size:150%; font-weight: bold'>exciting</p><br></br>","0","","","","","","",""
"","","","","","html-slider-response","160","423279","0.0-152.0","3f3cxjy2g9","NaN","<div style=""width:500px;"">
                            <p style=""font-size:50px; font-weight:bold;""
                            >exciting</p>
                            <div style=""width:240px; margin: auto;"">
                                <img src=""images/gray_20.png"" style= ""width:200px""alt=""img"">
                            </div>
                        </div>","30","","0","images/gray_20.png","","","","exciting"
"","","","","","html-slider-response","161","423957","0.0-153.0","3f3cxjy2g9","NaN","<div style=""width:500px;"">
                            <p style=""font-size:50px; font-weight:bold;""
                            >exciting</p>
                            <div style=""width:240px; margin: auto;"">
                                <img src=""images/gray_01.png"" style= ""width:200px""alt=""img"">
                            </div>
                        </div>","30","","0","images/gray_01.png","","","","exciting"
"","","","","","html-slider-response","162","424808","0.0-154.0","3f3cxjy2g9","NaN","<div style=""width:500px;"">
                            <p style=""font-size:50px; font-weight:bold;""
                            >exciting</p>
                            <div style=""width:240px; margin: auto;"">
                                <img src=""images/gray_43.png"" style= ""width:200px""alt=""img"">
                            </div>
                        </div>","30","","0","images/gray_43.png","","","","exciting"
"","","","","","html-slider-response","163","425658","0.0-155.0","3f3cxjy2g9","NaN","<div style=""width:500px;"">
                            <p style=""font-size:50px; font-weight:bold;""
                            >exciting</p>
                            <div style=""width:240px; margin: auto;"">
                                <img src=""images/gray_19.png"" style= ""width:200px""alt=""img"">
                            </div>
                        </div>","101","","0","images/gray_19.png","","","","exciting"
"","","","","","html-slider-response","164","426377","0.0-156.0","3f3cxjy2g9","NaN","<div style=""width:500px;"">
                            <p style=""font-size:50px; font-weight:bold;""
                            >exciting</p>
                            <div style=""width:240px; margin: auto;"">
                                <img src=""images/gray_23.png"" style= ""width:200px""alt=""img"">
                            </div>
                        </div>","62","","0","images/gray_23.png","","","","exciting"
"","","","","","html-slider-response","165","427088","0.0-157.0","3f3cxjy2g9","NaN","<div style=""width:500px;"">
                            <p style=""font-size:50px; font-weight:bold;""
                            >exciting</p>
                            <div style=""width:240px; margin: auto;"">
                                <img src=""images/gray_24.png"" style= ""width:200px""alt=""img"">
                            </div>
                        </div>","107","","0","images/gray_24.png","","","","exciting"
"","","","","","html-slider-response","166","427886","0.0-158.0","3f3cxjy2g9","NaN","<div style=""width:500px;"">
                            <p style=""font-size:50px; font-weight:bold;""
                            >exciting</p>
                            <div style=""width:240px; margin: auto;"">
                                <img src=""images/gray_14.png"" style= ""width:200px""alt=""img"">
                            </div>
                        </div>","166","","0","images/gray_14.png","","","","exciting"
"","","","","","html-slider-response","167","428564","0.0-159.0","3f3cxjy2g9","NaN","<div style=""width:500px;"">
                            <p style=""font-size:50px; font-weight:bold;""
                            >exciting</p>
                            <div style=""width:240px; margin: auto;"">
                                <img src=""images/gray_17.png"" style= ""width:200px""alt=""img"">
                            </div>
                        </div>","74","","0","images/gray_17.png","","","","exciting"
"","","","","","html-slider-response","168","429299","0.0-160.0","3f3cxjy2g9","NaN","<div style=""width:500px;"">
                            <p style=""font-size:50px; font-weight:bold;""
                            >exciting</p>
                            <div style=""width:240px; margin: auto;"">
                                <img src=""images/gray_26.png"" style= ""width:200px""alt=""img"">
                            </div>
                        </div>","99","","0","images/gray_26.png","","","","exciting"
"","","","","","html-slider-response","169","430083","0.0-161.0","3f3cxjy2g9","NaN","<div style=""width:500px;"">
                            <p style=""font-size:50px; font-weight:bold;""
                            >exciting</p>
                            <div style=""width:240px; margin: auto;"">
                                <img src=""images/gray_05.png"" style= ""width:200px""alt=""img"">
                            </div>
                        </div>","59","","0","images/gray_05.png","","","","exciting"
"","","","","","html-slider-response","170","430896","0.0-162.0","3f3cxjy2g9","NaN","<div style=""width:500px;"">
                            <p style=""font-size:50px; font-weight:bold;""
                            >exciting</p>
                            <div style=""width:240px; margin: auto;"">
                                <img src=""images/gray_29.png"" style= ""width:200px""alt=""img"">
                            </div>
                        </div>","81","","0","images/gray_29.png","","","","exciting"
"","","","","","html-slider-response","171","431588","0.0-163.0","3f3cxjy2g9","NaN","<div style=""width:500px;"">
                            <p style=""font-size:50px; font-weight:bold;""
                            >exciting</p>
                            <div style=""width:240px; margin: auto;"">
                                <img src=""images/gray_39.png"" style= ""width:200px""alt=""img"">
                            </div>
                        </div>","116","","0","images/gray_39.png","","","","exciting"
"","","","","","html-slider-response","172","432370","0.0-164.0","3f3cxjy2g9","NaN","<div style=""width:500px;"">
                            <p style=""font-size:50px; font-weight:bold;""
                            >exciting</p>
                            <div style=""width:240px; margin: auto;"">
                                <img src=""images/gray_18.png"" style= ""width:200px""alt=""img"">
                            </div>
                        </div>","61","","0","images/gray_18.png","","","","exciting"
"","","","","","html-slider-response","173","433208","0.0-165.0","3f3cxjy2g9","NaN","<div style=""width:500px;"">
                            <p style=""font-size:50px; font-weight:bold;""
                            >exciting</p>
                            <div style=""width:240px; margin: auto;"">
                                <img src=""images/gray_41.png"" style= ""width:200px""alt=""img"">
                            </div>
                        </div>","109","","0","images/gray_41.png","","","","exciting"
"","","","","","html-slider-response","174","434003","0.0-166.0","3f3cxjy2g9","NaN","<div style=""width:500px;"">
                            <p style=""font-size:50px; font-weight:bold;""
                            >exciting</p>
                            <div style=""width:240px; margin: auto;"">
                                <img src=""images/gray_11.png"" style= ""width:200px""alt=""img"">
                            </div>
                        </div>","58","","0","images/gray_11.png","","","","exciting"
"","","","","","html-slider-response","175","434782","0.0-167.0","3f3cxjy2g9","NaN","<div style=""width:500px;"">
                            <p style=""font-size:50px; font-weight:bold;""
                            >exciting</p>
                            <div style=""width:240px; margin: auto;"">
                                <img src=""images/gray_37.png"" style= ""width:200px""alt=""img"">
                            </div>
                        </div>","106","","0","images/gray_37.png","","","","exciting"
"","","","","","html-slider-response","176","435549","0.0-168.0","3f3cxjy2g9","NaN","<div style=""width:500px;"">
                            <p style=""font-size:50px; font-weight:bold;""
                            >exciting</p>
                            <div style=""width:240px; margin: auto;"">
                                <img src=""images/gray_07.png"" style= ""width:200px""alt=""img"">
                            </div>
                        </div>","65","","0","images/gray_07.png","","","","exciting"
"","","","","","html-slider-response","177","436356","0.0-169.0","3f3cxjy2g9","NaN","<div style=""width:500px;"">
                            <p style=""font-size:50px; font-weight:bold;""
                            >exciting</p>
                            <div style=""width:240px; margin: auto;"">
                                <img src=""images/gray_12.png"" style= ""width:200px""alt=""img"">
                            </div>
                        </div>","122","","0","images/gray_12.png","","","","exciting"
"","","","","","html-slider-response","178","437313","0.0-170.0","3f3cxjy2g9","NaN","<div style=""width:500px;"">
                            <p style=""font-size:50px; font-weight:bold;""
                            >exciting</p>
                            <div style=""width:240px; margin: auto;"">
                                <img src=""images/gray_22.png"" style= ""width:200px""alt=""img"">
                            </div>
                        </div>","80","","0","images/gray_22.png","","","","exciting"
"","","","","","html-slider-response","179","438095","0.0-171.0","3f3cxjy2g9","NaN","<div style=""width:500px;"">
                            <p style=""font-size:50px; font-weight:bold;""
                            >exciting</p>
                            <div style=""width:240px; margin: auto;"">
                                <img src=""images/gray_06.png"" style= ""width:200px""alt=""img"">
                            </div>
                        </div>","56","","0","images/gray_06.png","","","","exciting"
"","","","","","html-slider-response","180","438784","0.0-172.0","3f3cxjy2g9","NaN","<div style=""width:500px;"">
                            <p style=""font-size:50px; font-weight:bold;""
                            >exciting</p>
                            <div style=""width:240px; margin: auto;"">
                                <img src=""images/gray_28.png"" style= ""width:200px""alt=""img"">
                            </div>
                        </div>","88","","0","images/gray_28.png","","","","exciting"
"","","","","","html-slider-response","181","439441","0.0-173.0","3f3cxjy2g9","NaN","<div style=""width:500px;"">
                            <p style=""font-size:50px; font-weight:bold;""
                            >exciting</p>
                            <div style=""width:240px; margin: auto;"">
                                <img src=""images/gray_31.png"" style= ""width:200px""alt=""img"">
                            </div>
                        </div>","88","","0","images/gray_31.png","","","","exciting"
"","","","","","html-slider-response","182","440267","0.0-174.0","3f3cxjy2g9","NaN","<div style=""width:500px;"">
                            <p style=""font-size:50px; font-weight:bold;""
                            >exciting</p>
                            <div style=""width:240px; margin: auto;"">
                                <img src=""images/gray_38.png"" style= ""width:200px""alt=""img"">
                            </div>
                        </div>","88","","0","images/gray_38.png","","","","exciting"
"","","","","","html-slider-response","183","441033","0.0-175.0","3f3cxjy2g9","NaN","<div style=""width:500px;"">
                            <p style=""font-size:50px; font-weight:bold;""
                            >exciting</p>
                            <div style=""width:240px; margin: auto;"">
                                <img src=""images/gray_21.png"" style= ""width:200px""alt=""img"">
                            </div>
                        </div>","88","","0","images/gray_21.png","","","","exciting"
"","","","","","html-slider-response","184","441815","0.0-176.0","3f3cxjy2g9","NaN","<div style=""width:500px;"">
                            <p style=""font-size:50px; font-weight:bold;""
                            >exciting</p>
                            <div style=""width:240px; margin: auto;"">
                                <img src=""images/gray_34.png"" style= ""width:200px""alt=""img"">
                            </div>
                        </div>","47","","0","images/gray_34.png","","","","exciting"
"","","","","","html-slider-response","185","442612","0.0-177.0","3f3cxjy2g9","NaN","<div style=""width:500px;"">
                            <p style=""font-size:50px; font-weight:bold;""
                            >exciting</p>
                            <div style=""width:240px; margin: auto;"">
                                <img src=""images/gray_25.png"" style= ""width:200px""alt=""img"">
                            </div>
                        </div>","106","","0","images/gray_25.png","","","","exciting"
"","","","","","html-slider-response","186","443330","0.0-178.0","3f3cxjy2g9","NaN","<div style=""width:500px;"">
                            <p style=""font-size:50px; font-weight:bold;""
                            >exciting</p>
                            <div style=""width:240px; margin: auto;"">
                                <img src=""images/gray_42.png"" style= ""width:200px""alt=""img"">
                            </div>
                        </div>","106","","0","images/gray_42.png","","","","exciting"
"","","","","","html-slider-response","187","443926","0.0-179.0","3f3cxjy2g9","NaN","<div style=""width:500px;"">
                            <p style=""font-size:50px; font-weight:bold;""
                            >exciting</p>
                            <div style=""width:240px; margin: auto;"">
                                <img src=""images/gray_42.png"" style= ""width:200px""alt=""img"">
                            </div>
                        </div>","200","","0","images/gray_10.png","","","","exciting"
"","","","","","html-slider-response","188","445187","0.0-180.0","3f3cxjy2g9","NaN","<div style=""width:500px;"">
                            <p style=""font-size:50px; font-weight:bold;""
                            >exciting</p>
                            <div style=""width:240px; margin: auto;"">
                                <img src=""images/gray_32.png"" style= ""width:200px""alt=""img"">
                            </div>
                        </div>","71","","0","images/gray_32.png","","","","exciting"
"","","","","","html-slider-response","189","445976","0.0-181.0","3f3cxjy2g9","NaN","<div style=""width:500px;"">
                            <p style=""font-size:50px; font-weight:bold;""
                            >exciting</p>
                            <div style=""width:240px; margin: auto;"">
                                <img src=""images/gray_44.png"" style= ""width:200px""alt=""img"">
                            </div>
                        </div>","71","","0","images/gray_44.png","","","","exciting"
"","","","","","html-slider-response","190","447037","0.0-182.0","3f3cxjy2g9","NaN","<div style=""width:500px;"">
                            <p style=""font-size:50px; font-weight:bold;""
                            >exciting</p>
                            <div style=""width:240px; margin: auto;"">
                                <img src=""images/gray_44.png"" style= ""width:200px""alt=""img"">
                            </div>
                        </div>","200","","0","images/gray_40.png","","","","exciting"
"","","","","","html-slider-response","191","448462","0.0-183.0","3f3cxjy2g9","NaN","<div style=""width:500px;"">
                            <p style=""font-size:50px; font-weight:bold;""
                            >exciting</p>
                            <div style=""width:240px; margin: auto;"">
                                <img src=""images/gray_13.png"" style= ""width:200px""alt=""img"">
                            </div>
                        </div>","94","","0","images/gray_13.png","","","","exciting"
"","","","","","html-slider-response","192","450087","0.0-184.0","3f3cxjy2g9","NaN","<div style=""width:500px;"">
                            <p style=""font-size:50px; font-weight:bold;""
                            >exciting</p>
                            <div style=""width:240px; margin: auto;"">
                                <img src=""images/gray_09.png"" style= ""width:200px""alt=""img"">
                            </div>
                        </div>","110","","0","images/gray_09.png","","","","exciting"
"","","","","","html-slider-response","193","451307","0.0-185.0","3f3cxjy2g9","NaN","<div style=""width:500px;"">
                            <p style=""font-size:50px; font-weight:bold;""
                            >exciting</p>
                            <div style=""width:240px; margin: auto;"">
                                <img src=""images/gray_02.png"" style= ""width:200px""alt=""img"">
                            </div>
                        </div>","74","","0","images/gray_02.png","","","","exciting"
"","","","","","html-slider-response","194","452226","0.0-186.0","3f3cxjy2g9","NaN","<div style=""width:500px;"">
                            <p style=""font-size:50px; font-weight:bold;""
                            >exciting</p>
                            <div style=""width:240px; margin: auto;"">
                                <img src=""images/gray_33.png"" style= ""width:200px""alt=""img"">
                            </div>
                        </div>","94","","0","images/gray_33.png","","","","exciting"
"","","","","","html-slider-response","195","453248","0.0-187.0","3f3cxjy2g9","NaN","<div style=""width:500px;"">
                            <p style=""font-size:50px; font-weight:bold;""
                            >exciting</p>
                            <div style=""width:240px; margin: auto;"">
                                <img src=""images/gray_27.png"" style= ""width:200px""alt=""img"">
                            </div>
                        </div>","72","","0","images/gray_27.png","","","","exciting"
"","","","","","html-slider-response","196","453980","0.0-188.0","3f3cxjy2g9","NaN","<div style=""width:500px;"">
                            <p style=""font-size:50px; font-weight:bold;""
                            >exciting</p>
                            <div style=""width:240px; margin: auto;"">
                                <img src=""images/gray_36.png"" style= ""width:200px""alt=""img"">
                            </div>
                        </div>","72","","0","images/gray_36.png","","","","exciting"
"","","","","","html-slider-response","197","454932","0.0-189.0","3f3cxjy2g9","NaN","<div style=""width:500px;"">
                            <p style=""font-size:50px; font-weight:bold;""
                            >exciting</p>
                            <div style=""width:240px; margin: auto;"">
                                <img src=""images/gray_16.png"" style= ""width:200px""alt=""img"">
                            </div>
                        </div>","102","","0","images/gray_16.png","","","","exciting"
"","","","","","html-slider-response","198","456059","0.0-190.0","3f3cxjy2g9","NaN","<div style=""width:500px;"">
                            <p style=""font-size:50px; font-weight:bold;""
                            >exciting</p>
                            <div style=""width:240px; margin: auto;"">
                                <img src=""images/gray_03.png"" style= ""width:200px""alt=""img"">
                            </div>
                        </div>","50","","0","images/gray_03.png","","","","exciting"
"","","","","","html-slider-response","199","457067","0.0-191.0","3f3cxjy2g9","NaN","<div style=""width:500px;"">
                            <p style=""font-size:50px; font-weight:bold;""
                            >exciting</p>
                            <div style=""width:240px; margin: auto;"">
                                <img src=""images/gray_15.png"" style= ""width:200px""alt=""img"">
                            </div>
                        </div>","107","","0","images/gray_15.png","","","","exciting"
"","","","","","html-slider-response","200","457983","0.0-192.0","3f3cxjy2g9","NaN","<div style=""width:500px;"">
