"success","timeout","failed_images","failed_audio","failed_video","trial_type","trial_index","time_elapsed","internal_node_id","subject_id","rt","stimulus","response","question_order","slider_start","image_path","practiceTrial","practiceTrialNum","correct","concept"
"true","false","[]","[]","[]","preload","0","976","0.0-0.0","6s53m47w1h","","","","","","","","","",""
"","","","","","html-button-response","1","6610","0.0-1.0","6s53m47w1h","5633","Welcome to our experiment!<p>At the bottom of this screen, you will see a button that says ""Begin Experiment"".<br>Please only click that button when you are ready to complete the 25 minute experiment in one sitting.</p><p> Once you click that button, it will not be possible to restart the experiment.","0","","","","","","",""
"true","","","","","fullscreen","2","8496","0.0-2.0","6s53m47w1h","882","","","","","","","","",""
"","","","","","survey-multi-select","3","21305","0.0-3.0","6s53m47w1h","12805","","{""Consent"":[""<strong>I consent</strong>""]}","[0]","","","","","",""
"","","","","","html-button-response","4","23530","0.0-4.0","6s53m47w1h","2223","Welcome! <p> This experiment involves two parts: demographic information, followed by the experimental task.<p> It will take about 25 minutes to complete both parts.","0","","","","","","",""
"","","","","","survey-text","5","37471","0.0-5.0","6s53m47w1h","13932","","{""Age"":""20"",""Gender"":""Female"",""Race/ethnicity"":""White"",""Languages"":""English""}","","","","","","",""
"","","","","","html-slider-response","6","40969","0.0-6.0","6s53m47w1h","3496","
            <div style='text-align:left; font-size:20px; line-height:25px; width: 1200px;'>
                During this experiment you will be asked to rate how much you associate maps with    different concepts.<br> Below, you can see some examples of the maps you will be asked to rate. Next to the maps
    is the list of concepts.<br>You will be asked    to rate how much you associate each map with each concept on a scale from 'not at all' to 'very much' like the
    one below. <br><br>
    Now, please look at the list of concepts and maps. For each concept, think about the map you associate 'very
    much' with the concept.<br>     When you see that map during the experiment, please rate it near the 'very much' endpoint of the
    scale.<br>Now, please think about which map you associate 'not at all'     with each concept. When you see that map during the experiment, please rate it near the 'not at all' endpoint
    of the scale.<br>
    Please use the full range of the scale. That is, if a map is somewhat associated with the concept, you would
    click partway between the middle point and right side of the scale.    You will be asked to rate each map for a given concept before moving on to the next concept.<br><br>Press the
    'Continue' button for instructions on how to use the slider.    <br><br>
</div>

<div style=""width: 500px; margin: 0 auto;"">
    <div style=""text-align: left; width: 200px; float: left;"">
        <p style=""font-size:25px; line-height:18px;"">calm</p>
        <p style=""font-size:25px; line-height:18px;"">exciting</p>
        <p style=""font-size:25px;line-height:18px;"">positive</p>
        <p style=""font-size:25px;line-height:18px;"">negative</p>
        <p style=""font-size:25px;line-height:18px;"">serious</p>
        <p style=""font-size:25px;line-height:18px;"">playful</p>
        <p style=""font-size:25px;line-height:18px;"">trustworthy</p>
        <p style=""font-size:25px;line-height:18px;"">disturbing</p>
    </div>
    <div style=""width: 200px; float: right; padding-top:15px; padding-right:40px"">
        <br>
        <br>
        <img src=""maps_anchoring.png"" alt=""img"" style=""max-width:500px"">
    </div>
    <div style=""clear: both;""></div>
</div>
            ","null","","0","maps_anchoring.png","true","","",""
"","","","","","html-button-response","7","42101","0.0-7.0","6s53m47w1h","1131","<div style=""width:800px;""><p style=""text-align:left"">To move the slider, click and drag your cursor to the location of the scale where you would like to make your rating and then let go. When you let go of the slider, your response will be recorded and the next trial will begin. <br>
            We are interested in your initial impressions of each map for the given concept, so please go with your first intuition. <br>
            Before you begin the experiment, there will be four training trials for you to practice using the scale. <br>
             When you are ready to start the training trials, please click ""Continue"".</p><br></div>","0","","","","","","",""
"","","","","","html-slider-response","8","47181","0.0-8.0-0.0","6s53m47w1h","NaN","<div style=""width:500px;"">
                            <p style=""font-size:25px;"">Please move the slider all the way to the <br> right endpoint of the scale</p>

                            </div>
                        </div>","200","","0","","true","0","true",""
"","","","","","html-button-response","9","48943","0.0-8.0-1.0","6s53m47w1h","1260","<p align='center'><b>Good job!</b> Click on 'Continue' to proceed.</p>","0","","","","","","",""
"","","","","","html-slider-response","10","50946","0.0-9.0-0.0","6s53m47w1h","NaN","<div style=""width:500px;"">
                            <p style=""font-size:25px;"">Please move the slider all the way to the <br> left endpoint of the scale</p>

                            </div>
                        </div>","-200","","0","","true","1","true",""
"","","","","","html-button-response","11","52395","0.0-9.0-1.0","6s53m47w1h","947","<p align='center'><b>Good job!</b> Click on 'Continue' to proceed.</p>","0","","","","","","",""
"","","","","","html-slider-response","12","57828","0.0-10.0-0.0","6s53m47w1h","NaN","<div style=""width:500px;"">
                            <p style=""font-size:25px;"">Please move the slider halfway between the center and right endpoint of the scale</p>

                            </div>
                        </div>","97","","0","","true","2","true",""
"","","","","","html-button-response","13","59221","0.0-10.0-1.0","6s53m47w1h","890","<p align='center'><b>Good job!</b> Click on 'Continue' to proceed.</p>","0","","","","","","",""
"","","","","","html-slider-response","14","61166","0.0-11.0-0.0","6s53m47w1h","NaN","<div style=""width:500px;"">
                            <p style=""font-size:25px;"">Please move the slider halfway between the center and left endpoint of the scale</p>

                            </div>
                        </div>","-110","","0","","true","3","true",""
"","","","","","html-button-response","15","63277","0.0-11.0-1.0","6s53m47w1h","1608","<p align='center'><b>Good job!</b> Click on 'Continue' to proceed.</p>","0","","","","","","",""
"","","","","","html-button-response","16","66320","0.0-12.0","6s53m47w1h","3042","<p>Great job! You've completed the practice trials. Now you will begin the main task.</p>","0","","","","","","",""
"","","","","","html-button-response","17","71218","0.0-13.0","6s53m47w1h","4897","<p>In this block of trials, you will be asked to rate how much you associate each map with:</p > <p style = 'font-size:150%; font-weight: bold'>playful</p><br></br>","0","","","","","","",""
"","","","","","html-slider-response","18","75212","0.0-14.0","6s53m47w1h","NaN","<div style=""width:500px;"">
                            <p style=""font-size:50px; font-weight:bold;""
                            >playful</p>
                            <div style=""width:240px; margin: auto;"">
                                <img src=""images/gray_10.png"" style= ""width:200px""alt=""img"">
                            </div>
                        </div>","-49","","0","images/gray_10.png","","","","playful"
"","","","","","html-slider-response","19","77467","0.0-15.0","6s53m47w1h","NaN","<div style=""width:500px;"">
                            <p style=""font-size:50px; font-weight:bold;""
                            >playful</p>
                            <div style=""width:240px; margin: auto;"">
                                <img src=""images/gray_06.png"" style= ""width:200px""alt=""img"">
                            </div>
                        </div>","48","","0","images/gray_06.png","","","","playful"
"","","","","","html-slider-response","20","79580","0.0-16.0","6s53m47w1h","NaN","<div style=""width:500px;"">
                            <p style=""font-size:50px; font-weight:bold;""
                            >playful</p>
                            <div style=""width:240px; margin: auto;"">
                                <img src=""images/gray_03.png"" style= ""width:200px""alt=""img"">
                            </div>
                        </div>","-42","","0","images/gray_03.png","","","","playful"
"","","","","","html-slider-response","21","82062","0.0-17.0","6s53m47w1h","NaN","<div style=""width:500px;"">
                            <p style=""font-size:50px; font-weight:bold;""
                            >playful</p>
                            <div style=""width:240px; margin: auto;"">
                                <img src=""images/gray_13.png"" style= ""width:200px""alt=""img"">
                            </div>
                        </div>","27","","0","images/gray_13.png","","","","playful"
"","","","","","html-slider-response","22","84502","0.0-18.0","6s53m47w1h","NaN","<div style=""width:500px;"">
                            <p style=""font-size:50px; font-weight:bold;""
                            >playful</p>
                            <div style=""width:240px; margin: auto;"">
                                <img src=""images/gray_35.png"" style= ""width:200px""alt=""img"">
                            </div>
                        </div>","18","","0","images/gray_35.png","","","","playful"
"","","","","","html-slider-response","23","86100","0.0-19.0","6s53m47w1h","NaN","<div style=""width:500px;"">
                            <p style=""font-size:50px; font-weight:bold;""
                            >playful</p>
                            <div style=""width:240px; margin: auto;"">
                                <img src=""images/gray_01.png"" style= ""width:200px""alt=""img"">
                            </div>
                        </div>","49","","0","images/gray_01.png","","","","playful"
"","","","","","html-slider-response","24","88029","0.0-20.0","6s53m47w1h","NaN","<div style=""width:500px;"">
                            <p style=""font-size:50px; font-weight:bold;""
                            >playful</p>
                            <div style=""width:240px; margin: auto;"">
                                <img src=""images/gray_24.png"" style= ""width:200px""alt=""img"">
                            </div>
                        </div>","-17","","0","images/gray_24.png","","","","playful"
"","","","","","html-slider-response","25","89666","0.0-21.0","6s53m47w1h","NaN","<div style=""width:500px;"">
                            <p style=""font-size:50px; font-weight:bold;""
                            >playful</p>
                            <div style=""width:240px; margin: auto;"">
                                <img src=""images/gray_08.png"" style= ""width:200px""alt=""img"">
                            </div>
                        </div>","-76","","0","images/gray_08.png","","","","playful"
"","","","","","html-slider-response","26","91681","0.0-22.0","6s53m47w1h","NaN","<div style=""width:500px;"">
                            <p style=""font-size:50px; font-weight:bold;""
                            >playful</p>
                            <div style=""width:240px; margin: auto;"">
                                <img src=""images/gray_40.png"" style= ""width:200px""alt=""img"">
                            </div>
                        </div>","35","","0","images/gray_40.png","","","","playful"
"","","","","","html-slider-response","27","93676","0.0-23.0","6s53m47w1h","NaN","<div style=""width:500px;"">
                            <p style=""font-size:50px; font-weight:bold;""
                            >playful</p>
                            <div style=""width:240px; margin: auto;"">
                                <img src=""images/gray_30.png"" style= ""width:200px""alt=""img"">
                            </div>
                        </div>","27","","0","images/gray_30.png","","","","playful"
"","","","","","html-slider-response","28","96074","0.0-24.0","6s53m47w1h","NaN","<div style=""width:500px;"">
                            <p style=""font-size:50px; font-weight:bold;""
                            >playful</p>
                            <div style=""width:240px; margin: auto;"">
                                <img src=""images/gray_44.png"" style= ""width:200px""alt=""img"">
                            </div>
                        </div>","-41","","0","images/gray_44.png","","","","playful"
"","","","","","html-slider-response","29","98034","0.0-25.0","6s53m47w1h","NaN","<div style=""width:500px;"">
                            <p style=""font-size:50px; font-weight:bold;""
                            >playful</p>
                            <div style=""width:240px; margin: auto;"">
                                <img src=""images/gray_32.png"" style= ""width:200px""alt=""img"">
                            </div>
                        </div>","11","","0","images/gray_32.png","","","","playful"
"","","","","","html-slider-response","30","99246","0.0-26.0","6s53m47w1h","NaN","<div style=""width:500px;"">
                            <p style=""font-size:50px; font-weight:bold;""
                            >playful</p>
                            <div style=""width:240px; margin: auto;"">
                                <img src=""images/gray_27.png"" style= ""width:200px""alt=""img"">
                            </div>
                        </div>","11","","0","images/gray_27.png","","","","playful"
"","","","","","html-slider-response","31","101414","0.0-27.0","6s53m47w1h","NaN","<div style=""width:500px;"">
                            <p style=""font-size:50px; font-weight:bold;""
                            >playful</p>
                            <div style=""width:240px; margin: auto;"">
                                <img src=""images/gray_38.png"" style= ""width:200px""alt=""img"">
                            </div>
                        </div>","103","","0","images/gray_38.png","","","","playful"
"","","","","","html-slider-response","32","103277","0.0-28.0","6s53m47w1h","NaN","<div style=""width:500px;"">
                            <p style=""font-size:50px; font-weight:bold;""
                            >playful</p>
                            <div style=""width:240px; margin: auto;"">
                                <img src=""images/gray_12.png"" style= ""width:200px""alt=""img"">
                            </div>
                        </div>","-30","","0","images/gray_12.png","","","","playful"
"","","","","","html-slider-response","33","104996","0.0-29.0","6s53m47w1h","NaN","<div style=""width:500px;"">
                            <p style=""font-size:50px; font-weight:bold;""
                            >playful</p>
                            <div style=""width:240px; margin: auto;"">
                                <img src=""images/gray_21.png"" style= ""width:200px""alt=""img"">
                            </div>
                        </div>","-14","","0","images/gray_21.png","","","","playful"
"","","","","","html-slider-response","34","106910","0.0-30.0","6s53m47w1h","NaN","<div style=""width:500px;"">
                            <p style=""font-size:50px; font-weight:bold;""
                            >playful</p>
                            <div style=""width:240px; margin: auto;"">
                                <img src=""images/gray_22.png"" style= ""width:200px""alt=""img"">
                            </div>
                        </div>","-22","","0","images/gray_22.png","","","","playful"
"","","","","","html-slider-response","35","108361","0.0-31.0","6s53m47w1h","NaN","<div style=""width:500px;"">
                            <p style=""font-size:50px; font-weight:bold;""
                            >playful</p>
                            <div style=""width:240px; margin: auto;"">
                                <img src=""images/gray_09.png"" style= ""width:200px""alt=""img"">
                            </div>
                        </div>","-42","","0","images/gray_09.png","","","","playful"
"","","","","","html-slider-response","36","109789","0.0-32.0","6s53m47w1h","NaN","<div style=""width:500px;"">
                            <p style=""font-size:50px; font-weight:bold;""
                            >playful</p>
                            <div style=""width:240px; margin: auto;"">
                                <img src=""images/gray_36.png"" style= ""width:200px""alt=""img"">
                            </div>
                        </div>","-63","","0","images/gray_36.png","","","","playful"
"","","","","","html-slider-response","37","112199","0.0-33.0","6s53m47w1h","NaN","<div style=""width:500px;"">
                            <p style=""font-size:50px; font-weight:bold;""
                            >playful</p>
                            <div style=""width:240px; margin: auto;"">
                                <img src=""images/gray_43.png"" style= ""width:200px""alt=""img"">
                            </div>
                        </div>","7","","0","images/gray_43.png","","","","playful"
"","","","","","html-slider-response","38","113644","0.0-34.0","6s53m47w1h","NaN","<div style=""width:500px;"">
                            <p style=""font-size:50px; font-weight:bold;""
                            >playful</p>
                            <div style=""width:240px; margin: auto;"">
                                <img src=""images/gray_25.png"" style= ""width:200px""alt=""img"">
                            </div>
                        </div>","-14","","0","images/gray_25.png","","","","playful"
"","","","","","html-slider-response","39","115226","0.0-35.0","6s53m47w1h","NaN","<div style=""width:500px;"">
                            <p style=""font-size:50px; font-weight:bold;""
                            >playful</p>
                            <div style=""width:240px; margin: auto;"">
                                <img src=""images/gray_42.png"" style= ""width:200px""alt=""img"">
                            </div>
                        </div>","20","","0","images/gray_42.png","","","","playful"
"","","","","","html-slider-response","40","117193","0.0-36.0","6s53m47w1h","NaN","<div style=""width:500px;"">
                            <p style=""font-size:50px; font-weight:bold;""
                            >playful</p>
                            <div style=""width:240px; margin: auto;"">
                                <img src=""images/gray_23.png"" style= ""width:200px""alt=""img"">
                            </div>
                        </div>","18","","0","images/gray_23.png","","","","playful"
"","","","","","html-slider-response","41","118410","0.0-37.0","6s53m47w1h","NaN","<div style=""width:500px;"">
                            <p style=""font-size:50px; font-weight:bold;""
                            >playful</p>
                            <div style=""width:240px; margin: auto;"">
                                <img src=""images/gray_34.png"" style= ""width:200px""alt=""img"">
                            </div>
                        </div>","16","","0","images/gray_34.png","","","","playful"
"","","","","","html-slider-response","42","120442","0.0-38.0","6s53m47w1h","NaN","<div style=""width:500px;"">
                            <p style=""font-size:50px; font-weight:bold;""
                            >playful</p>
                            <div style=""width:240px; margin: auto;"">
                                <img src=""images/gray_37.png"" style= ""width:200px""alt=""img"">
                            </div>
                        </div>","14","","0","images/gray_37.png","","","","playful"
"","","","","","html-slider-response","43","121899","0.0-39.0","6s53m47w1h","NaN","<div style=""width:500px;"">
                            <p style=""font-size:50px; font-weight:bold;""
                            >playful</p>
                            <div style=""width:240px; margin: auto;"">
                                <img src=""images/gray_02.png"" style= ""width:200px""alt=""img"">
                            </div>
                        </div>","-2","","0","images/gray_02.png","","","","playful"
"","","","","","html-slider-response","44","123184","0.0-40.0","6s53m47w1h","NaN","<div style=""width:500px;"">
                            <p style=""font-size:50px; font-weight:bold;""
                            >playful</p>
                            <div style=""width:240px; margin: auto;"">
                                <img src=""images/gray_29.png"" style= ""width:200px""alt=""img"">
                            </div>
                        </div>","8","","0","images/gray_29.png","","","","playful"
"","","","","","html-slider-response","45","125112","0.0-41.0","6s53m47w1h","NaN","<div style=""width:500px;"">
                            <p style=""font-size:50px; font-weight:bold;""
                            >playful</p>
                            <div style=""width:240px; margin: auto;"">
                                <img src=""images/gray_05.png"" style= ""width:200px""alt=""img"">
                            </div>
                        </div>","-19","","0","images/gray_05.png","","","","playful"
"","","","","","html-slider-response","46","126420","0.0-42.0","6s53m47w1h","NaN","<div style=""width:500px;"">
                            <p style=""font-size:50px; font-weight:bold;""
                            >playful</p>
                            <div style=""width:240px; margin: auto;"">
                                <img src=""images/gray_15.png"" style= ""width:200px""alt=""img"">
                            </div>
                        </div>","-31","","0","images/gray_15.png","","","","playful"
"","","","","","html-slider-response","47","128060","0.0-43.0","6s53m47w1h","NaN","<div style=""width:500px;"">
                            <p style=""font-size:50px; font-weight:bold;""
                            >playful</p>
                            <div style=""width:240px; margin: auto;"">
                                <img src=""images/gray_41.png"" style= ""width:200px""alt=""img"">
                            </div>
                        </div>","14","","0","images/gray_41.png","","","","playful"
"","","","","","html-slider-response","48","129335","0.0-44.0","6s53m47w1h","NaN","<div style=""width:500px;"">
                            <p style=""font-size:50px; font-weight:bold;""
                            >playful</p>
                            <div style=""width:240px; margin: auto;"">
                                <img src=""images/gray_19.png"" style= ""width:200px""alt=""img"">
                            </div>
                        </div>","21","","0","images/gray_19.png","","","","playful"
"","","","","","html-slider-response","49","130830","0.0-45.0","6s53m47w1h","NaN","<div style=""width:500px;"">
                            <p style=""font-size:50px; font-weight:bold;""
                            >playful</p>
                            <div style=""width:240px; margin: auto;"">
                                <img src=""images/gray_39.png"" style= ""width:200px""alt=""img"">
                            </div>
                        </div>","-20","","0","images/gray_39.png","","","","playful"
"","","","","","html-slider-response","50","132380","0.0-46.0","6s53m47w1h","NaN","<div style=""width:500px;"">
                            <p style=""font-size:50px; font-weight:bold;""
                            >playful</p>
                            <div style=""width:240px; margin: auto;"">
                                <img src=""images/gray_26.png"" style= ""width:200px""alt=""img"">
                            </div>
                        </div>","13","","0","images/gray_26.png","","","","playful"
"","","","","","html-slider-response","51","136631","0.0-47.0","6s53m47w1h","NaN","<div style=""width:500px;"">
                            <p style=""font-size:50px; font-weight:bold;""
                            >playful</p>
                            <div style=""width:240px; margin: auto;"">
                                <img src=""images/gray_28.png"" style= ""width:200px""alt=""img"">
                            </div>
                        </div>","-9","","0","images/gray_28.png","","","","playful"
"","","","","","html-slider-response","52","138446","0.0-48.0","6s53m47w1h","NaN","<div style=""width:500px;"">
                            <p style=""font-size:50px; font-weight:bold;""
                            >playful</p>
                            <div style=""width:240px; margin: auto;"">
                                <img src=""images/gray_17.png"" style= ""width:200px""alt=""img"">
                            </div>
                        </div>","-14","","0","images/gray_17.png","","","","playful"
"","","","","","html-slider-response","53","139772","0.0-49.0","6s53m47w1h","NaN","<div style=""width:500px;"">
                            <p style=""font-size:50px; font-weight:bold;""
                            >playful</p>
                            <div style=""width:240px; margin: auto;"">
                                <img src=""images/gray_07.png"" style= ""width:200px""alt=""img"">
                            </div>
                        </div>","2","","0","images/gray_07.png","","","","playful"
"","","","","","html-slider-response","54","141280","0.0-50.0","6s53m47w1h","NaN","<div style=""width:500px;"">
                            <p style=""font-size:50px; font-weight:bold;""
                            >playful</p>
                            <div style=""width:240px; margin: auto;"">
                                <img src=""images/gray_16.png"" style= ""width:200px""alt=""img"">
                            </div>
                        </div>","15","","0","images/gray_16.png","","","","playful"
"","","","","","html-slider-response","55","142879","0.0-51.0","6s53m47w1h","NaN","<div style=""width:500px;"">
                            <p style=""font-size:50px; font-weight:bold;""
                            >playful</p>
                            <div style=""width:240px; margin: auto;"">
                                <img src=""images/gray_04.png"" style= ""width:200px""alt=""img"">
                            </div>
                        </div>","-19","","0","images/gray_04.png","","","","playful"
"","","","","","html-slider-response","56","145474","0.0-52.0","6s53m47w1h","NaN","<div style=""width:500px;"">
                            <p style=""font-size:50px; font-weight:bold;""
                            >playful</p>
                            <div style=""width:240px; margin: auto;"">
                                <img src=""images/gray_20.png"" style= ""width:200px""alt=""img"">
                            </div>
                        </div>","-23","","0","images/gray_20.png","","","","playful"
"","","","","","html-slider-response","57","146984","0.0-53.0","6s53m47w1h","NaN","<div style=""width:500px;"">
                            <p style=""font-size:50px; font-weight:bold;""
                            >playful</p>
                            <div style=""width:240px; margin: auto;"">
                                <img src=""images/gray_33.png"" style= ""width:200px""alt=""img"">
                            </div>
                        </div>","-1","","0","images/gray_33.png","","","","playful"
"","","","","","html-slider-response","58","148403","0.0-54.0","6s53m47w1h","NaN","<div style=""width:500px;"">
                            <p style=""font-size:50px; font-weight:bold;""
                            >playful</p>
                            <div style=""width:240px; margin: auto;"">
                                <img src=""images/gray_11.png"" style= ""width:200px""alt=""img"">
                            </div>
                        </div>","16","","0","images/gray_11.png","","","","playful"
"","","","","","html-slider-response","59","150212","0.0-55.0","6s53m47w1h","NaN","<div style=""width:500px;"">
                            <p style=""font-size:50px; font-weight:bold;""
                            >playful</p>
                            <div style=""width:240px; margin: auto;"">
                                <img src=""images/gray_14.png"" style= ""width:200px""alt=""img"">
                            </div>
                        </div>","-6","","0","images/gray_14.png","","","","playful"
"","","","","","html-slider-response","60","151560","0.0-56.0","6s53m47w1h","NaN","<div style=""width:500px;"">
                            <p style=""font-size:50px; font-weight:bold;""
                            >playful</p>
                            <div style=""width:240px; margin: auto;"">
                                <img src=""images/gray_18.png"" style= ""width:200px""alt=""img"">
                            </div>
                        </div>","15","","0","images/gray_18.png","","","","playful"
"","","","","","html-slider-response","61","153085","0.0-57.0","6s53m47w1h","NaN","<div style=""width:500px;"">
                            <p style=""font-size:50px; font-weight:bold;""
                            >playful</p>
                            <div style=""width:240px; margin: auto;"">
                                <img src=""images/gray_31.png"" style= ""width:200px""alt=""img"">
                            </div>
                        </div>","-6","","0","images/gray_31.png","","","","playful"
"","","","","","html-button-response","62","156600","0.0-58.0","6s53m47w1h","3013","<p>Great Job! You've finished block 1.<br></br> You have 7 block(s) left to go.<br></br></p>","0","","","","","","",""
"","","","","","html-button-response","63","157837","0.0-59.0","6s53m47w1h","1236","<p>In this block of trials, you will be asked to rate how much you associate each map with:</p > <p style = 'font-size:150%; font-weight: bold'>positive</p><br></br>","0","","","","","","",""
"","","","","","html-slider-response","64","159333","0.0-60.0","6s53m47w1h","NaN","<div style=""width:500px;"">
                            <p style=""font-size:50px; font-weight:bold;""
                            >positive</p>
                            <div style=""width:240px; margin: auto;"">
                                <img src=""images/gray_37.png"" style= ""width:200px""alt=""img"">
                            </div>
                        </div>","-22","","0","images/gray_37.png","","","","positive"
"","","","","","html-slider-response","65","160627","0.0-61.0","6s53m47w1h","NaN","<div style=""width:500px;"">
                            <p style=""font-size:50px; font-weight:bold;""
                            >positive</p>
                            <div style=""width:240px; margin: auto;"">
                                <img src=""images/gray_41.png"" style= ""width:200px""alt=""img"">
                            </div>
                        </div>","-22","","0","images/gray_41.png","","","","positive"
"","","","","","html-slider-response","66","161976","0.0-62.0","6s53m47w1h","NaN","<div style=""width:500px;"">
                            <p style=""font-size:50px; font-weight:bold;""
                            >positive</p>
                            <div style=""width:240px; margin: auto;"">
                                <img src=""images/gray_26.png"" style= ""width:200px""alt=""img"">
                            </div>
                        </div>","36","","0","images/gray_26.png","","","","positive"
"","","","","","html-slider-response","67","163894","0.0-63.0","6s53m47w1h","NaN","<div style=""width:500px;"">
                            <p style=""font-size:50px; font-weight:bold;""
                            >positive</p>
                            <div style=""width:240px; margin: auto;"">
                                <img src=""images/gray_04.png"" style= ""width:200px""alt=""img"">
                            </div>
                        </div>","22","","0","images/gray_04.png","","","","positive"
"","","","","","html-slider-response","68","165451","0.0-64.0","6s53m47w1h","NaN","<div style=""width:500px;"">
                            <p style=""font-size:50px; font-weight:bold;""
                            >positive</p>
                            <div style=""width:240px; margin: auto;"">
                                <img src=""images/gray_17.png"" style= ""width:200px""alt=""img"">
                            </div>
                        </div>","55","","0","images/gray_17.png","","","","positive"
"","","","","","html-slider-response","69","167043","0.0-65.0","6s53m47w1h","NaN","<div style=""width:500px;"">
                            <p style=""font-size:50px; font-weight:bold;""
                            >positive</p>
                            <div style=""width:240px; margin: auto;"">
                                <img src=""images/gray_24.png"" style= ""width:200px""alt=""img"">
                            </div>
                        </div>","18","","0","images/gray_24.png","","","","positive"
"","","","","","html-slider-response","70","168913","0.0-66.0","6s53m47w1h","NaN","<div style=""width:500px;"">
                            <p style=""font-size:50px; font-weight:bold;""
                            >positive</p>
                            <div style=""width:240px; margin: auto;"">
                                <img src=""images/gray_31.png"" style= ""width:200px""alt=""img"">
                            </div>
                        </div>","18","","0","images/gray_31.png","","","","positive"
"","","","","","html-slider-response","71","170808","0.0-67.0","6s53m47w1h","NaN","<div style=""width:500px;"">
                            <p style=""font-size:50px; font-weight:bold;""
                            >positive</p>
                            <div style=""width:240px; margin: auto;"">
                                <img src=""images/gray_21.png"" style= ""width:200px""alt=""img"">
                            </div>
                        </div>","50","","0","images/gray_21.png","","","","positive"
"","","","","","html-slider-response","72","172848","0.0-68.0","6s53m47w1h","NaN","<div style=""width:500px;"">
                            <p style=""font-size:50px; font-weight:bold;""
                            >positive</p>
                            <div style=""width:240px; margin: auto;"">
                                <img src=""images/gray_32.png"" style= ""width:200px""alt=""img"">
                            </div>
                        </div>","-24","","0","images/gray_32.png","","","","positive"
"","","","","","html-slider-response","73","174174","0.0-69.0","6s53m47w1h","NaN","<div style=""width:500px;"">
                            <p style=""font-size:50px; font-weight:bold;""
                            >positive</p>
                            <div style=""width:240px; margin: auto;"">
                                <img src=""images/gray_20.png"" style= ""width:200px""alt=""img"">
                            </div>
                        </div>","-25","","0","images/gray_20.png","","","","positive"
"","","","","","html-slider-response","74","175225","0.0-70.0","6s53m47w1h","NaN","<div style=""width:500px;"">
                            <p style=""font-size:50px; font-weight:bold;""
                            >positive</p>
                            <div style=""width:240px; margin: auto;"">
                                <img src=""images/gray_19.png"" style= ""width:200px""alt=""img"">
                            </div>
                        </div>","-25","","0","images/gray_19.png","","","","positive"
"","","","","","html-slider-response","75","176292","0.0-71.0","6s53m47w1h","NaN","<div style=""width:500px;"">
                            <p style=""font-size:50px; font-weight:bold;""
                            >positive</p>
                            <div style=""width:240px; margin: auto;"">
                                <img src=""images/gray_15.png"" style= ""width:200px""alt=""img"">
                            </div>
                        </div>","-63","","0","images/gray_15.png","","","","positive"
"","","","","","html-slider-response","76","177802","0.0-72.0","6s53m47w1h","NaN","<div style=""width:500px;"">
                            <p style=""font-size:50px; font-weight:bold;""
                            >positive</p>
                            <div style=""width:240px; margin: auto;"">
                                <img src=""images/gray_43.png"" style= ""width:200px""alt=""img"">
                            </div>
                        </div>","26","","0","images/gray_43.png","","","","positive"
"","","","","","html-slider-response","77","179361","0.0-73.0","6s53m47w1h","NaN","<div style=""width:500px;"">
                            <p style=""font-size:50px; font-weight:bold;""
                            >positive</p>
                            <div style=""width:240px; margin: auto;"">
                                <img src=""images/gray_22.png"" style= ""width:200px""alt=""img"">
                            </div>
                        </div>","-48","","0","images/gray_22.png","","","","positive"
"","","","","","html-slider-response","78","181215","0.0-74.0","6s53m47w1h","NaN","<div style=""width:500px;"">
                            <p style=""font-size:50px; font-weight:bold;""
                            >positive</p>
                            <div style=""width:240px; margin: auto;"">
                                <img src=""images/gray_07.png"" style= ""width:200px""alt=""img"">
                            </div>
                        </div>","-116","","0","images/gray_07.png","","","","positive"
"","","","","","html-slider-response","79","183303","0.0-75.0","6s53m47w1h","NaN","<div style=""width:500px;"">
                            <p style=""font-size:50px; font-weight:bold;""
                            >positive</p>
                            <div style=""width:240px; margin: auto;"">
                                <img src=""images/gray_10.png"" style= ""width:200px""alt=""img"">
                            </div>
                        </div>","4","","0","images/gray_10.png","","","","positive"
"","","","","","html-slider-response","80","184918","0.0-76.0","6s53m47w1h","NaN","<div style=""width:500px;"">
                            <p style=""font-size:50px; font-weight:bold;""
                            >positive</p>
                            <div style=""width:240px; margin: auto;"">
                                <img src=""images/gray_05.png"" style= ""width:200px""alt=""img"">
                            </div>
                        </div>","33","","0","images/gray_05.png","","","","positive"
"","","","","","html-slider-response","81","186042","0.0-77.0","6s53m47w1h","NaN","<div style=""width:500px;"">
                            <p style=""font-size:50px; font-weight:bold;""
                            >positive</p>
                            <div style=""width:240px; margin: auto;"">
                                <img src=""images/gray_40.png"" style= ""width:200px""alt=""img"">
                            </div>
                        </div>","33","","0","images/gray_40.png","","","","positive"
"","","","","","html-slider-response","82","187411","0.0-78.0","6s53m47w1h","NaN","<div style=""width:500px;"">
                            <p style=""font-size:50px; font-weight:bold;""
                            >positive</p>
                            <div style=""width:240px; margin: auto;"">
                                <img src=""images/gray_44.png"" style= ""width:200px""alt=""img"">
                            </div>
                        </div>","33","","0","images/gray_44.png","","","","positive"
"","","","","","html-slider-response","83","188757","0.0-79.0","6s53m47w1h","NaN","<div style=""width:500px;"">
                            <p style=""font-size:50px; font-weight:bold;""
                            >positive</p>
                            <div style=""width:240px; margin: auto;"">
                                <img src=""images/gray_27.png"" style= ""width:200px""alt=""img"">
                            </div>
                        </div>","-26","","0","images/gray_27.png","","","","positive"
"","","","","","html-slider-response","84","189881","0.0-80.0","6s53m47w1h","NaN","<div style=""width:500px;"">
                            <p style=""font-size:50px; font-weight:bold;""
                            >positive</p>
                            <div style=""width:240px; margin: auto;"">
                                <img src=""images/gray_01.png"" style= ""width:200px""alt=""img"">
                            </div>
                        </div>","22","","0","images/gray_01.png","","","","positive"
"","","","","","html-slider-response","85","190845","0.0-81.0","6s53m47w1h","NaN","<div style=""width:500px;"">
                            <p style=""font-size:50px; font-weight:bold;""
                            >positive</p>
                            <div style=""width:240px; margin: auto;"">
                                <img src=""images/gray_33.png"" style= ""width:200px""alt=""img"">
                            </div>
                        </div>","-37","","0","images/gray_33.png","","","","positive"
"","","","","","html-slider-response","86","192627","0.0-82.0","6s53m47w1h","NaN","<div style=""width:500px;"">
                            <p style=""font-size:50px; font-weight:bold;""
                            >positive</p>
                            <div style=""width:240px; margin: auto;"">
                                <img src=""images/gray_23.png"" style= ""width:200px""alt=""img"">
                            </div>
                        </div>","-61","","0","images/gray_23.png","","","","positive"
"","","","","","html-slider-response","87","194667","0.0-83.0","6s53m47w1h","NaN","<div style=""width:500px;"">
                            <p style=""font-size:50px; font-weight:bold;""
                            >positive</p>
                            <div style=""width:240px; margin: auto;"">
                                <img src=""images/gray_35.png"" style= ""width:200px""alt=""img"">
                            </div>
                        </div>","64","","0","images/gray_35.png","","","","positive"
"","","","","","html-slider-response","88","195671","0.0-84.0","6s53m47w1h","NaN","<div style=""width:500px;"">
                            <p style=""font-size:50px; font-weight:bold;""
                            >positive</p>
                            <div style=""width:240px; margin: auto;"">
                                <img src=""images/gray_39.png"" style= ""width:200px""alt=""img"">
                            </div>
                        </div>","62","","0","images/gray_39.png","","","","positive"
"","","","","","html-slider-response","89","196997","0.0-85.0","6s53m47w1h","NaN","<div style=""width:500px;"">
                            <p style=""font-size:50px; font-weight:bold;""
                            >positive</p>
                            <div style=""width:240px; margin: auto;"">
                                <img src=""images/gray_38.png"" style= ""width:200px""alt=""img"">
                            </div>
                        </div>","7","","0","images/gray_38.png","","","","positive"
"","","","","","html-slider-response","90","198618","0.0-86.0","6s53m47w1h","NaN","<div style=""width:500px;"">
                            <p style=""font-size:50px; font-weight:bold;""
                            >positive</p>
                            <div style=""width:240px; margin: auto;"">
                                <img src=""images/gray_42.png"" style= ""width:200px""alt=""img"">
                            </div>
                        </div>","-14","","0","images/gray_42.png","","","","positive"
"","","","","","html-slider-response","91","199880","0.0-87.0","6s53m47w1h","NaN","<div style=""width:500px;"">
                            <p style=""font-size:50px; font-weight:bold;""
                            >positive</p>
                            <div style=""width:240px; margin: auto;"">
                                <img src=""images/gray_25.png"" style= ""width:200px""alt=""img"">
                            </div>
                        </div>","-19","","0","images/gray_25.png","","","","positive"
"","","","","","html-slider-response","92","201452","0.0-88.0","6s53m47w1h","NaN","<div style=""width:500px;"">
                            <p style=""font-size:50px; font-weight:bold;""
                            >positive</p>
                            <div style=""width:240px; margin: auto;"">
                                <img src=""images/gray_12.png"" style= ""width:200px""alt=""img"">
                            </div>
                        </div>","-31","","0","images/gray_12.png","","","","positive"
"","","","","","html-slider-response","93","203300","0.0-89.0","6s53m47w1h","NaN","<div style=""width:500px;"">
                            <p style=""font-size:50px; font-weight:bold;""
                            >positive</p>
                            <div style=""width:240px; margin: auto;"">
                                <img src=""images/gray_30.png"" style= ""width:200px""alt=""img"">
                            </div>
                        </div>","-35","","0","images/gray_30.png","","","","positive"
"","","","","","html-slider-response","94","206166","0.0-90.0","6s53m47w1h","NaN","<div style=""width:500px;"">
                            <p style=""font-size:50px; font-weight:bold;""
                            >positive</p>
                            <div style=""width:240px; margin: auto;"">
                                <img src=""images/gray_13.png"" style= ""width:200px""alt=""img"">
                            </div>
                        </div>","-37","","0","images/gray_13.png","","","","positive"
"","","","","","html-slider-response","95","208288","0.0-91.0","6s53m47w1h","NaN","<div style=""width:500px;"">
                            <p style=""font-size:50px; font-weight:bold;""
                            >positive</p>
                            <div style=""width:240px; margin: auto;"">
                                <img src=""images/gray_18.png"" style= ""width:200px""alt=""img"">
                            </div>
                        </div>","-37","","0","images/gray_18.png","","","","positive"
"","","","","","html-slider-response","96","209981","0.0-92.0","6s53m47w1h","NaN","<div style=""width:500px;"">
                            <p style=""font-size:50px; font-weight:bold;""
                            >positive</p>
                            <div style=""width:240px; margin: auto;"">
                                <img src=""images/gray_29.png"" style= ""width:200px""alt=""img"">
                            </div>
                        </div>","36","","0","images/gray_29.png","","","","positive"
"","","","","","html-slider-response","97","211570","0.0-93.0","6s53m47w1h","NaN","<div style=""width:500px;"">
                            <p style=""font-size:50px; font-weight:bold;""
                            >positive</p>
                            <div style=""width:240px; margin: auto;"">
                                <img src=""images/gray_09.png"" style= ""width:200px""alt=""img"">
                            </div>
                        </div>","23","","0","images/gray_09.png","","","","positive"
"","","","","","html-slider-response","98","212654","0.0-94.0","6s53m47w1h","NaN","<div style=""width:500px;"">
                            <p style=""font-size:50px; font-weight:bold;""
                            >positive</p>
                            <div style=""width:240px; margin: auto;"">
                                <img src=""images/gray_28.png"" style= ""width:200px""alt=""img"">
                            </div>
                        </div>","24","","0","images/gray_28.png","","","","positive"
"","","","","","html-slider-response","99","213675","0.0-95.0","6s53m47w1h","NaN","<div style=""width:500px;"">
                            <p style=""font-size:50px; font-weight:bold;""
                            >positive</p>
                            <div style=""width:240px; margin: auto;"">
                                <img src=""images/gray_34.png"" style= ""width:200px""alt=""img"">
                            </div>
                        </div>","24","","0","images/gray_34.png","","","","positive"
"","","","","","html-slider-response","100","214751","0.0-96.0","6s53m47w1h","NaN","<div style=""width:500px;"">
                            <p style=""font-size:50px; font-weight:bold;""
                            >positive</p>
                            <div style=""width:240px; margin: auto;"">
                                <img src=""images/gray_16.png"" style= ""width:200px""alt=""img"">
                            </div>
                        </div>","23","","0","images/gray_16.png","","","","positive"
"","","","","","html-slider-response","101","215842","0.0-97.0","6s53m47w1h","NaN","<div style=""width:500px;"">
                            <p style=""font-size:50px; font-weight:bold;""
                            >positive</p>
                            <div style=""width:240px; margin: auto;"">
                                <img src=""images/gray_08.png"" style= ""width:200px""alt=""img"">
                            </div>
                        </div>","23","","0","images/gray_08.png","","","","positive"
"","","","","","html-slider-response","102","216879","0.0-98.0","6s53m47w1h","NaN","<div style=""width:500px;"">
                            <p style=""font-size:50px; font-weight:bold;""
                            >positive</p>
                            <div style=""width:240px; margin: auto;"">
                                <img src=""images/gray_02.png"" style= ""width:200px""alt=""img"">
                            </div>
                        </div>","25","","0","images/gray_02.png","","","","positive"
"","","","","","html-slider-response","103","217923","0.0-99.0","6s53m47w1h","NaN","<div style=""width:500px;"">
                            <p style=""font-size:50px; font-weight:bold;""
                            >positive</p>
                            <div style=""width:240px; margin: auto;"">
                                <img src=""images/gray_36.png"" style= ""width:200px""alt=""img"">
                            </div>
                        </div>","25","","0","images/gray_36.png","","","","positive"
"","","","","","html-slider-response","104","218959","0.0-100.0","6s53m47w1h","NaN","<div style=""width:500px;"">
                            <p style=""font-size:50px; font-weight:bold;""
                            >positive</p>
                            <div style=""width:240px; margin: auto;"">
                                <img src=""images/gray_14.png"" style= ""width:200px""alt=""img"">
                            </div>
                        </div>","-19","","0","images/gray_14.png","","","","positive"
"","","","","","html-slider-response","105","220042","0.0-101.0","6s53m47w1h","NaN","<div style=""width:500px;"">
                            <p style=""font-size:50px; font-weight:bold;""
                            >positive</p>
                            <div style=""width:240px; margin: auto;"">
                                <img src=""images/gray_03.png"" style= ""width:200px""alt=""img"">
                            </div>
                        </div>","15","","0","images/gray_03.png","","","","positive"
"","","","","","html-slider-response","106","221248","0.0-102.0","6s53m47w1h","NaN","<div style=""width:500px;"">
                            <p style=""font-size:50px; font-weight:bold;""
                            >positive</p>
                            <div style=""width:240px; margin: auto;"">
                                <img src=""images/gray_06.png"" style= ""width:200px""alt=""img"">
                            </div>
                        </div>","-31","","0","images/gray_06.png","","","","positive"
"","","","","","html-slider-response","107","222364","0.0-103.0","6s53m47w1h","NaN","<div style=""width:500px;"">
                            <p style=""font-size:50px; font-weight:bold;""
                            >positive</p>
                            <div style=""width:240px; margin: auto;"">
                                <img src=""images/gray_11.png"" style= ""width:200px""alt=""img"">
                            </div>
                        </div>","6","","0","images/gray_11.png","","","","positive"
"","","","","","html-button-response","108","224295","0.0-104.0","6s53m47w1h","1428","<p>Great Job! You've finished block 2.<br></br> You have 6 block(s) left to go.<br></br></p>","0","","","","","","",""
"","","","","","html-button-response","109","225282","0.0-105.0","6s53m47w1h","986","<p>In this block of trials, you will be asked to rate how much you associate each map with:</p > <p style = 'font-size:150%; font-weight: bold'>exciting</p><br></br>","0","","","","","","",""
"","","","","","html-slider-response","110","227905","0.0-106.0","6s53m47w1h","NaN","<div style=""width:500px;"">
                            <p style=""font-size:50px; font-weight:bold;""
                            >exciting</p>
                            <div style=""width:240px; margin: auto;"">
                                <img src=""images/gray_05.png"" style= ""width:200px""alt=""img"">
                            </div>
                        </div>","26","","0","images/gray_05.png","","","","exciting"
"","","","","","html-slider-response","111","229053","0.0-107.0","6s53m47w1h","NaN","<div style=""width:500px;"">
                            <p style=""font-size:50px; font-weight:bold;""
                            >exciting</p>
                            <div style=""width:240px; margin: auto;"">
                                <img src=""images/gray_02.png"" style= ""width:200px""alt=""img"">
                            </div>
                        </div>","-78","","0","images/gray_02.png","","","","exciting"
"","","","","","html-slider-response","112","230000","0.0-108.0","6s53m47w1h","NaN","<div style=""width:500px;"">
                            <p style=""font-size:50px; font-weight:bold;""
                            >exciting</p>
                            <div style=""width:240px; margin: auto;"">
                                <img src=""images/gray_33.png"" style= ""width:200px""alt=""img"">
                            </div>
                        </div>","-80","","0","images/gray_33.png","","","","exciting"
"","","","","","html-slider-response","113","231374","0.0-109.0","6s53m47w1h","NaN","<div style=""width:500px;"">
                            <p style=""font-size:50px; font-weight:bold;""
                            >exciting</p>
                            <div style=""width:240px; margin: auto;"">
                                <img src=""images/gray_14.png"" style= ""width:200px""alt=""img"">
                            </div>
                        </div>","-82","","0","images/gray_14.png","","","","exciting"
"","","","","","html-slider-response","114","232787","0.0-110.0","6s53m47w1h","NaN","<div style=""width:500px;"">
                            <p style=""font-size:50px; font-weight:bold;""
                            >exciting</p>
                            <div style=""width:240px; margin: auto;"">
                                <img src=""images/gray_37.png"" style= ""width:200px""alt=""img"">
                            </div>
                        </div>","-147","","0","images/gray_37.png","","","","exciting"
"","","","","","html-slider-response","115","233752","0.0-111.0","6s53m47w1h","NaN","<div style=""width:500px;"">
                            <p style=""font-size:50px; font-weight:bold;""
                            >exciting</p>
                            <div style=""width:240px; margin: auto;"">
                                <img src=""images/gray_35.png"" style= ""width:200px""alt=""img"">
                            </div>
                        </div>","-147","","0","images/gray_35.png","","","","exciting"
"","","","","","html-slider-response","116","234802","0.0-112.0","6s53m47w1h","NaN","<div style=""width:500px;"">
                            <p style=""font-size:50px; font-weight:bold;""
                            >exciting</p>
                            <div style=""width:240px; margin: auto;"">
                                <img src=""images/gray_07.png"" style= ""width:200px""alt=""img"">
                            </div>
                        </div>","-152","","0","images/gray_07.png","","","","exciting"
"","","","","","html-slider-response","117","236008","0.0-113.0","6s53m47w1h","NaN","<div style=""width:500px;"">
                            <p style=""font-size:50px; font-weight:bold;""
                            >exciting</p>
                            <div style=""width:240px; margin: auto;"">
                                <img src=""images/gray_10.png"" style= ""width:200px""alt=""img"">
                            </div>
                        </div>","-152","","0","images/gray_10.png","","","","exciting"
"","","","","","html-slider-response","118","237341","0.0-114.0","6s53m47w1h","NaN","<div style=""width:500px;"">
                            <p style=""font-size:50px; font-weight:bold;""
                            >exciting</p>
                            <div style=""width:240px; margin: auto;"">
                                <img src=""images/gray_24.png"" style= ""width:200px""alt=""img"">
                            </div>
                        </div>","-152","","0","images/gray_24.png","","","","exciting"
"","","","","","html-slider-response","119","238319","0.0-115.0","6s53m47w1h","NaN","<div style=""width:500px;"">
                            <p style=""font-size:50px; font-weight:bold;""
                            >exciting</p>
                            <div style=""width:240px; margin: auto;"">
                                <img src=""images/gray_32.png"" style= ""width:200px""alt=""img"">
                            </div>
                        </div>","-152","","0","images/gray_32.png","","","","exciting"
"","","","","","html-slider-response","120","239534","0.0-116.0","6s53m47w1h","NaN","<div style=""width:500px;"">
                            <p style=""font-size:50px; font-weight:bold;""
                            >exciting</p>
                            <div style=""width:240px; margin: auto;"">
                                <img src=""images/gray_12.png"" style= ""width:200px""alt=""img"">
                            </div>
                        </div>","-153","","0","images/gray_12.png","","","","exciting"
"","","","","","html-slider-response","121","241310","0.0-117.0","6s53m47w1h","NaN","<div style=""width:500px;"">
                            <p style=""font-size:50px; font-weight:bold;""
                            >exciting</p>
                            <div style=""width:240px; margin: auto;"">
                                <img src=""images/gray_21.png"" style= ""width:200px""alt=""img"">
                            </div>
                        </div>","-153","","0","images/gray_21.png","","","","exciting"
"","","","","","html-slider-response","122","242535","0.0-118.0","6s53m47w1h","NaN","<div style=""width:500px;"">
                            <p style=""font-size:50px; font-weight:bold;""
                            >exciting</p>
                            <div style=""width:240px; margin: auto;"">
                                <img src=""images/gray_23.png"" style= ""width:200px""alt=""img"">
                            </div>
                        </div>","-156","","0","images/gray_23.png","","","","exciting"
"","","","","","html-slider-response","123","243967","0.0-119.0","6s53m47w1h","NaN","<div style=""width:500px;"">
                            <p style=""font-size:50px; font-weight:bold;""
                            >exciting</p>
                            <div style=""width:240px; margin: auto;"">
                                <img src=""images/gray_08.png"" style= ""width:200px""alt=""img"">
                            </div>
                        </div>","-158","","0","images/gray_08.png","","","","exciting"
"","","","","","html-slider-response","124","249754","0.0-120.0","6s53m47w1h","NaN","<div style=""width:500px;"">
                            <p style=""font-size:50px; font-weight:bold;""
                            >exciting</p>
                            <div style=""width:240px; margin: auto;"">
                                <img src=""images/gray_30.png"" style= ""width:200px""alt=""img"">
                            </div>
                        </div>","-155","","0","images/gray_30.png","","","","exciting"
"","","","","","html-slider-response","125","251482","0.0-121.0","6s53m47w1h","NaN","<div style=""width:500px;"">
                            <p style=""font-size:50px; font-weight:bold;""
                            >exciting</p>
                            <div style=""width:240px; margin: auto;"">
                                <img src=""images/gray_06.png"" style= ""width:200px""alt=""img"">
                            </div>
                        </div>","47","","0","images/gray_06.png","","","","exciting"
"","","","","","html-slider-response","126","254340","0.0-122.0","6s53m47w1h","NaN","<div style=""width:500px;"">
                            <p style=""font-size:50px; font-weight:bold;""
                            >exciting</p>
                            <div style=""width:240px; margin: auto;"">
                                <img src=""images/gray_36.png"" style= ""width:200px""alt=""img"">
                            </div>
                        </div>","44","","0","images/gray_36.png","","","","exciting"
"","","","","","html-slider-response","127","255891","0.0-123.0","6s53m47w1h","NaN","<div style=""width:500px;"">
                            <p style=""font-size:50px; font-weight:bold;""
                            >exciting</p>
                            <div style=""width:240px; margin: auto;"">
                                <img src=""images/gray_16.png"" style= ""width:200px""alt=""img"">
                            </div>
                        </div>","-46","","0","images/gray_16.png","","","","exciting"
"","","","","","html-slider-response","128","257152","0.0-124.0","6s53m47w1h","NaN","<div style=""width:500px;"">
                            <p style=""font-size:50px; font-weight:bold;""
                            >exciting</p>
                            <div style=""width:240px; margin: auto;"">
                                <img src=""images/gray_31.png"" style= ""width:200px""alt=""img"">
                            </div>
                        </div>","-46","","0","images/gray_31.png","","","","exciting"
"","","","","","html-slider-response","129","259022","0.0-125.0","6s53m47w1h","NaN","<div style=""width:500px;"">
                            <p style=""font-size:50px; font-weight:bold;""
                            >exciting</p>
                            <div style=""width:240px; margin: auto;"">
                                <img src=""images/gray_40.png"" style= ""width:200px""alt=""img"">
                            </div>
                        </div>","54","","0","images/gray_40.png","","","","exciting"
"","","","","","html-slider-response","130","260177","0.0-126.0","6s53m47w1h","NaN","<div style=""width:500px;"">
                            <p style=""font-size:50px; font-weight:bold;""
                            >exciting</p>
                            <div style=""width:240px; margin: auto;"">
                                <img src=""images/gray_44.png"" style= ""width:200px""alt=""img"">
                            </div>
                        </div>","53","","0","images/gray_44.png","","","","exciting"
"","","","","","html-slider-response","131","261391","0.0-127.0","6s53m47w1h","NaN","<div style=""width:500px;"">
                            <p style=""font-size:50px; font-weight:bold;""
                            >exciting</p>
                            <div style=""width:240px; margin: auto;"">
                                <img src=""images/gray_11.png"" style= ""width:200px""alt=""img"">
                            </div>
                        </div>","49","","0","images/gray_11.png","","","","exciting"
"","","","","","html-slider-response","132","262482","0.0-128.0","6s53m47w1h","NaN","<div style=""width:500px;"">
                            <p style=""font-size:50px; font-weight:bold;""
                            >exciting</p>
                            <div style=""width:240px; margin: auto;"">
                                <img src=""images/gray_19.png"" style= ""width:200px""alt=""img"">
                            </div>
                        </div>","42","","0","images/gray_19.png","","","","exciting"
"","","","","","html-slider-response","133","265051","0.0-129.0","6s53m47w1h","NaN","<div style=""width:500px;"">
                            <p style=""font-size:50px; font-weight:bold;""
                            >exciting</p>
                            <div style=""width:240px; margin: auto;"">
                                <img src=""images/gray_29.png"" style= ""width:200px""alt=""img"">
                            </div>
                        </div>","-35","","0","images/gray_29.png","","","","exciting"
"","","","","","html-slider-response","134","266195","0.0-130.0","6s53m47w1h","NaN","<div style=""width:500px;"">
                            <p style=""font-size:50px; font-weight:bold;""
                            >exciting</p>
                            <div style=""width:240px; margin: auto;"">
                                <img src=""images/gray_43.png"" style= ""width:200px""alt=""img"">
                            </div>
                        </div>","-35","","0","images/gray_43.png","","","","exciting"
"","","","","","html-slider-response","135","267244","0.0-131.0","6s53m47w1h","NaN","<div style=""width:500px;"">
                            <p style=""font-size:50px; font-weight:bold;""
                            >exciting</p>
                            <div style=""width:240px; margin: auto;"">
                                <img src=""images/gray_39.png"" style= ""width:200px""alt=""img"">
                            </div>
                        </div>","-35","","0","images/gray_39.png","","","","exciting"
"","","","","","html-slider-response","136","268312","0.0-132.0","6s53m47w1h","NaN","<div style=""width:500px;"">
                            <p style=""font-size:50px; font-weight:bold;""
                            >exciting</p>
                            <div style=""width:240px; margin: auto;"">
                                <img src=""images/gray_27.png"" style= ""width:200px""alt=""img"">
                            </div>
                        </div>","-35","","0","images/gray_27.png","","","","exciting"
"","","","","","html-slider-response","137","269365","0.0-133.0","6s53m47w1h","NaN","<div style=""width:500px;"">
                            <p style=""font-size:50px; font-weight:bold;""
                            >exciting</p>
                            <div style=""width:240px; margin: auto;"">
                                <img src=""images/gray_04.png"" style= ""width:200px""alt=""img"">
                            </div>
                        </div>","-35","","0","images/gray_04.png","","","","exciting"
"","","","","","html-slider-response","138","270424","0.0-134.0","6s53m47w1h","NaN","<div style=""width:500px;"">
                            <p style=""font-size:50px; font-weight:bold;""
                            >exciting</p>
                            <div style=""width:240px; margin: auto;"">
                                <img src=""images/gray_41.png"" style= ""width:200px""alt=""img"">
                            </div>
                        </div>","-45","","0","images/gray_41.png","","","","exciting"
"","","","","","html-slider-response","139","271420","0.0-135.0","6s53m47w1h","NaN","<div style=""width:500px;"">
                            <p style=""font-size:50px; font-weight:bold;""
                            >exciting</p>
                            <div style=""width:240px; margin: auto;"">
                                <img src=""images/gray_25.png"" style= ""width:200px""alt=""img"">
                            </div>
                        </div>","46","","0","images/gray_25.png","","","","exciting"
"","","","","","html-slider-response","140","272391","0.0-136.0","6s53m47w1h","NaN","<div style=""width:500px;"">
                            <p style=""font-size:50px; font-weight:bold;""
                            >exciting</p>
                            <div style=""width:240px; margin: auto;"">
                                <img src=""images/gray_18.png"" style= ""width:200px""alt=""img"">
                            </div>
                        </div>","-21","","0","images/gray_18.png","","","","exciting"
"","","","","","html-slider-response","141","273507","0.0-137.0","6s53m47w1h","NaN","<div style=""width:500px;"">
                            <p style=""font-size:50px; font-weight:bold;""
                            >exciting</p>
                            <div style=""width:240px; margin: auto;"">
                                <img src=""images/gray_15.png"" style= ""width:200px""alt=""img"">
                            </div>
                        </div>","34","","0","images/gray_15.png","","","","exciting"
"","","","","","html-slider-response","142","274438","0.0-138.0","6s53m47w1h","NaN","<div style=""width:500px;"">
                            <p style=""font-size:50px; font-weight:bold;""
                            >exciting</p>
                            <div style=""width:240px; margin: auto;"">
                                <img src=""images/gray_26.png"" style= ""width:200px""alt=""img"">
                            </div>
                        </div>","-49","","0","images/gray_26.png","","","","exciting"
"","","","","","html-slider-response","143","275457","0.0-139.0","6s53m47w1h","NaN","<div style=""width:500px;"">
                            <p style=""font-size:50px; font-weight:bold;""
                            >exciting</p>
                            <div style=""width:240px; margin: auto;"">
                                <img src=""images/gray_01.png"" style= ""width:200px""alt=""img"">
                            </div>
                        </div>","-50","","0","images/gray_01.png","","","","exciting"
"","","","","","html-slider-response","144","276405","0.0-140.0","6s53m47w1h","NaN","<div style=""width:500px;"">
                            <p style=""font-size:50px; font-weight:bold;""
                            >exciting</p>
                            <div style=""width:240px; margin: auto;"">
                                <img src=""images/gray_17.png"" style= ""width:200px""alt=""img"">
                            </div>
                        </div>","-70","","0","images/gray_17.png","","","","exciting"
"","","","","","html-slider-response","145","277417","0.0-141.0","6s53m47w1h","NaN","<div style=""width:500px;"">
                            <p style=""font-size:50px; font-weight:bold;""
                            >exciting</p>
                            <div style=""width:240px; margin: auto;"">
                                <img src=""images/gray_42.png"" style= ""width:200px""alt=""img"">
                            </div>
                        </div>","-70","","0","images/gray_42.png","","","","exciting"
"","","","","","html-slider-response","146","278389","0.0-142.0","6s53m47w1h","NaN","<div style=""width:500px;"">
                            <p style=""font-size:50px; font-weight:bold;""
                            >exciting</p>
                            <div style=""width:240px; margin: auto;"">
                                <img src=""images/gray_20.png"" style= ""width:200px""alt=""img"">
                            </div>
                        </div>","-70","","0","images/gray_20.png","","","","exciting"
"","","","","","html-slider-response","147","279257","0.0-143.0","6s53m47w1h","NaN","<div style=""width:500px;"">
                            <p style=""font-size:50px; font-weight:bold;""
                            >exciting</p>
                            <div style=""width:240px; margin: auto;"">
                                <img src=""images/gray_28.png"" style= ""width:200px""alt=""img"">
                            </div>
                        </div>","-70","","0","images/gray_28.png","","","","exciting"
"","","","","","html-slider-response","148","280220","0.0-144.0","6s53m47w1h","NaN","<div style=""width:500px;"">
                            <p style=""font-size:50px; font-weight:bold;""
                            >exciting</p>
                            <div style=""width:240px; margin: auto;"">
                                <img src=""images/gray_09.png"" style= ""width:200px""alt=""img"">
                            </div>
                        </div>","-70","","0","images/gray_09.png","","","","exciting"
"","","","","","html-slider-response","149","281120","0.0-145.0","6s53m47w1h","NaN","<div style=""width:500px;"">
                            <p style=""font-size:50px; font-weight:bold;""
                            >exciting</p>
                            <div style=""width:240px; margin: auto;"">
                                <img src=""images/gray_22.png"" style= ""width:200px""alt=""img"">
                            </div>
                        </div>","-70","","0","images/gray_22.png","","","","exciting"
"","","","","","html-slider-response","150","282140","0.0-146.0","6s53m47w1h","NaN","<div style=""width:500px;"">
                            <p style=""font-size:50px; font-weight:bold;""
                            >exciting</p>
                            <div style=""width:240px; margin: auto;"">
                                <img src=""images/gray_13.png"" style= ""width:200px""alt=""img"">
                            </div>
                        </div>","-70","","0","images/gray_13.png","","","","exciting"
"","","","","","html-slider-response","151","283176","0.0-147.0","6s53m47w1h","NaN","<div style=""width:500px;"">
                            <p style=""font-size:50px; font-weight:bold;""
                            >exciting</p>
                            <div style=""width:240px; margin: auto;"">
                                <img src=""images/gray_34.png"" style= ""width:200px""alt=""img"">
                            </div>
                        </div>","-70","","0","images/gray_34.png","","","","exciting"
"","","","","","html-slider-response","152","284196","0.0-148.0","6s53m47w1h","NaN","<div style=""width:500px;"">
                            <p style=""font-size:50px; font-weight:bold;""
                            >exciting</p>
                            <div style=""width:240px; margin: auto;"">
                                <img src=""images/gray_38.png"" style= ""width:200px""alt=""img"">
                            </div>
                        </div>","-70","","0","images/gray_38.png","","","","exciting"
"","","","","","html-slider-response","153","285482","0.0-149.0","6s53m47w1h","NaN","<div style=""width:500px;"">
                            <p style=""font-size:50px; font-weight:bold;""
                            >exciting</p>
                            <div style=""width:240px; margin: auto;"">
                                <img src=""images/gray_03.png"" style= ""width:200px""alt=""img"">
                            </div>
                        </div>","-70","","0","images/gray_03.png","","","","exciting"
"","","","","","html-button-response","154","288176","0.0-150.0","6s53m47w1h","2191","<p>Great Job! You've finished block 3.<br></br> You have 5 block(s) left to go.<br></br></p>","0","","","","","","",""
"","","","","","html-button-response","155","289059","0.0-151.0","6s53m47w1h","882","<p>In this block of trials, you will be asked to rate how much you associate each map with:</p > <p style = 'font-size:150%; font-weight: bold'>calm</p><br></br>","0","","","","","","",""
"","","","","","html-slider-response","156","290677","0.0-152.0","6s53m47w1h","NaN","<div style=""width:500px;"">
                            <p style=""font-size:50px; font-weight:bold;""
                            >calm</p>
                            <div style=""width:240px; margin: auto;"">
                                <img src=""images/gray_41.png"" style= ""width:200px""alt=""img"">
                            </div>
                        </div>","-150","","0","images/gray_41.png","","","","calm"
"","","","","","html-slider-response","157","292707","0.0-153.0","6s53m47w1h","NaN","<div style=""width:500px;"">
                            <p style=""font-size:50px; font-weight:bold;""
                            >calm</p>
                            <div style=""width:240px; margin: auto;"">
                                <img src=""images/gray_21.png"" style= ""width:200px""alt=""img"">
                            </div>
                        </div>","51","","0","images/gray_21.png","","","","calm"
"","","","","","html-slider-response","158","293847","0.0-154.0","6s53m47w1h","NaN","<div style=""width:500px;"">
                            <p style=""font-size:50px; font-weight:bold;""
                            >calm</p>
                            <div style=""width:240px; margin: auto;"">
                                <img src=""images/gray_06.png"" style= ""width:200px""alt=""img"">
                            </div>
                        </div>","-141","","0","images/gray_06.png","","","","calm"
"","","","","","html-slider-response","159","295133","0.0-155.0","6s53m47w1h","NaN","<div style=""width:500px;"">
                            <p style=""font-size:50px; font-weight:bold;""
                            >calm</p>
                            <div style=""width:240px; margin: auto;"">
                                <img src=""images/gray_30.png"" style= ""width:200px""alt=""img"">
                            </div>
                        </div>","-142","","0","images/gray_30.png","","","","calm"
"","","","","","html-slider-response","160","296257","0.0-156.0","6s53m47w1h","NaN","<div style=""width:500px;"">
                            <p style=""font-size:50px; font-weight:bold;""
                            >calm</p>
                            <div style=""width:240px; margin: auto;"">
                                <img src=""images/gray_20.png"" style= ""width:200px""alt=""img"">
                            </div>
                        </div>","-142","","0","images/gray_20.png","","","","calm"
"","","","","","html-slider-response","161","297276","0.0-157.0","6s53m47w1h","NaN","<div style=""width:500px;"">
                            <p style=""font-size:50px; font-weight:bold;""
                            >calm</p>
                            <div style=""width:240px; margin: auto;"">
                                <img src=""images/gray_17.png"" style= ""width:200px""alt=""img"">
                            </div>
                        </div>","-142","","0","images/gray_17.png","","","","calm"
"","","","","","html-slider-response","162","298409","0.0-158.0","6s53m47w1h","NaN","<div style=""width:500px;"">
                            <p style=""font-size:50px; font-weight:bold;""
                            >calm</p>
                            <div style=""width:240px; margin: auto;"">
                                <img src=""images/gray_39.png"" style= ""width:200px""alt=""img"">
                            </div>
                        </div>","-143","","0","images/gray_39.png","","","","calm"
"","","","","","html-slider-response","163","299509","0.0-159.0","6s53m47w1h","NaN","<div style=""width:500px;"">
                            <p style=""font-size:50px; font-weight:bold;""
                            >calm</p>
                            <div style=""width:240px; margin: auto;"">
                                <img src=""images/gray_15.png"" style= ""width:200px""alt=""img"">
                            </div>
                        </div>","-144","","0","images/gray_15.png","","","","calm"
"","","","","","html-slider-response","164","300658","0.0-160.0","6s53m47w1h","NaN","<div style=""width:500px;"">
                            <p style=""font-size:50px; font-weight:bold;""
                            >calm</p>
                            <div style=""width:240px; margin: auto;"">
                                <img src=""images/gray_02.png"" style= ""width:200px""alt=""img"">
                            </div>
                        </div>","-142","","0","images/gray_02.png","","","","calm"
"","","","","","html-slider-response","165","301853","0.0-161.0","6s53m47w1h","NaN","<div style=""width:500px;"">
                            <p style=""font-size:50px; font-weight:bold;""
                            >calm</p>
                            <div style=""width:240px; margin: auto;"">
                                <img src=""images/gray_42.png"" style= ""width:200px""alt=""img"">
                            </div>
                        </div>","-142","","0","images/gray_42.png","","","","calm"
"","","","","","html-slider-response","166","303382","0.0-162.0","6s53m47w1h","NaN","<div style=""width:500px;"">
                            <p style=""font-size:50px; font-weight:bold;""
                            >calm</p>
                            <div style=""width:240px; margin: auto;"">
                                <img src=""images/gray_35.png"" style= ""width:200px""alt=""img"">
                            </div>
                        </div>","-142","","0","images/gray_35.png","","","","calm"
"","","","","","html-slider-response","167","304584","0.0-163.0","6s53m47w1h","NaN","<div style=""width:500px;"">
                            <p style=""font-size:50px; font-weight:bold;""
                            >calm</p>
                            <div style=""width:240px; margin: auto;"">
                                <img src=""images/gray_12.png"" style= ""width:200px""alt=""img"">
                            </div>
                        </div>","-143","","0","images/gray_12.png","","","","calm"
"","","","","","html-slider-response","168","307073","0.0-164.0","6s53m47w1h","NaN","<div style=""width:500px;"">
                            <p style=""font-size:50px; font-weight:bold;""
                            >calm</p>
                            <div style=""width:240px; margin: auto;"">
                                <img src=""images/gray_31.png"" style= ""width:200px""alt=""img"">
                            </div>
                        </div>","52","","0","images/gray_31.png","","","","calm"
"","","","","","html-slider-response","169","309040","0.0-165.0","6s53m47w1h","NaN","<div style=""width:500px;"">
                            <p style=""font-size:50px; font-weight:bold;""
                            >calm</p>
                            <div style=""width:240px; margin: auto;"">
                                <img src=""images/gray_18.png"" style= ""width:200px""alt=""img"">
                            </div>
                        </div>","-172","","0","images/gray_18.png","","","","calm"
"","","","","","html-slider-response","170","310084","0.0-166.0","6s53m47w1h","NaN","<div style=""width:500px;"">
                            <p style=""font-size:50px; font-weight:bold;""
                            >calm</p>
                            <div style=""width:240px; margin: auto;"">
                                <img src=""images/gray_34.png"" style= ""width:200px""alt=""img"">
                            </div>
                        </div>","-126","","0","images/gray_34.png","","","","calm"
"","","","","","html-slider-response","171","311145","0.0-167.0","6s53m47w1h","NaN","<div style=""width:500px;"">
                            <p style=""font-size:50px; font-weight:bold;""
                            >calm</p>
                            <div style=""width:240px; margin: auto;"">
                                <img src=""images/gray_16.png"" style= ""width:200px""alt=""img"">
                            </div>
                        </div>","-106","","0","images/gray_16.png","","","","calm"
"","","","","","html-slider-response","172","312117","0.0-168.0","6s53m47w1h","NaN","<div style=""width:500px;"">
                            <p style=""font-size:50px; font-weight:bold;""
                            >calm</p>
                            <div style=""width:240px; margin: auto;"">
                                <img src=""images/gray_03.png"" style= ""width:200px""alt=""img"">
                            </div>
                        </div>","-106","","0","images/gray_03.png","","","","calm"
"","","","","","html-slider-response","173","313272","0.0-169.0","6s53m47w1h","NaN","<div style=""width:500px;"">
                            <p style=""font-size:50px; font-weight:bold;""
                            >calm</p>
                            <div style=""width:240px; margin: auto;"">
                                <img src=""images/gray_09.png"" style= ""width:200px""alt=""img"">
                            </div>
                        </div>","-70","","0","images/gray_09.png","","","","calm"
"","","","","","html-slider-response","174","315224","0.0-170.0","6s53m47w1h","NaN","<div style=""width:500px;"">
                            <p style=""font-size:50px; font-weight:bold;""
                            >calm</p>
                            <div style=""width:240px; margin: auto;"">
                                <img src=""images/gray_37.png"" style= ""width:200px""alt=""img"">
                            </div>
                        </div>","-47","","0","images/gray_37.png","","","","calm"
"","","","","","html-slider-response","175","317287","0.0-171.0","6s53m47w1h","NaN","<div style=""width:500px;"">
                            <p style=""font-size:50px; font-weight:bold;""
                            >calm</p>
                            <div style=""width:240px; margin: auto;"">
                                <img src=""images/gray_10.png"" style= ""width:200px""alt=""img"">
                            </div>
                        </div>","-61","","0","images/gray_10.png","","","","calm"
"","","","","","html-slider-response","176","318437","0.0-172.0","6s53m47w1h","NaN","<div style=""width:500px;"">
                            <p style=""font-size:50px; font-weight:bold;""
                            >calm</p>
                            <div style=""width:240px; margin: auto;"">
                                <img src=""images/gray_43.png"" style= ""width:200px""alt=""img"">
                            </div>
                        </div>","-62","","0","images/gray_43.png","","","","calm"
"","","","","","html-slider-response","177","319560","0.0-173.0","6s53m47w1h","NaN","<div style=""width:500px;"">
                            <p style=""font-size:50px; font-weight:bold;""
                            >calm</p>
                            <div style=""width:240px; margin: auto;"">
                                <img src=""images/gray_28.png"" style= ""width:200px""alt=""img"">
                            </div>
                        </div>","-62","","0","images/gray_28.png","","","","calm"
"","","","","","html-slider-response","178","322515","0.0-174.0","6s53m47w1h","NaN","<div style=""width:500px;"">
                            <p style=""font-size:50px; font-weight:bold;""
                            >calm</p>
                            <div style=""width:240px; margin: auto;"">
                                <img src=""images/gray_29.png"" style= ""width:200px""alt=""img"">
                            </div>
                        </div>","39","","0","images/gray_29.png","","","","calm"
"","","","","","html-slider-response","179","323511","0.0-175.0","6s53m47w1h","NaN","<div style=""width:500px;"">
                            <p style=""font-size:50px; font-weight:bold;""
                            >calm</p>
                            <div style=""width:240px; margin: auto;"">
                                <img src=""images/gray_32.png"" style= ""width:200px""alt=""img"">
                            </div>
                        </div>","-98","","0","images/gray_32.png","","","","calm"
"","","","","","html-slider-response","180","324835","0.0-176.0","6s53m47w1h","NaN","<div style=""width:500px;"">
                            <p style=""font-size:50px; font-weight:bold;""
                            >calm</p>
                            <div style=""width:240px; margin: auto;"">
                                <img src=""images/gray_44.png"" style= ""width:200px""alt=""img"">
                            </div>
                        </div>","-88","","0","images/gray_44.png","","","","calm"
"","","","","","html-slider-response","181","326578","0.0-177.0","6s53m47w1h","NaN","<div style=""width:500px;"">
                            <p style=""font-size:50px; font-weight:bold;""
                            >calm</p>
                            <div style=""width:240px; margin: auto;"">
                                <img src=""images/gray_23.png"" style= ""width:200px""alt=""img"">
                            </div>
                        </div>","-88","","0","images/gray_23.png","","","","calm"
"","","","","","html-slider-response","182","328233","0.0-178.0","6s53m47w1h","NaN","<div style=""width:500px;"">
                            <p style=""font-size:50px; font-weight:bold;""
                            >calm</p>
                            <div style=""width:240px; margin: auto;"">
                                <img src=""images/gray_26.png"" style= ""width:200px""alt=""img"">
                            </div>
                        </div>","-73","","0","images/gray_26.png","","","","calm"
"","","","","","html-slider-response","183","331446","0.0-179.0","6s53m47w1h","NaN","<div style=""width:500px;"">
                            <p style=""font-size:50px; font-weight:bold;""
                            >calm</p>
                            <div style=""width:240px; margin: auto;"">
                                <img src=""images/gray_01.png"" style= ""width:200px""alt=""img"">
                            </div>
                        </div>","-74","","0","images/gray_01.png","","","","calm"
"","","","","","html-slider-response","184","333098","0.0-180.0","6s53m47w1h","NaN","<div style=""width:500px;"">
                            <p style=""font-size:50px; font-weight:bold;""
                            >calm</p>
                            <div style=""width:240px; margin: auto;"">
                                <img src=""images/gray_27.png"" style= ""width:200px""alt=""img"">
                            </div>
                        </div>","-74","","0","images/gray_27.png","","","","calm"
"","","","","","html-slider-response","185","334601","0.0-181.0","6s53m47w1h","NaN","<div style=""width:500px;"">
                            <p style=""font-size:50px; font-weight:bold;""
                            >calm</p>
                            <div style=""width:240px; margin: auto;"">
                                <img src=""images/gray_08.png"" style= ""width:200px""alt=""img"">
                            </div>
                        </div>","-74","","0","images/gray_08.png","","","","calm"
"","","","","","html-slider-response","186","336625","0.0-182.0","6s53m47w1h","NaN","<div style=""width:500px;"">
                            <p style=""font-size:50px; font-weight:bold;""
                            >calm</p>
                            <div style=""width:240px; margin: auto;"">
                                <img src=""images/gray_19.png"" style= ""width:200px""alt=""img"">
                            </div>
                        </div>","-74","","0","images/gray_19.png","","","","calm"
"","","","","","html-slider-response","187","338704","0.0-183.0","6s53m47w1h","NaN","<div style=""width:500px;"">
                            <p style=""font-size:50px; font-weight:bold;""
                            >calm</p>
                            <div style=""width:240px; margin: auto;"">
                                <img src=""images/gray_05.png"" style= ""width:200px""alt=""img"">
                            </div>
                        </div>","-66","","0","images/gray_05.png","","","","calm"
"","","","","","html-slider-response","188","341523","0.0-184.0","6s53m47w1h","NaN","<div style=""width:500px;"">
                            <p style=""font-size:50px; font-weight:bold;""
                            >calm</p>
                            <div style=""width:240px; margin: auto;"">
                                <img src=""images/gray_14.png"" style= ""width:200px""alt=""img"">
                            </div>
                        </div>","-66","","0","images/gray_14.png","","","","calm"
"","","","","","html-slider-response","189","342930","0.0-185.0","6s53m47w1h","NaN","<div style=""width:500px;"">
                            <p style=""font-size:50px; font-weight:bold;""
                            >calm</p>
                            <div style=""width:240px; margin: auto;"">
                                <img src=""images/gray_25.png"" style= ""width:200px""alt=""img"">
                            </div>
                        </div>","-66","","0","images/gray_25.png","","","","calm"
"","","","","","html-slider-response","190","344311","0.0-186.0","6s53m47w1h","NaN","<div style=""width:500px;"">
                            <p style=""font-size:50px; font-weight:bold;""
                            >calm</p>
                            <div style=""width:240px; margin: auto;"">
                                <img src=""images/gray_07.png"" style= ""width:200px""alt=""img"">
                            </div>
                        </div>","-66","","0","images/gray_07.png","","","","calm"
"","","","","","html-slider-response","191","345626","0.0-187.0","6s53m47w1h","NaN","<div style=""width:500px;"">
                            <p style=""font-size:50px; font-weight:bold;""
                            >calm</p>
                            <div style=""width:240px; margin: auto;"">
                                <img src=""images/gray_24.png"" style= ""width:200px""alt=""img"">
                            </div>
                        </div>","-67","","0","images/gray_24.png","","","","calm"
"","","","","","html-slider-response","192","349587","0.0-188.0","6s53m47w1h","NaN","<div style=""width:500px;"">
                            <p style=""font-size:50px; font-weight:bold;""
                            >calm</p>
                            <div style=""width:240px; margin: auto;"">
                                <img src=""images/gray_11.png"" style= ""width:200px""alt=""img"">
                            </div>
                        </div>","-67","","0","images/gray_11.png","","","","calm"
"","","","","","html-slider-response","193","351321","0.0-189.0","6s53m47w1h","NaN","<div style=""width:500px;"">
                            <p style=""font-size:50px; font-weight:bold;""
                            >calm</p>
                            <div style=""width:240px; margin: auto;"">
                                <img src=""images/gray_33.png"" style= ""width:200px""alt=""img"">
                            </div>
                        </div>","41","","0","images/gray_33.png","","","","calm"
"","","","","","html-slider-response","194","356445","0.0-190.0","6s53m47w1h","NaN","<div style=""width:500px;"">
                            <p style=""font-size:50px; font-weight:bold;""
                            >calm</p>
                            <div style=""width:240px; margin: auto;"">
                                <img src=""images/gray_38.png"" style= ""width:200px""alt=""img"">
                            </div>
                        </div>","39","","0","images/gray_38.png","","","","calm"
"","","","","","html-slider-response","195","357722","0.0-191.0","6s53m47w1h","NaN","<div style=""width:500px;"">
                            <p style=""font-size:50px; font-weight:bold;""
                            >calm</p>
                            <div style=""width:240px; margin: auto;"">
                                <img src=""images/gray_22.png"" style= ""width:200px""alt=""img"">
                            </div>
                        </div>","27","","0","images/gray_22.png","","","","calm"
"","","","","","html-slider-response","196","359584","0.0-192.0","6s53m47w1h","NaN","<div style=""width:500px;"">
                            <p style=""font-size:50px; font-weight:bold;""
                            >calm</p>
                            <div style=""width:240px; margin: auto;"">
                                <img src=""images/gray_40.png"" style= ""width:200px""alt=""img"">
                            </div>
                        </div>","22","","0","images/gray_40.png","","","","calm"
"","","","","","html-slider-response","197","361191","0.0-193.0","6s53m47w1h","NaN","<div style=""width:500px;"">
                            <p style=""font-size:50px; font-weight:bold;""
                            >calm</p>
                            <div style=""width:240px; margin: auto;"">
                                <img src=""images/gray_13.png"" style= ""width:200px""alt=""img"">
                            </div>
                        </div>","-36","","0","images/gray_13.png","","","","calm"
"","","","","","html-slider-response","198","362952","0.0-194.0","6s53m47w1h","NaN","<div style=""width:500px;"">
                            <p style=""font-size:50px; font-weight:bold;""
                            >calm</p>
                            <div style=""width:240px; margin: auto;"">
                                <img src=""images/gray_36.png"" style= ""width:200px""alt=""img"">
                            </div>
                        </div>","21","","0","images/gray_36.png","","","","calm"
"","","","","","html-slider-response","199","365858","0.0-195.0","6s53m47w1h","NaN","<div style=""width:500px;"">
                            <p style=""font-size:50px; font-weight:bold;""
                            >calm</p>
                            <div style=""width:240px; margin: auto;"">
