"success","timeout","failed_images","failed_audio","failed_video","trial_type","trial_index","time_elapsed","internal_node_id","subject_id","rt","stimulus","response","question_order","slider_start","image_path","practiceTrial","practiceTrialNum","correct","concept"
"true","false","[]","[]","[]","preload","0","5333","0.0-0.0","71monwftvt","","","","","","","","","",""
"","","","","","html-button-response","1","9423","0.0-1.0","71monwftvt","4088","Welcome to our experiment!<p>At the bottom of this screen, you will see a button that says ""Begin Experiment"".<br>Please only click that button when you are ready to complete the 25 minute experiment in one sitting.</p><p> Once you click that button, it will not be possible to restart the experiment.","0","","","","","","",""
"true","","","","","fullscreen","2","12740","0.0-2.0","71monwftvt","2314","","","","","","","","",""
"","","","","","survey-multi-select","3","63156","0.0-3.0","71monwftvt","50411","","{""Consent"":[""<strong>I consent</strong>""]}","[0]","","","","","",""
"","","","","","html-button-response","4","67188","0.0-4.0","71monwftvt","4029","Welcome! <p> This experiment involves two parts: demographic information, followed by the experimental task.<p> It will take about 25 minutes to complete both parts.","0","","","","","","",""
"","","","","","survey-text","5","85756","0.0-5.0","71monwftvt","18560","","{""Age"":""18"",""Gender"":""Female"",""Race/ethnicity"":""African-American"",""Languages"":""English""}","","","","","","",""
"","","","","","html-slider-response","6","126587","0.0-6.0","71monwftvt","40828","
            <div style='text-align:left; font-size:20px; line-height:25px; width: 1200px;'>
                During this experiment you will be asked to rate how much you associate maps with    different concepts.<br> Below, you can see some examples of the maps you will be asked to rate. Next to the maps
    is the list of concepts.<br>You will be asked    to rate how much you associate each map with each concept on a scale from 'not at all' to 'very much' like the
    one below. <br><br>
    Now, please look at the list of concepts and maps. For each concept, think about the map you associate 'very
    much' with the concept.<br>     When you see that map during the experiment, please rate it near the 'very much' endpoint of the
    scale.<br>Now, please think about which map you associate 'not at all'     with each concept. When you see that map during the experiment, please rate it near the 'not at all' endpoint
    of the scale.<br>
    Please use the full range of the scale. That is, if a map is somewhat associated with the concept, you would
    click partway between the middle point and right side of the scale.    You will be asked to rate each map for a given concept before moving on to the next concept.<br><br>Press the
    'Continue' button for instructions on how to use the slider.    <br><br>
</div>

<div style=""width: 500px; margin: 0 auto;"">
    <div style=""text-align: left; width: 200px; float: left;"">
        <p style=""font-size:25px; line-height:18px;"">calm</p>
        <p style=""font-size:25px; line-height:18px;"">exciting</p>
        <p style=""font-size:25px;line-height:18px;"">positive</p>
        <p style=""font-size:25px;line-height:18px;"">negative</p>
        <p style=""font-size:25px;line-height:18px;"">serious</p>
        <p style=""font-size:25px;line-height:18px;"">playful</p>
        <p style=""font-size:25px;line-height:18px;"">trustworthy</p>
        <p style=""font-size:25px;line-height:18px;"">disturbing</p>
    </div>
    <div style=""width: 200px; float: right; padding-top:15px; padding-right:40px"">
        <br>
        <br>
        <img src=""maps_anchoring.png"" alt=""img"" style=""max-width:500px"">
    </div>
    <div style=""clear: both;""></div>
</div>
            ","null","","0","maps_anchoring.png","true","","",""
"","","","","","html-button-response","7","137003","0.0-7.0","71monwftvt","10415","<div style=""width:800px;""><p style=""text-align:left"">To move the slider, click and drag your cursor to the location of the scale where you would like to make your rating and then let go. When you let go of the slider, your response will be recorded and the next trial will begin. <br>
            We are interested in your initial impressions of each map for the given concept, so please go with your first intuition. <br>
            Before you begin the experiment, there will be four training trials for you to practice using the scale. <br>
             When you are ready to start the training trials, please click ""Continue"".</p><br></div>","0","","","","","","",""
"","","","","","html-slider-response","8","139798","0.0-8.0-0.0","71monwftvt","NaN","<div style=""width:500px;"">
                            <p style=""font-size:25px;"">Please move the slider all the way to the <br> right endpoint of the scale</p>

                            </div>
                        </div>","200","","0","","true","0","true",""
"","","","","","html-button-response","9","141269","0.0-8.0-1.0","71monwftvt","967","<p align='center'><b>Good job!</b> Click on 'Continue' to proceed.</p>","0","","","","","","",""
"","","","","","html-slider-response","10","142798","0.0-9.0-0.0","71monwftvt","NaN","<div style=""width:500px;"">
                            <p style=""font-size:25px;"">Please move the slider all the way to the <br> left endpoint of the scale</p>

                            </div>
                        </div>","-200","","0","","true","1","true",""
"","","","","","html-button-response","11","145370","0.0-9.0-1.0","71monwftvt","2070","<p align='center'><b>Good job!</b> Click on 'Continue' to proceed.</p>","0","","","","","","",""
"","","","","","html-slider-response","12","150131","0.0-10.0-0.0","71monwftvt","NaN","<div style=""width:500px;"">
                            <p style=""font-size:25px;"">Please move the slider halfway between the center and right endpoint of the scale</p>

                            </div>
                        </div>","93","","0","","true","2","true",""
"","","","","","html-button-response","13","151570","0.0-10.0-1.0","71monwftvt","936","<p align='center'><b>Good job!</b> Click on 'Continue' to proceed.</p>","0","","","","","","",""
"","","","","","html-slider-response","14","153099","0.0-11.0-0.0","71monwftvt","NaN","<div style=""width:500px;"">
                            <p style=""font-size:25px;"">Please move the slider halfway between the center and left endpoint of the scale</p>

                            </div>
                        </div>","-115","","0","","true","3","false",""
"","","","","","html-button-response","15","154970","0.0-11.0-1.0","71monwftvt","1368","<p align='center'><b>Not quite!</b> The slider was not placed near the instructed located. Click on 'Continue' to try again. </p>","0","","","","","","",""
"","","","","","html-slider-response","16","157746","0.0-11.1-0.1","71monwftvt","NaN","<div style=""width:500px;"">
                            <p style=""font-size:25px;"">Please move the slider halfway between the center and left endpoint of the scale</p>

                            </div>
                        </div>","-94","","0","","true","3","true",""
"","","","","","html-button-response","17","159020","0.0-11.1-1.1","71monwftvt","771","<p align='center'><b>Good job!</b> Click on 'Continue' to proceed.</p>","0","","","","","","",""
"","","","","","html-button-response","18","159854","0.0-12.0","71monwftvt","833","<p>Great job! You've completed the practice trials. Now you will begin the main task.</p>","0","","","","","","",""
"","","","","","html-button-response","19","163753","0.0-13.0","71monwftvt","3898","<p>In this block of trials, you will be asked to rate how much you associate each map with:</p > <p style = 'font-size:150%; font-weight: bold'>negative</p><br></br>","0","","","","","","",""
"","","","","","html-slider-response","20","166601","0.0-14.0","71monwftvt","NaN","<div style=""width:500px;"">
                            <p style=""font-size:50px; font-weight:bold;""
                            >negative</p>
                            <div style=""width:240px; margin: auto;"">
                                <img src=""images/gray_27.png"" style= ""width:200px""alt=""img"">
                            </div>
                        </div>","95","","0","images/gray_27.png","","","","negative"
"","","","","","html-slider-response","21","169297","0.0-15.0","71monwftvt","NaN","<div style=""width:500px;"">
                            <p style=""font-size:50px; font-weight:bold;""
                            >negative</p>
                            <div style=""width:240px; margin: auto;"">
                                <img src=""images/gray_14.png"" style= ""width:200px""alt=""img"">
                            </div>
                        </div>","146","","0","images/gray_14.png","","","","negative"
"","","","","","html-slider-response","22","171881","0.0-16.0","71monwftvt","NaN","<div style=""width:500px;"">
                            <p style=""font-size:50px; font-weight:bold;""
                            >negative</p>
                            <div style=""width:240px; margin: auto;"">
                                <img src=""images/gray_25.png"" style= ""width:200px""alt=""img"">
                            </div>
                        </div>","-162","","0","images/gray_25.png","","","","negative"
"","","","","","html-slider-response","23","174079","0.0-17.0","71monwftvt","NaN","<div style=""width:500px;"">
                            <p style=""font-size:50px; font-weight:bold;""
                            >negative</p>
                            <div style=""width:240px; margin: auto;"">
                                <img src=""images/gray_05.png"" style= ""width:200px""alt=""img"">
                            </div>
                        </div>","-26","","0","images/gray_05.png","","","","negative"
"","","","","","html-slider-response","24","177080","0.0-18.0","71monwftvt","NaN","<div style=""width:500px;"">
                            <p style=""font-size:50px; font-weight:bold;""
                            >negative</p>
                            <div style=""width:240px; margin: auto;"">
                                <img src=""images/gray_21.png"" style= ""width:200px""alt=""img"">
                            </div>
                        </div>","55","","0","images/gray_21.png","","","","negative"
"","","","","","html-slider-response","25","180165","0.0-19.0","71monwftvt","NaN","<div style=""width:500px;"">
                            <p style=""font-size:50px; font-weight:bold;""
                            >negative</p>
                            <div style=""width:240px; margin: auto;"">
                                <img src=""images/gray_33.png"" style= ""width:200px""alt=""img"">
                            </div>
                        </div>","-200","","0","images/gray_33.png","","","","negative"
"","","","","","html-slider-response","26","182129","0.0-20.0","71monwftvt","NaN","<div style=""width:500px;"">
                            <p style=""font-size:50px; font-weight:bold;""
                            >negative</p>
                            <div style=""width:240px; margin: auto;"">
                                <img src=""images/gray_40.png"" style= ""width:200px""alt=""img"">
                            </div>
                        </div>","-200","","0","images/gray_40.png","","","","negative"
"","","","","","html-slider-response","27","184599","0.0-21.0","71monwftvt","NaN","<div style=""width:500px;"">
                            <p style=""font-size:50px; font-weight:bold;""
                            >negative</p>
                            <div style=""width:240px; margin: auto;"">
                                <img src=""images/gray_17.png"" style= ""width:200px""alt=""img"">
                            </div>
                        </div>","2","","0","images/gray_17.png","","","","negative"
"","","","","","html-slider-response","28","187299","0.0-22.0","71monwftvt","NaN","<div style=""width:500px;"">
                            <p style=""font-size:50px; font-weight:bold;""
                            >negative</p>
                            <div style=""width:240px; margin: auto;"">
                                <img src=""images/gray_22.png"" style= ""width:200px""alt=""img"">
                            </div>
                        </div>","-200","","0","images/gray_22.png","","","","negative"
"","","","","","html-slider-response","29","190265","0.0-23.0","71monwftvt","NaN","<div style=""width:500px;"">
                            <p style=""font-size:50px; font-weight:bold;""
                            >negative</p>
                            <div style=""width:240px; margin: auto;"">
                                <img src=""images/gray_28.png"" style= ""width:200px""alt=""img"">
                            </div>
                        </div>","29","","0","images/gray_28.png","","","","negative"
"","","","","","html-slider-response","30","194517","0.0-24.0","71monwftvt","NaN","<div style=""width:500px;"">
                            <p style=""font-size:50px; font-weight:bold;""
                            >negative</p>
                            <div style=""width:240px; margin: auto;"">
                                <img src=""images/gray_32.png"" style= ""width:200px""alt=""img"">
                            </div>
                        </div>","-64","","0","images/gray_32.png","","","","negative"
"","","","","","html-slider-response","31","197283","0.0-25.0","71monwftvt","NaN","<div style=""width:500px;"">
                            <p style=""font-size:50px; font-weight:bold;""
                            >negative</p>
                            <div style=""width:240px; margin: auto;"">
                                <img src=""images/gray_16.png"" style= ""width:200px""alt=""img"">
                            </div>
                        </div>","90","","0","images/gray_16.png","","","","negative"
"","","","","","html-slider-response","32","199598","0.0-26.0","71monwftvt","NaN","<div style=""width:500px;"">
                            <p style=""font-size:50px; font-weight:bold;""
                            >negative</p>
                            <div style=""width:240px; margin: auto;"">
                                <img src=""images/gray_41.png"" style= ""width:200px""alt=""img"">
                            </div>
                        </div>","133","","0","images/gray_41.png","","","","negative"
"","","","","","html-slider-response","33","201766","0.0-27.0","71monwftvt","NaN","<div style=""width:500px;"">
                            <p style=""font-size:50px; font-weight:bold;""
                            >negative</p>
                            <div style=""width:240px; margin: auto;"">
                                <img src=""images/gray_39.png"" style= ""width:200px""alt=""img"">
                            </div>
                        </div>","-200","","0","images/gray_39.png","","","","negative"
"","","","","","html-slider-response","34","204933","0.0-28.0","71monwftvt","NaN","<div style=""width:500px;"">
                            <p style=""font-size:50px; font-weight:bold;""
                            >negative</p>
                            <div style=""width:240px; margin: auto;"">
                                <img src=""images/gray_07.png"" style= ""width:200px""alt=""img"">
                            </div>
                        </div>","-200","","0","images/gray_07.png","","","","negative"
"","","","","","html-slider-response","35","208916","0.0-29.0","71monwftvt","NaN","<div style=""width:500px;"">
                            <p style=""font-size:50px; font-weight:bold;""
                            >negative</p>
                            <div style=""width:240px; margin: auto;"">
                                <img src=""images/gray_34.png"" style= ""width:200px""alt=""img"">
                            </div>
                        </div>","-186","","0","images/gray_34.png","","","","negative"
"","","","","","html-slider-response","36","211970","0.0-30.0","71monwftvt","NaN","<div style=""width:500px;"">
                            <p style=""font-size:50px; font-weight:bold;""
                            >negative</p>
                            <div style=""width:240px; margin: auto;"">
                                <img src=""images/gray_03.png"" style= ""width:200px""alt=""img"">
                            </div>
                        </div>","-198","","0","images/gray_03.png","","","","negative"
"","","","","","html-slider-response","37","215050","0.0-31.0","71monwftvt","NaN","<div style=""width:500px;"">
                            <p style=""font-size:50px; font-weight:bold;""
                            >negative</p>
                            <div style=""width:240px; margin: auto;"">
                                <img src=""images/gray_29.png"" style= ""width:200px""alt=""img"">
                            </div>
                        </div>","200","","0","images/gray_29.png","","","","negative"
"","","","","","html-slider-response","38","218966","0.0-32.0","71monwftvt","NaN","<div style=""width:500px;"">
                            <p style=""font-size:50px; font-weight:bold;""
                            >negative</p>
                            <div style=""width:240px; margin: auto;"">
                                <img src=""images/gray_20.png"" style= ""width:200px""alt=""img"">
                            </div>
                        </div>","-200","","0","images/gray_20.png","","","","negative"
"","","","","","html-slider-response","39","223751","0.0-33.0","71monwftvt","NaN","<div style=""width:500px;"">
                            <p style=""font-size:50px; font-weight:bold;""
                            >negative</p>
                            <div style=""width:240px; margin: auto;"">
                                <img src=""images/gray_43.png"" style= ""width:200px""alt=""img"">
                            </div>
                        </div>","-102","","0","images/gray_43.png","","","","negative"
"","","","","","html-slider-response","40","225782","0.0-34.0","71monwftvt","NaN","<div style=""width:500px;"">
                            <p style=""font-size:50px; font-weight:bold;""
                            >negative</p>
                            <div style=""width:240px; margin: auto;"">
                                <img src=""images/gray_38.png"" style= ""width:200px""alt=""img"">
                            </div>
                        </div>","-200","","0","images/gray_38.png","","","","negative"
"","","","","","html-slider-response","41","229618","0.0-35.0","71monwftvt","NaN","<div style=""width:500px;"">
                            <p style=""font-size:50px; font-weight:bold;""
                            >negative</p>
                            <div style=""width:240px; margin: auto;"">
                                <img src=""images/gray_30.png"" style= ""width:200px""alt=""img"">
                            </div>
                        </div>","-103","","0","images/gray_30.png","","","","negative"
"","","","","","html-slider-response","42","233466","0.0-36.0","71monwftvt","NaN","<div style=""width:500px;"">
                            <p style=""font-size:50px; font-weight:bold;""
                            >negative</p>
                            <div style=""width:240px; margin: auto;"">
                                <img src=""images/gray_06.png"" style= ""width:200px""alt=""img"">
                            </div>
                        </div>","91","","0","images/gray_06.png","","","","negative"
"","","","","","html-slider-response","43","235916","0.0-37.0","71monwftvt","NaN","<div style=""width:500px;"">
                            <p style=""font-size:50px; font-weight:bold;""
                            >negative</p>
                            <div style=""width:240px; margin: auto;"">
                                <img src=""images/gray_44.png"" style= ""width:200px""alt=""img"">
                            </div>
                        </div>","99","","0","images/gray_44.png","","","","negative"
"","","","","","html-slider-response","44","238799","0.0-38.0","71monwftvt","NaN","<div style=""width:500px;"">
                            <p style=""font-size:50px; font-weight:bold;""
                            >negative</p>
                            <div style=""width:240px; margin: auto;"">
                                <img src=""images/gray_19.png"" style= ""width:200px""alt=""img"">
                            </div>
                        </div>","-90","","0","images/gray_19.png","","","","negative"
"","","","","","html-slider-response","45","240665","0.0-39.0","71monwftvt","NaN","<div style=""width:500px;"">
                            <p style=""font-size:50px; font-weight:bold;""
                            >negative</p>
                            <div style=""width:240px; margin: auto;"">
                                <img src=""images/gray_35.png"" style= ""width:200px""alt=""img"">
                            </div>
                        </div>","-78","","0","images/gray_35.png","","","","negative"
"","","","","","html-slider-response","46","243051","0.0-40.0","71monwftvt","NaN","<div style=""width:500px;"">
                            <p style=""font-size:50px; font-weight:bold;""
                            >negative</p>
                            <div style=""width:240px; margin: auto;"">
                                <img src=""images/gray_37.png"" style= ""width:200px""alt=""img"">
                            </div>
                        </div>","-14","","0","images/gray_37.png","","","","negative"
"","","","","","html-slider-response","47","246565","0.0-41.0","71monwftvt","NaN","<div style=""width:500px;"">
                            <p style=""font-size:50px; font-weight:bold;""
                            >negative</p>
                            <div style=""width:240px; margin: auto;"">
                                <img src=""images/gray_08.png"" style= ""width:200px""alt=""img"">
                            </div>
                        </div>","-46","","0","images/gray_08.png","","","","negative"
"","","","","","html-slider-response","48","248484","0.0-42.0","71monwftvt","NaN","<div style=""width:500px;"">
                            <p style=""font-size:50px; font-weight:bold;""
                            >negative</p>
                            <div style=""width:240px; margin: auto;"">
                                <img src=""images/gray_15.png"" style= ""width:200px""alt=""img"">
                            </div>
                        </div>","26","","0","images/gray_15.png","","","","negative"
"","","","","","html-slider-response","49","251599","0.0-43.0","71monwftvt","NaN","<div style=""width:500px;"">
                            <p style=""font-size:50px; font-weight:bold;""
                            >negative</p>
                            <div style=""width:240px; margin: auto;"">
                                <img src=""images/gray_36.png"" style= ""width:200px""alt=""img"">
                            </div>
                        </div>","200","","0","images/gray_36.png","","","","negative"
"","","","","","html-slider-response","50","253634","0.0-44.0","71monwftvt","NaN","<div style=""width:500px;"">
                            <p style=""font-size:50px; font-weight:bold;""
                            >negative</p>
                            <div style=""width:240px; margin: auto;"">
                                <img src=""images/gray_02.png"" style= ""width:200px""alt=""img"">
                            </div>
                        </div>","200","","0","images/gray_02.png","","","","negative"
"","","","","","html-slider-response","51","255366","0.0-45.0","71monwftvt","NaN","<div style=""width:500px;"">
                            <p style=""font-size:50px; font-weight:bold;""
                            >negative</p>
                            <div style=""width:240px; margin: auto;"">
                                <img src=""images/gray_18.png"" style= ""width:200px""alt=""img"">
                            </div>
                        </div>","0","","0","images/gray_18.png","","","","negative"
"","","","","","html-slider-response","52","258270","0.0-46.0","71monwftvt","NaN","<div style=""width:500px;"">
                            <p style=""font-size:50px; font-weight:bold;""
                            >negative</p>
                            <div style=""width:240px; margin: auto;"">
                                <img src=""images/gray_04.png"" style= ""width:200px""alt=""img"">
                            </div>
                        </div>","81","","0","images/gray_04.png","","","","negative"
"","","","","","html-slider-response","53","260481","0.0-47.0","71monwftvt","NaN","<div style=""width:500px;"">
                            <p style=""font-size:50px; font-weight:bold;""
                            >negative</p>
                            <div style=""width:240px; margin: auto;"">
                                <img src=""images/gray_11.png"" style= ""width:200px""alt=""img"">
                            </div>
                        </div>","200","","0","images/gray_11.png","","","","negative"
"","","","","","html-slider-response","54","262416","0.0-48.0","71monwftvt","NaN","<div style=""width:500px;"">
                            <p style=""font-size:50px; font-weight:bold;""
                            >negative</p>
                            <div style=""width:240px; margin: auto;"">
                                <img src=""images/gray_12.png"" style= ""width:200px""alt=""img"">
                            </div>
                        </div>","-200","","0","images/gray_12.png","","","","negative"
"","","","","","html-slider-response","55","264432","0.0-49.0","71monwftvt","NaN","<div style=""width:500px;"">
                            <p style=""font-size:50px; font-weight:bold;""
                            >negative</p>
                            <div style=""width:240px; margin: auto;"">
                                <img src=""images/gray_13.png"" style= ""width:200px""alt=""img"">
                            </div>
                        </div>","-156","","0","images/gray_13.png","","","","negative"
"","","","","","html-slider-response","56","266865","0.0-50.0","71monwftvt","NaN","<div style=""width:500px;"">
                            <p style=""font-size:50px; font-weight:bold;""
                            >negative</p>
                            <div style=""width:240px; margin: auto;"">
                                <img src=""images/gray_26.png"" style= ""width:200px""alt=""img"">
                            </div>
                        </div>","70","","0","images/gray_26.png","","","","negative"
"","","","","","html-slider-response","57","269699","0.0-51.0","71monwftvt","NaN","<div style=""width:500px;"">
                            <p style=""font-size:50px; font-weight:bold;""
                            >negative</p>
                            <div style=""width:240px; margin: auto;"">
                                <img src=""images/gray_24.png"" style= ""width:200px""alt=""img"">
                            </div>
                        </div>","159","","0","images/gray_24.png","","","","negative"
"","","","","","html-slider-response","58","271649","0.0-52.0","71monwftvt","NaN","<div style=""width:500px;"">
                            <p style=""font-size:50px; font-weight:bold;""
                            >negative</p>
                            <div style=""width:240px; margin: auto;"">
                                <img src=""images/gray_23.png"" style= ""width:200px""alt=""img"">
                            </div>
                        </div>","86","","0","images/gray_23.png","","","","negative"
"","","","","","html-slider-response","59","274432","0.0-53.0","71monwftvt","NaN","<div style=""width:500px;"">
                            <p style=""font-size:50px; font-weight:bold;""
                            >negative</p>
                            <div style=""width:240px; margin: auto;"">
                                <img src=""images/gray_42.png"" style= ""width:200px""alt=""img"">
                            </div>
                        </div>","-51","","0","images/gray_42.png","","","","negative"
"","","","","","html-slider-response","60","276350","0.0-54.0","71monwftvt","NaN","<div style=""width:500px;"">
                            <p style=""font-size:50px; font-weight:bold;""
                            >negative</p>
                            <div style=""width:240px; margin: auto;"">
                                <img src=""images/gray_01.png"" style= ""width:200px""alt=""img"">
                            </div>
                        </div>","93","","0","images/gray_01.png","","","","negative"
"","","","","","html-slider-response","61","278082","0.0-55.0","71monwftvt","NaN","<div style=""width:500px;"">
                            <p style=""font-size:50px; font-weight:bold;""
                            >negative</p>
                            <div style=""width:240px; margin: auto;"">
                                <img src=""images/gray_31.png"" style= ""width:200px""alt=""img"">
                            </div>
                        </div>","-200","","0","images/gray_31.png","","","","negative"
"","","","","","html-slider-response","62","281598","0.0-56.0","71monwftvt","NaN","<div style=""width:500px;"">
                            <p style=""font-size:50px; font-weight:bold;""
                            >negative</p>
                            <div style=""width:240px; margin: auto;"">
                                <img src=""images/gray_09.png"" style= ""width:200px""alt=""img"">
                            </div>
                        </div>","-170","","0","images/gray_09.png","","","","negative"
"","","","","","html-slider-response","63","283516","0.0-57.0","71monwftvt","NaN","<div style=""width:500px;"">
                            <p style=""font-size:50px; font-weight:bold;""
                            >negative</p>
                            <div style=""width:240px; margin: auto;"">
                                <img src=""images/gray_10.png"" style= ""width:200px""alt=""img"">
                            </div>
                        </div>","200","","0","images/gray_10.png","","","","negative"
"","","","","","html-button-response","64","285703","0.0-58.0","71monwftvt","1685","<p>Great Job! You've finished block 1.<br></br> You have 7 block(s) left to go.<br></br></p>","0","","","","","","",""
"","","","","","html-button-response","65","287588","0.0-59.0","71monwftvt","1884","<p>In this block of trials, you will be asked to rate how much you associate each map with:</p > <p style = 'font-size:150%; font-weight: bold'>trustworthy</p><br></br>","0","","","","","","",""
"","","","","","html-slider-response","66","291151","0.0-60.0","71monwftvt","NaN","<div style=""width:500px;"">
                            <p style=""font-size:50px; font-weight:bold;""
                            >trustworthy</p>
                            <div style=""width:240px; margin: auto;"">
                                <img src=""images/gray_35.png"" style= ""width:200px""alt=""img"">
                            </div>
                        </div>","-200","","0","images/gray_35.png","","","","trustworthy"
"","","","","","html-slider-response","67","293499","0.0-61.0","71monwftvt","NaN","<div style=""width:500px;"">
                            <p style=""font-size:50px; font-weight:bold;""
                            >trustworthy</p>
                            <div style=""width:240px; margin: auto;"">
                                <img src=""images/gray_21.png"" style= ""width:200px""alt=""img"">
                            </div>
                        </div>","-191","","0","images/gray_21.png","","","","trustworthy"
"","","","","","html-slider-response","68","295399","0.0-62.0","71monwftvt","NaN","<div style=""width:500px;"">
                            <p style=""font-size:50px; font-weight:bold;""
                            >trustworthy</p>
                            <div style=""width:240px; margin: auto;"">
                                <img src=""images/gray_19.png"" style= ""width:200px""alt=""img"">
                            </div>
                        </div>","-200","","0","images/gray_19.png","","","","trustworthy"
"","","","","","html-slider-response","69","297785","0.0-63.0","71monwftvt","NaN","<div style=""width:500px;"">
                            <p style=""font-size:50px; font-weight:bold;""
                            >trustworthy</p>
                            <div style=""width:240px; margin: auto;"">
                                <img src=""images/gray_14.png"" style= ""width:200px""alt=""img"">
                            </div>
                        </div>","-200","","0","images/gray_14.png","","","","trustworthy"
"","","","","","html-slider-response","70","299799","0.0-64.0","71monwftvt","NaN","<div style=""width:500px;"">
                            <p style=""font-size:50px; font-weight:bold;""
                            >trustworthy</p>
                            <div style=""width:240px; margin: auto;"">
                                <img src=""images/gray_29.png"" style= ""width:200px""alt=""img"">
                            </div>
                        </div>","-200","","0","images/gray_29.png","","","","trustworthy"
"","","","","","html-slider-response","71","301868","0.0-65.0","71monwftvt","NaN","<div style=""width:500px;"">
                            <p style=""font-size:50px; font-weight:bold;""
                            >trustworthy</p>
                            <div style=""width:240px; margin: auto;"">
                                <img src=""images/gray_18.png"" style= ""width:200px""alt=""img"">
                            </div>
                        </div>","200","","0","images/gray_18.png","","","","trustworthy"
"","","","","","html-slider-response","72","305167","0.0-66.0","71monwftvt","NaN","<div style=""width:500px;"">
                            <p style=""font-size:50px; font-weight:bold;""
                            >trustworthy</p>
                            <div style=""width:240px; margin: auto;"">
                                <img src=""images/gray_43.png"" style= ""width:200px""alt=""img"">
                            </div>
                        </div>","-41","","0","images/gray_43.png","","","","trustworthy"
"","","","","","html-slider-response","73","307283","0.0-67.0","71monwftvt","NaN","<div style=""width:500px;"">
                            <p style=""font-size:50px; font-weight:bold;""
                            >trustworthy</p>
                            <div style=""width:240px; margin: auto;"">
                                <img src=""images/gray_26.png"" style= ""width:200px""alt=""img"">
                            </div>
                        </div>","-159","","0","images/gray_26.png","","","","trustworthy"
"","","","","","html-slider-response","74","309265","0.0-68.0","71monwftvt","NaN","<div style=""width:500px;"">
                            <p style=""font-size:50px; font-weight:bold;""
                            >trustworthy</p>
                            <div style=""width:240px; margin: auto;"">
                                <img src=""images/gray_36.png"" style= ""width:200px""alt=""img"">
                            </div>
                        </div>","-200","","0","images/gray_36.png","","","","trustworthy"
"","","","","","html-slider-response","75","312450","0.0-69.0","71monwftvt","NaN","<div style=""width:500px;"">
                            <p style=""font-size:50px; font-weight:bold;""
                            >trustworthy</p>
                            <div style=""width:240px; margin: auto;"">
                                <img src=""images/gray_25.png"" style= ""width:200px""alt=""img"">
                            </div>
                        </div>","200","","0","images/gray_25.png","","","","trustworthy"
"","","","","","html-slider-response","76","315032","0.0-70.0","71monwftvt","NaN","<div style=""width:500px;"">
                            <p style=""font-size:50px; font-weight:bold;""
                            >trustworthy</p>
                            <div style=""width:240px; margin: auto;"">
                                <img src=""images/gray_03.png"" style= ""width:200px""alt=""img"">
                            </div>
                        </div>","-107","","0","images/gray_03.png","","","","trustworthy"
"","","","","","html-slider-response","77","319151","0.0-71.0","71monwftvt","NaN","<div style=""width:500px;"">
                            <p style=""font-size:50px; font-weight:bold;""
                            >trustworthy</p>
                            <div style=""width:240px; margin: auto;"">
                                <img src=""images/gray_42.png"" style= ""width:200px""alt=""img"">
                            </div>
                        </div>","-91","","0","images/gray_42.png","","","","trustworthy"
"","","","","","html-slider-response","78","321650","0.0-72.0","71monwftvt","NaN","<div style=""width:500px;"">
                            <p style=""font-size:50px; font-weight:bold;""
                            >trustworthy</p>
                            <div style=""width:240px; margin: auto;"">
                                <img src=""images/gray_32.png"" style= ""width:200px""alt=""img"">
                            </div>
                        </div>","-200","","0","images/gray_32.png","","","","trustworthy"
"","","","","","html-slider-response","79","323598","0.0-73.0","71monwftvt","NaN","<div style=""width:500px;"">
                            <p style=""font-size:50px; font-weight:bold;""
                            >trustworthy</p>
                            <div style=""width:240px; margin: auto;"">
                                <img src=""images/gray_39.png"" style= ""width:200px""alt=""img"">
                            </div>
                        </div>","200","","0","images/gray_39.png","","","","trustworthy"
"","","","","","html-slider-response","80","325267","0.0-74.0","71monwftvt","NaN","<div style=""width:500px;"">
                            <p style=""font-size:50px; font-weight:bold;""
                            >trustworthy</p>
                            <div style=""width:240px; margin: auto;"">
                                <img src=""images/gray_34.png"" style= ""width:200px""alt=""img"">
                            </div>
                        </div>","200","","0","images/gray_34.png","","","","trustworthy"
"","","","","","html-slider-response","81","327549","0.0-75.0","71monwftvt","NaN","<div style=""width:500px;"">
                            <p style=""font-size:50px; font-weight:bold;""
                            >trustworthy</p>
                            <div style=""width:240px; margin: auto;"">
                                <img src=""images/gray_20.png"" style= ""width:200px""alt=""img"">
                            </div>
                        </div>","107","","0","images/gray_20.png","","","","trustworthy"
"","","","","","html-slider-response","82","330000","0.0-76.0","71monwftvt","NaN","<div style=""width:500px;"">
                            <p style=""font-size:50px; font-weight:bold;""
                            >trustworthy</p>
                            <div style=""width:240px; margin: auto;"">
                                <img src=""images/gray_13.png"" style= ""width:200px""alt=""img"">
                            </div>
                        </div>","61","","0","images/gray_13.png","","","","trustworthy"
"","","","","","html-slider-response","83","333449","0.0-77.0","71monwftvt","NaN","<div style=""width:500px;"">
                            <p style=""font-size:50px; font-weight:bold;""
                            >trustworthy</p>
                            <div style=""width:240px; margin: auto;"">
                                <img src=""images/gray_15.png"" style= ""width:200px""alt=""img"">
                            </div>
                        </div>","-103","","0","images/gray_15.png","","","","trustworthy"
"","","","","","html-slider-response","84","336116","0.0-78.0","71monwftvt","NaN","<div style=""width:500px;"">
                            <p style=""font-size:50px; font-weight:bold;""
                            >trustworthy</p>
                            <div style=""width:240px; margin: auto;"">
                                <img src=""images/gray_05.png"" style= ""width:200px""alt=""img"">
                            </div>
                        </div>","47","","0","images/gray_05.png","","","","trustworthy"
"","","","","","html-slider-response","85","339384","0.0-79.0","71monwftvt","NaN","<div style=""width:500px;"">
                            <p style=""font-size:50px; font-weight:bold;""
                            >trustworthy</p>
                            <div style=""width:240px; margin: auto;"">
                                <img src=""images/gray_08.png"" style= ""width:200px""alt=""img"">
                            </div>
                        </div>","198","","0","images/gray_08.png","","","","trustworthy"
"","","","","","html-slider-response","86","342234","0.0-80.0","71monwftvt","NaN","<div style=""width:500px;"">
                            <p style=""font-size:50px; font-weight:bold;""
                            >trustworthy</p>
                            <div style=""width:240px; margin: auto;"">
                                <img src=""images/gray_17.png"" style= ""width:200px""alt=""img"">
                            </div>
                        </div>","-183","","0","images/gray_17.png","","","","trustworthy"
"","","","","","html-slider-response","87","344448","0.0-81.0","71monwftvt","NaN","<div style=""width:500px;"">
                            <p style=""font-size:50px; font-weight:bold;""
                            >trustworthy</p>
                            <div style=""width:240px; margin: auto;"">
                                <img src=""images/gray_37.png"" style= ""width:200px""alt=""img"">
                            </div>
                        </div>","200","","0","images/gray_37.png","","","","trustworthy"
"","","","","","html-slider-response","88","346782","0.0-82.0","71monwftvt","NaN","<div style=""width:500px;"">
                            <p style=""font-size:50px; font-weight:bold;""
                            >trustworthy</p>
                            <div style=""width:240px; margin: auto;"">
                                <img src=""images/gray_24.png"" style= ""width:200px""alt=""img"">
                            </div>
                        </div>","200","","0","images/gray_24.png","","","","trustworthy"
"","","","","","html-slider-response","89","348531","0.0-83.0","71monwftvt","NaN","<div style=""width:500px;"">
                            <p style=""font-size:50px; font-weight:bold;""
                            >trustworthy</p>
                            <div style=""width:240px; margin: auto;"">
                                <img src=""images/gray_12.png"" style= ""width:200px""alt=""img"">
                            </div>
                        </div>","200","","0","images/gray_12.png","","","","trustworthy"
"","","","","","html-slider-response","90","350582","0.0-84.0","71monwftvt","NaN","<div style=""width:500px;"">
                            <p style=""font-size:50px; font-weight:bold;""
                            >trustworthy</p>
                            <div style=""width:240px; margin: auto;"">
                                <img src=""images/gray_28.png"" style= ""width:200px""alt=""img"">
                            </div>
                        </div>","62","","0","images/gray_28.png","","","","trustworthy"
"","","","","","html-slider-response","91","353050","0.0-85.0","71monwftvt","NaN","<div style=""width:500px;"">
                            <p style=""font-size:50px; font-weight:bold;""
                            >trustworthy</p>
                            <div style=""width:240px; margin: auto;"">
                                <img src=""images/gray_38.png"" style= ""width:200px""alt=""img"">
                            </div>
                        </div>","160","","0","images/gray_38.png","","","","trustworthy"
"","","","","","html-slider-response","92","354815","0.0-86.0","71monwftvt","NaN","<div style=""width:500px;"">
                            <p style=""font-size:50px; font-weight:bold;""
                            >trustworthy</p>
                            <div style=""width:240px; margin: auto;"">
                                <img src=""images/gray_09.png"" style= ""width:200px""alt=""img"">
                            </div>
                        </div>","200","","0","images/gray_09.png","","","","trustworthy"
"","","","","","html-slider-response","93","356614","0.0-87.0","71monwftvt","NaN","<div style=""width:500px;"">
                            <p style=""font-size:50px; font-weight:bold;""
                            >trustworthy</p>
                            <div style=""width:240px; margin: auto;"">
                                <img src=""images/gray_41.png"" style= ""width:200px""alt=""img"">
                            </div>
                        </div>","72","","0","images/gray_41.png","","","","trustworthy"
"","","","","","html-slider-response","94","360648","0.0-88.0","71monwftvt","NaN","<div style=""width:500px;"">
                            <p style=""font-size:50px; font-weight:bold;""
                            >trustworthy</p>
                            <div style=""width:240px; margin: auto;"">
                                <img src=""images/gray_33.png"" style= ""width:200px""alt=""img"">
                            </div>
                        </div>","-12","","0","images/gray_33.png","","","","trustworthy"
"","","","","","html-slider-response","95","362465","0.0-89.0","71monwftvt","NaN","<div style=""width:500px;"">
                            <p style=""font-size:50px; font-weight:bold;""
                            >trustworthy</p>
                            <div style=""width:240px; margin: auto;"">
                                <img src=""images/gray_31.png"" style= ""width:200px""alt=""img"">
                            </div>
                        </div>","200","","0","images/gray_31.png","","","","trustworthy"
"","","","","","html-slider-response","96","366264","0.0-90.0","71monwftvt","NaN","<div style=""width:500px;"">
                            <p style=""font-size:50px; font-weight:bold;""
                            >trustworthy</p>
                            <div style=""width:240px; margin: auto;"">
                                <img src=""images/gray_07.png"" style= ""width:200px""alt=""img"">
                            </div>
                        </div>","137","","0","images/gray_07.png","","","","trustworthy"
"","","","","","html-slider-response","97","370048","0.0-91.0","71monwftvt","NaN","<div style=""width:500px;"">
                            <p style=""font-size:50px; font-weight:bold;""
                            >trustworthy</p>
                            <div style=""width:240px; margin: auto;"">
                                <img src=""images/gray_11.png"" style= ""width:200px""alt=""img"">
                            </div>
                        </div>","-144","","0","images/gray_11.png","","","","trustworthy"
"","","","","","html-slider-response","98","371916","0.0-92.0","71monwftvt","NaN","<div style=""width:500px;"">
                            <p style=""font-size:50px; font-weight:bold;""
                            >trustworthy</p>
                            <div style=""width:240px; margin: auto;"">
                                <img src=""images/gray_44.png"" style= ""width:200px""alt=""img"">
                            </div>
                        </div>","-200","","0","images/gray_44.png","","","","trustworthy"
"","","","","","html-slider-response","99","375081","0.0-93.0","71monwftvt","NaN","<div style=""width:500px;"">
                            <p style=""font-size:50px; font-weight:bold;""
                            >trustworthy</p>
                            <div style=""width:240px; margin: auto;"">
                                <img src=""images/gray_40.png"" style= ""width:200px""alt=""img"">
                            </div>
                        </div>","37","","0","images/gray_40.png","","","","trustworthy"
"","","","","","html-slider-response","100","380867","0.0-94.0","71monwftvt","NaN","<div style=""width:500px;"">
                            <p style=""font-size:50px; font-weight:bold;""
                            >trustworthy</p>
                            <div style=""width:240px; margin: auto;"">
                                <img src=""images/gray_16.png"" style= ""width:200px""alt=""img"">
                            </div>
                        </div>","-102","","0","images/gray_16.png","","","","trustworthy"
"","","","","","html-slider-response","101","382914","0.0-95.0","71monwftvt","NaN","<div style=""width:500px;"">
                            <p style=""font-size:50px; font-weight:bold;""
                            >trustworthy</p>
                            <div style=""width:240px; margin: auto;"">
                                <img src=""images/gray_27.png"" style= ""width:200px""alt=""img"">
                            </div>
                        </div>","-200","","0","images/gray_27.png","","","","trustworthy"
"","","","","","html-slider-response","102","384914","0.0-96.0","71monwftvt","NaN","<div style=""width:500px;"">
                            <p style=""font-size:50px; font-weight:bold;""
                            >trustworthy</p>
                            <div style=""width:240px; margin: auto;"">
                                <img src=""images/gray_22.png"" style= ""width:200px""alt=""img"">
                            </div>
                        </div>","145","","0","images/gray_22.png","","","","trustworthy"
"","","","","","html-slider-response","103","387382","0.0-97.0","71monwftvt","NaN","<div style=""width:500px;"">
                            <p style=""font-size:50px; font-weight:bold;""
                            >trustworthy</p>
                            <div style=""width:240px; margin: auto;"">
                                <img src=""images/gray_06.png"" style= ""width:200px""alt=""img"">
                            </div>
                        </div>","-200","","0","images/gray_06.png","","","","trustworthy"
"","","","","","html-slider-response","104","391114","0.0-98.0","71monwftvt","NaN","<div style=""width:500px;"">
                            <p style=""font-size:50px; font-weight:bold;""
                            >trustworthy</p>
                            <div style=""width:240px; margin: auto;"">
                                <img src=""images/gray_04.png"" style= ""width:200px""alt=""img"">
                            </div>
                        </div>","16","","0","images/gray_04.png","","","","trustworthy"
"","","","","","html-slider-response","105","393031","0.0-99.0","71monwftvt","NaN","<div style=""width:500px;"">
                            <p style=""font-size:50px; font-weight:bold;""
                            >trustworthy</p>
                            <div style=""width:240px; margin: auto;"">
                                <img src=""images/gray_10.png"" style= ""width:200px""alt=""img"">
                            </div>
                        </div>","-200","","0","images/gray_10.png","","","","trustworthy"
"","","","","","html-slider-response","106","395114","0.0-100.0","71monwftvt","NaN","<div style=""width:500px;"">
                            <p style=""font-size:50px; font-weight:bold;""
                            >trustworthy</p>
                            <div style=""width:240px; margin: auto;"">
                                <img src=""images/gray_02.png"" style= ""width:200px""alt=""img"">
                            </div>
                        </div>","114","","0","images/gray_02.png","","","","trustworthy"
"","","","","","html-slider-response","107","397565","0.0-101.0","71monwftvt","NaN","<div style=""width:500px;"">
                            <p style=""font-size:50px; font-weight:bold;""
                            >trustworthy</p>
                            <div style=""width:240px; margin: auto;"">
                                <img src=""images/gray_01.png"" style= ""width:200px""alt=""img"">
                            </div>
                        </div>","-200","","0","images/gray_01.png","","","","trustworthy"
"","","","","","html-slider-response","108","399764","0.0-102.0","71monwftvt","NaN","<div style=""width:500px;"">
                            <p style=""font-size:50px; font-weight:bold;""
                            >trustworthy</p>
                            <div style=""width:240px; margin: auto;"">
                                <img src=""images/gray_23.png"" style= ""width:200px""alt=""img"">
                            </div>
                        </div>","-200","","0","images/gray_23.png","","","","trustworthy"
"","","","","","html-slider-response","109","401514","0.0-103.0","71monwftvt","NaN","<div style=""width:500px;"">
                            <p style=""font-size:50px; font-weight:bold;""
                            >trustworthy</p>
                            <div style=""width:240px; margin: auto;"">
                                <img src=""images/gray_30.png"" style= ""width:200px""alt=""img"">
                            </div>
                        </div>","29","","0","images/gray_30.png","","","","trustworthy"
"","","","","","html-button-response","110","402853","0.0-104.0","71monwftvt","837","<p>Great Job! You've finished block 2.<br></br> You have 6 block(s) left to go.<br></br></p>","0","","","","","","",""
"","","","","","html-button-response","111","403669","0.0-105.0","71monwftvt","815","<p>In this block of trials, you will be asked to rate how much you associate each map with:</p > <p style = 'font-size:150%; font-weight: bold'>serious</p><br></br>","0","","","","","","",""
"","","","","","html-slider-response","112","405530","0.0-106.0","71monwftvt","NaN","<div style=""width:500px;"">
                            <p style=""font-size:50px; font-weight:bold;""
                            >serious</p>
                            <div style=""width:240px; margin: auto;"">
                                <img src=""images/gray_19.png"" style= ""width:200px""alt=""img"">
                            </div>
                        </div>","200","","0","images/gray_19.png","","","","serious"
"","","","","","html-slider-response","113","407183","0.0-107.0","71monwftvt","NaN","<div style=""width:500px;"">
                            <p style=""font-size:50px; font-weight:bold;""
                            >serious</p>
                            <div style=""width:240px; margin: auto;"">
                                <img src=""images/gray_28.png"" style= ""width:200px""alt=""img"">
                            </div>
                        </div>","200","","0","images/gray_28.png","","","","serious"
"","","","","","html-slider-response","114","409147","0.0-108.0","71monwftvt","NaN","<div style=""width:500px;"">
                            <p style=""font-size:50px; font-weight:bold;""
                            >serious</p>
                            <div style=""width:240px; margin: auto;"">
                                <img src=""images/gray_15.png"" style= ""width:200px""alt=""img"">
                            </div>
                        </div>","200","","0","images/gray_15.png","","","","serious"
"","","","","","html-slider-response","115","411483","0.0-109.0","71monwftvt","NaN","<div style=""width:500px;"">
                            <p style=""font-size:50px; font-weight:bold;""
                            >serious</p>
                            <div style=""width:240px; margin: auto;"">
                                <img src=""images/gray_10.png"" style= ""width:200px""alt=""img"">
                            </div>
                        </div>","200","","0","images/gray_10.png","","","","serious"
"","","","","","html-slider-response","116","413564","0.0-110.0","71monwftvt","NaN","<div style=""width:500px;"">
                            <p style=""font-size:50px; font-weight:bold;""
                            >serious</p>
                            <div style=""width:240px; margin: auto;"">
                                <img src=""images/gray_16.png"" style= ""width:200px""alt=""img"">
                            </div>
                        </div>","200","","0","images/gray_16.png","","","","serious"
"","","","","","html-slider-response","117","416784","0.0-111.0","71monwftvt","NaN","<div style=""width:500px;"">
                            <p style=""font-size:50px; font-weight:bold;""
                            >serious</p>
                            <div style=""width:240px; margin: auto;"">
                                <img src=""images/gray_09.png"" style= ""width:200px""alt=""img"">
                            </div>
                        </div>","80","","0","images/gray_09.png","","","","serious"
"","","","","","html-slider-response","118","418966","0.0-112.0","71monwftvt","NaN","<div style=""width:500px;"">
                            <p style=""font-size:50px; font-weight:bold;""
                            >serious</p>
                            <div style=""width:240px; margin: auto;"">
                                <img src=""images/gray_35.png"" style= ""width:200px""alt=""img"">
                            </div>
                        </div>","200","","0","images/gray_35.png","","","","serious"
"","","","","","html-slider-response","119","420830","0.0-113.0","71monwftvt","NaN","<div style=""width:500px;"">
                            <p style=""font-size:50px; font-weight:bold;""
                            >serious</p>
                            <div style=""width:240px; margin: auto;"">
                                <img src=""images/gray_13.png"" style= ""width:200px""alt=""img"">
                            </div>
                        </div>","-200","","0","images/gray_13.png","","","","serious"
"","","","","","html-slider-response","120","423829","0.0-114.0","71monwftvt","NaN","<div style=""width:500px;"">
                            <p style=""font-size:50px; font-weight:bold;""
                            >serious</p>
                            <div style=""width:240px; margin: auto;"">
                                <img src=""images/gray_26.png"" style= ""width:200px""alt=""img"">
                            </div>
                        </div>","-200","","0","images/gray_26.png","","","","serious"
"","","","","","html-slider-response","121","426215","0.0-115.0","71monwftvt","NaN","<div style=""width:500px;"">
                            <p style=""font-size:50px; font-weight:bold;""
                            >serious</p>
                            <div style=""width:240px; margin: auto;"">
                                <img src=""images/gray_33.png"" style= ""width:200px""alt=""img"">
                            </div>
                        </div>","49","","0","images/gray_33.png","","","","serious"
"","","","","","html-slider-response","122","427864","0.0-116.0","71monwftvt","NaN","<div style=""width:500px;"">
                            <p style=""font-size:50px; font-weight:bold;""
                            >serious</p>
                            <div style=""width:240px; margin: auto;"">
                                <img src=""images/gray_32.png"" style= ""width:200px""alt=""img"">
                            </div>
                        </div>","200","","0","images/gray_32.png","","","","serious"
"","","","","","html-slider-response","123","429915","0.0-117.0","71monwftvt","NaN","<div style=""width:500px;"">
                            <p style=""font-size:50px; font-weight:bold;""
                            >serious</p>
                            <div style=""width:240px; margin: auto;"">
                                <img src=""images/gray_27.png"" style= ""width:200px""alt=""img"">
                            </div>
                        </div>","198","","0","images/gray_27.png","","","","serious"
"","","","","","html-slider-response","124","431731","0.0-118.0","71monwftvt","NaN","<div style=""width:500px;"">
                            <p style=""font-size:50px; font-weight:bold;""
                            >serious</p>
                            <div style=""width:240px; margin: auto;"">
                                <img src=""images/gray_01.png"" style= ""width:200px""alt=""img"">
                            </div>
                        </div>","200","","0","images/gray_01.png","","","","serious"
"","","","","","html-slider-response","125","434246","0.0-119.0","71monwftvt","NaN","<div style=""width:500px;"">
                            <p style=""font-size:50px; font-weight:bold;""
                            >serious</p>
                            <div style=""width:240px; margin: auto;"">
                                <img src=""images/gray_22.png"" style= ""width:200px""alt=""img"">
                            </div>
                        </div>","-134","","0","images/gray_22.png","","","","serious"
"","","","","","html-slider-response","126","436382","0.0-120.0","71monwftvt","NaN","<div style=""width:500px;"">
                            <p style=""font-size:50px; font-weight:bold;""
                            >serious</p>
                            <div style=""width:240px; margin: auto;"">
                                <img src=""images/gray_24.png"" style= ""width:200px""alt=""img"">
                            </div>
                        </div>","-200","","0","images/gray_24.png","","","","serious"
"","","","","","html-slider-response","127","438214","0.0-121.0","71monwftvt","NaN","<div style=""width:500px;"">
                            <p style=""font-size:50px; font-weight:bold;""
                            >serious</p>
                            <div style=""width:240px; margin: auto;"">
                                <img src=""images/gray_07.png"" style= ""width:200px""alt=""img"">
                            </div>
                        </div>","-200","","0","images/gray_07.png","","","","serious"
"","","","","","html-slider-response","128","440081","0.0-122.0","71monwftvt","NaN","<div style=""width:500px;"">
                            <p style=""font-size:50px; font-weight:bold;""
                            >serious</p>
                            <div style=""width:240px; margin: auto;"">
                                <img src=""images/gray_38.png"" style= ""width:200px""alt=""img"">
                            </div>
                        </div>","200","","0","images/gray_38.png","","","","serious"
"","","","","","html-slider-response","129","441964","0.0-123.0","71monwftvt","NaN","<div style=""width:500px;"">
                            <p style=""font-size:50px; font-weight:bold;""
                            >serious</p>
                            <div style=""width:240px; margin: auto;"">
                                <img src=""images/gray_37.png"" style= ""width:200px""alt=""img"">
                            </div>
                        </div>","200","","0","images/gray_37.png","","","","serious"
"","","","","","html-slider-response","130","443613","0.0-124.0","71monwftvt","NaN","<div style=""width:500px;"">
                            <p style=""font-size:50px; font-weight:bold;""
                            >serious</p>
                            <div style=""width:240px; margin: auto;"">
                                <img src=""images/gray_18.png"" style= ""width:200px""alt=""img"">
                            </div>
                        </div>","-200","","0","images/gray_18.png","","","","serious"
"","","","","","html-slider-response","131","445831","0.0-125.0","71monwftvt","NaN","<div style=""width:500px;"">
                            <p style=""font-size:50px; font-weight:bold;""
                            >serious</p>
                            <div style=""width:240px; margin: auto;"">
                                <img src=""images/gray_36.png"" style= ""width:200px""alt=""img"">
                            </div>
                        </div>","200","","0","images/gray_36.png","","","","serious"
"","","","","","html-slider-response","132","447847","0.0-126.0","71monwftvt","NaN","<div style=""width:500px;"">
                            <p style=""font-size:50px; font-weight:bold;""
                            >serious</p>
                            <div style=""width:240px; margin: auto;"">
                                <img src=""images/gray_34.png"" style= ""width:200px""alt=""img"">
                            </div>
                        </div>","-193","","0","images/gray_34.png","","","","serious"
"","","","","","html-slider-response","133","450065","0.0-127.0","71monwftvt","NaN","<div style=""width:500px;"">
                            <p style=""font-size:50px; font-weight:bold;""
                            >serious</p>
                            <div style=""width:240px; margin: auto;"">
                                <img src=""images/gray_14.png"" style= ""width:200px""alt=""img"">
                            </div>
                        </div>","200","","0","images/gray_14.png","","","","serious"
"","","","","","html-slider-response","134","451964","0.0-128.0","71monwftvt","NaN","<div style=""width:500px;"">
                            <p style=""font-size:50px; font-weight:bold;""
                            >serious</p>
                            <div style=""width:240px; margin: auto;"">
                                <img src=""images/gray_42.png"" style= ""width:200px""alt=""img"">
                            </div>
                        </div>","-200","","0","images/gray_42.png","","","","serious"
"","","","","","html-slider-response","135","453847","0.0-129.0","71monwftvt","NaN","<div style=""width:500px;"">
                            <p style=""font-size:50px; font-weight:bold;""
                            >serious</p>
                            <div style=""width:240px; margin: auto;"">
                                <img src=""images/gray_21.png"" style= ""width:200px""alt=""img"">
                            </div>
                        </div>","200","","0","images/gray_21.png","","","","serious"
"","","","","","html-slider-response","136","456047","0.0-130.0","71monwftvt","NaN","<div style=""width:500px;"">
                            <p style=""font-size:50px; font-weight:bold;""
                            >serious</p>
                            <div style=""width:240px; margin: auto;"">
                                <img src=""images/gray_30.png"" style= ""width:200px""alt=""img"">
                            </div>
                        </div>","-82","","0","images/gray_30.png","","","","serious"
"","","","","","html-slider-response","137","459832","0.0-131.0","71monwftvt","NaN","<div style=""width:500px;"">
                            <p style=""font-size:50px; font-weight:bold;""
                            >serious</p>
                            <div style=""width:240px; margin: auto;"">
                                <img src=""images/gray_43.png"" style= ""width:200px""alt=""img"">
                            </div>
                        </div>","65","","0","images/gray_43.png","","","","serious"
"","","","","","html-slider-response","138","462447","0.0-132.0","71monwftvt","NaN","<div style=""width:500px;"">
                            <p style=""font-size:50px; font-weight:bold;""
                            >serious</p>
                            <div style=""width:240px; margin: auto;"">
                                <img src=""images/gray_03.png"" style= ""width:200px""alt=""img"">
                            </div>
                        </div>","143","","0","images/gray_03.png","","","","serious"
"","","","","","html-slider-response","139","465283","0.0-133.0","71monwftvt","NaN","<div style=""width:500px;"">
                            <p style=""font-size:50px; font-weight:bold;""
                            >serious</p>
                            <div style=""width:240px; margin: auto;"">
                                <img src=""images/gray_41.png"" style= ""width:200px""alt=""img"">
                            </div>
                        </div>","61","","0","images/gray_41.png","","","","serious"
"","","","","","html-slider-response","140","467466","0.0-134.0","71monwftvt","NaN","<div style=""width:500px;"">
                            <p style=""font-size:50px; font-weight:bold;""
                            >serious</p>
                            <div style=""width:240px; margin: auto;"">
                                <img src=""images/gray_11.png"" style= ""width:200px""alt=""img"">
                            </div>
                        </div>","-170","","0","images/gray_11.png","","","","serious"
"","","","","","html-slider-response","141","469948","0.0-135.0","71monwftvt","NaN","<div style=""width:500px;"">
                            <p style=""font-size:50px; font-weight:bold;""
                            >serious</p>
                            <div style=""width:240px; margin: auto;"">
                                <img src=""images/gray_08.png"" style= ""width:200px""alt=""img"">
                            </div>
                        </div>","161","","0","images/gray_08.png","","","","serious"
"","","","","","html-slider-response","142","471849","0.0-136.0","71monwftvt","NaN","<div style=""width:500px;"">
                            <p style=""font-size:50px; font-weight:bold;""
                            >serious</p>
                            <div style=""width:240px; margin: auto;"">
                                <img src=""images/gray_12.png"" style= ""width:200px""alt=""img"">
                            </div>
                        </div>","200","","0","images/gray_12.png","","","","serious"
"","","","","","html-slider-response","143","473880","0.0-137.0","71monwftvt","NaN","<div style=""width:500px;"">
                            <p style=""font-size:50px; font-weight:bold;""
                            >serious</p>
                            <div style=""width:240px; margin: auto;"">
                                <img src=""images/gray_44.png"" style= ""width:200px""alt=""img"">
                            </div>
                        </div>","178","","0","images/gray_44.png","","","","serious"
"","","","","","html-slider-response","144","475846","0.0-138.0","71monwftvt","NaN","<div style=""width:500px;"">
                            <p style=""font-size:50px; font-weight:bold;""
                            >serious</p>
                            <div style=""width:240px; margin: auto;"">
                                <img src=""images/gray_40.png"" style= ""width:200px""alt=""img"">
                            </div>
                        </div>","200","","0","images/gray_40.png","","","","serious"
"","","","","","html-slider-response","145","477330","0.0-139.0","71monwftvt","NaN","<div style=""width:500px;"">
                            <p style=""font-size:50px; font-weight:bold;""
                            >serious</p>
                            <div style=""width:240px; margin: auto;"">
                                <img src=""images/gray_29.png"" style= ""width:200px""alt=""img"">
                            </div>
                        </div>","9","","0","images/gray_29.png","","","","serious"
"","","","","","html-slider-response","146","480613","0.0-140.0","71monwftvt","NaN","<div style=""width:500px;"">
                            <p style=""font-size:50px; font-weight:bold;""
                            >serious</p>
                            <div style=""width:240px; margin: auto;"">
                                <img src=""images/gray_31.png"" style= ""width:200px""alt=""img"">
                            </div>
                        </div>","200","","0","images/gray_31.png","","","","serious"
"","","","","","html-slider-response","147","483130","0.0-141.0","71monwftvt","NaN","<div style=""width:500px;"">
                            <p style=""font-size:50px; font-weight:bold;""
                            >serious</p>
                            <div style=""width:240px; margin: auto;"">
                                <img src=""images/gray_25.png"" style= ""width:200px""alt=""img"">
                            </div>
                        </div>","162","","0","images/gray_25.png","","","","serious"
"","","","","","html-slider-response","148","485964","0.0-142.0","71monwftvt","NaN","<div style=""width:500px;"">
                            <p style=""font-size:50px; font-weight:bold;""
                            >serious</p>
                            <div style=""width:240px; margin: auto;"">
                                <img src=""images/gray_05.png"" style= ""width:200px""alt=""img"">
                            </div>
                        </div>","154","","0","images/gray_05.png","","","","serious"
"","","","","","html-slider-response","149","488398","0.0-143.0","71monwftvt","NaN","<div style=""width:500px;"">
                            <p style=""font-size:50px; font-weight:bold;""
                            >serious</p>
                            <div style=""width:240px; margin: auto;"">
                                <img src=""images/gray_23.png"" style= ""width:200px""alt=""img"">
                            </div>
                        </div>","165","","0","images/gray_23.png","","","","serious"
"","","","","","html-slider-response","150","490629","0.0-144.0","71monwftvt","NaN","<div style=""width:500px;"">
                            <p style=""font-size:50px; font-weight:bold;""
                            >serious</p>
                            <div style=""width:240px; margin: auto;"">
                                <img src=""images/gray_02.png"" style= ""width:200px""alt=""img"">
                            </div>
                        </div>","170","","0","images/gray_02.png","","","","serious"
"","","","","","html-slider-response","151","492313","0.0-145.0","71monwftvt","NaN","<div style=""width:500px;"">
                            <p style=""font-size:50px; font-weight:bold;""
                            >serious</p>
                            <div style=""width:240px; margin: auto;"">
                                <img src=""images/gray_06.png"" style= ""width:200px""alt=""img"">
                            </div>
                        </div>","200","","0","images/gray_06.png","","","","serious"
"","","","","","html-slider-response","152","494563","0.0-146.0","71monwftvt","NaN","<div style=""width:500px;"">
                            <p style=""font-size:50px; font-weight:bold;""
                            >serious</p>
                            <div style=""width:240px; margin: auto;"">
                                <img src=""images/gray_17.png"" style= ""width:200px""alt=""img"">
                            </div>
                        </div>","-200","","0","images/gray_17.png","","","","serious"
"","","","","","html-slider-response","153","496431","0.0-147.0","71monwftvt","NaN","<div style=""width:500px;"">
                            <p style=""font-size:50px; font-weight:bold;""
                            >serious</p>
                            <div style=""width:240px; margin: auto;"">
                                <img src=""images/gray_20.png"" style= ""width:200px""alt=""img"">
                            </div>
                        </div>","-200","","0","images/gray_20.png","","","","serious"
"","","","","","html-slider-response","154","498397","0.0-148.0","71monwftvt","NaN","<div style=""width:500px;"">
                            <p style=""font-size:50px; font-weight:bold;""
                            >serious</p>
                            <div style=""width:240px; margin: auto;"">
                                <img src=""images/gray_39.png"" style= ""width:200px""alt=""img"">
                            </div>
                        </div>","-138","","0","images/gray_39.png","","","","serious"
"","","","","","html-slider-response","155","499897","0.0-149.0","71monwftvt","NaN","<div style=""width:500px;"">
                            <p style=""font-size:50px; font-weight:bold;""
                            >serious</p>
                            <div style=""width:240px; margin: auto;"">
                                <img src=""images/gray_04.png"" style= ""width:200px""alt=""img"">
                            </div>
                        </div>","-200","","0","images/gray_04.png","","","","serious"
"","","","","","html-button-response","156","501286","0.0-150.0","71monwftvt","886","<p>Great Job! You've finished block 3.<br></br> You have 5 block(s) left to go.<br></br></p>","0","","","","","","",""
"","","","","","html-button-response","157","502069","0.0-151.0","71monwftvt","783","<p>In this block of trials, you will be asked to rate how much you associate each map with:</p > <p style = 'font-size:150%; font-weight: bold'>disturbing</p><br></br>","0","","","","","","",""
"","","","","","html-slider-response","158","503364","0.0-152.0","71monwftvt","NaN","<div style=""width:500px;"">
                            <p style=""font-size:50px; font-weight:bold;""
                            >disturbing</p>
                            <div style=""width:240px; margin: auto;"">
                                <img src=""images/gray_10.png"" style= ""width:200px""alt=""img"">
                            </div>
                        </div>","200","","0","images/gray_10.png","","","","disturbing"
"","","","","","html-slider-response","159","505631","0.0-153.0","71monwftvt","NaN","<div style=""width:500px;"">
                            <p style=""font-size:50px; font-weight:bold;""
                            >disturbing</p>
                            <div style=""width:240px; margin: auto;"">
                                <img src=""images/gray_06.png"" style= ""width:200px""alt=""img"">
                            </div>
                        </div>","93","","0","images/gray_06.png","","","","disturbing"
"","","","","","html-slider-response","160","508029","0.0-154.0","71monwftvt","NaN","<div style=""width:500px;"">
                            <p style=""font-size:50px; font-weight:bold;""
                            >disturbing</p>
                            <div style=""width:240px; margin: auto;"">
                                <img src=""images/gray_01.png"" style= ""width:200px""alt=""img"">
                            </div>
                        </div>","-160","","0","images/gray_01.png","","","","disturbing"
"","","","","","html-slider-response","161","510312","0.0-155.0","71monwftvt","NaN","<div style=""width:500px;"">
                            <p style=""font-size:50px; font-weight:bold;""
                            >disturbing</p>
                            <div style=""width:240px; margin: auto;"">
                                <img src=""images/gray_27.png"" style= ""width:200px""alt=""img"">
                            </div>
                        </div>","-152","","0","images/gray_27.png","","","","disturbing"
"","","","","","html-slider-response","162","513562","0.0-156.0","71monwftvt","NaN","<div style=""width:500px;"">
                            <p style=""font-size:50px; font-weight:bold;""
                            >disturbing</p>
                            <div style=""width:240px; margin: auto;"">
                                <img src=""images/gray_14.png"" style= ""width:200px""alt=""img"">
                            </div>
                        </div>","-33","","0","images/gray_14.png","","","","disturbing"
"","","","","","html-slider-response","163","519879","0.0-157.0","71monwftvt","NaN","<div style=""width:500px;"">
                            <p style=""font-size:50px; font-weight:bold;""
                            >disturbing</p>
                            <div style=""width:240px; margin: auto;"">
                                <img src=""images/gray_19.png"" style= ""width:200px""alt=""img"">
                            </div>
                        </div>","126","","0","images/gray_19.png","","","","disturbing"
"","","","","","html-slider-response","164","522197","0.0-158.0","71monwftvt","NaN","<div style=""width:500px;"">
                            <p style=""font-size:50px; font-weight:bold;""
                            >disturbing</p>
                            <div style=""width:240px; margin: auto;"">
                                <img src=""images/gray_23.png"" style= ""width:200px""alt=""img"">
                            </div>
                        </div>","-102","","0","images/gray_23.png","","","","disturbing"
"","","","","","html-slider-response","165","524446","0.0-159.0","71monwftvt","NaN","<div style=""width:500px;"">
                            <p style=""font-size:50px; font-weight:bold;""
                            >disturbing</p>
                            <div style=""width:240px; margin: auto;"">
                                <img src=""images/gray_36.png"" style= ""width:200px""alt=""img"">
                            </div>
                        </div>","200","","0","images/gray_36.png","","","","disturbing"
"","","","","","html-slider-response","166","527932","0.0-160.0","71monwftvt","NaN","<div style=""width:500px;"">
                            <p style=""font-size:50px; font-weight:bold;""
                            >disturbing</p>
                            <div style=""width:240px; margin: auto;"">
                                <img src=""images/gray_05.png"" style= ""width:200px""alt=""img"">
                            </div>
                        </div>","-82","","0","images/gray_05.png","","","","disturbing"
"","","","","","html-slider-response","167","530013","0.0-161.0","71monwftvt","NaN","<div style=""width:500px;"">
                            <p style=""font-size:50px; font-weight:bold;""
                            >disturbing</p>
                            <div style=""width:240px; margin: auto;"">
                                <img src=""images/gray_26.png"" style= ""width:200px""alt=""img"">
                            </div>
                        </div>","-69","","0","images/gray_26.png","","","","disturbing"
"","","","","","html-slider-response","168","532796","0.0-162.0","71monwftvt","NaN","<div style=""width:500px;"">
                            <p style=""font-size:50px; font-weight:bold;""
                            >disturbing</p>
                            <div style=""width:240px; margin: auto;"">
                                <img src=""images/gray_07.png"" style= ""width:200px""alt=""img"">
                            </div>
                        </div>","-200","","0","images/gray_07.png","","","","disturbing"
"","","","","","html-slider-response","169","535348","0.0-163.0","71monwftvt","NaN","<div style=""width:500px;"">
                            <p style=""font-size:50px; font-weight:bold;""
                            >disturbing</p>
                            <div style=""width:240px; margin: auto;"">
                                <img src=""images/gray_31.png"" style= ""width:200px""alt=""img"">
                            </div>
                        </div>","-197","","0","images/gray_31.png","","","","disturbing"
"","","","","","html-slider-response","170","537379","0.0-164.0","71monwftvt","NaN","<div style=""width:500px;"">
                            <p style=""font-size:50px; font-weight:bold;""
                            >disturbing</p>
                            <div style=""width:240px; margin: auto;"">
                                <img src=""images/gray_24.png"" style= ""width:200px""alt=""img"">
                            </div>
                        </div>","-200","","0","images/gray_24.png","","","","disturbing"
"","","","","","html-slider-response","171","539046","0.0-165.0","71monwftvt","NaN","<div style=""width:500px;"">
                            <p style=""font-size:50px; font-weight:bold;""
                            >disturbing</p>
                            <div style=""width:240px; margin: auto;"">
                                <img src=""images/gray_25.png"" style= ""width:200px""alt=""img"">
                            </div>
                        </div>","-200","","0","images/gray_25.png","","","","disturbing"
"","","","","","html-slider-response","172","541696","0.0-166.0","71monwftvt","NaN","<div style=""width:500px;"">
                            <p style=""font-size:50px; font-weight:bold;""
                            >disturbing</p>
                            <div style=""width:240px; margin: auto;"">
                                <img src=""images/gray_20.png"" style= ""width:200px""alt=""img"">
                            </div>
                        </div>","-44","","0","images/gray_20.png","","","","disturbing"
"","","","","","html-slider-response","173","544429","0.0-167.0","71monwftvt","NaN","<div style=""width:500px;"">
                            <p style=""font-size:50px; font-weight:bold;""
                            >disturbing</p>
                            <div style=""width:240px; margin: auto;"">
                                <img src=""images/gray_28.png"" style= ""width:200px""alt=""img"">
                            </div>
                        </div>","-73","","0","images/gray_28.png","","","","disturbing"
"","","","","","html-slider-response","174","546313","0.0-168.0","71monwftvt","NaN","<div style=""width:500px;"">
                            <p style=""font-size:50px; font-weight:bold;""
                            >disturbing</p>
                            <div style=""width:240px; margin: auto;"">
                                <img src=""images/gray_29.png"" style= ""width:200px""alt=""img"">
                            </div>
                        </div>","200","","0","images/gray_29.png","","","","disturbing"
"","","","","","html-slider-response","175","548546","0.0-169.0","71monwftvt","NaN","<div style=""width:500px;"">
                            <p style=""font-size:50px; font-weight:bold;""
                            >disturbing</p>
                            <div style=""width:240px; margin: auto;"">
                                <img src=""images/gray_30.png"" style= ""width:200px""alt=""img"">
                            </div>
                        </div>","-200","","0","images/gray_30.png","","","","disturbing"
"","","","","","html-slider-response","176","550779","0.0-170.0","71monwftvt","NaN","<div style=""width:500px;"">
                            <p style=""font-size:50px; font-weight:bold;""
                            >disturbing</p>
                            <div style=""width:240px; margin: auto;"">
                                <img src=""images/gray_33.png"" style= ""width:200px""alt=""img"">
                            </div>
                        </div>","200","","0","images/gray_33.png","","","","disturbing"
"","","","","","html-slider-response","177","552949","0.0-171.0","71monwftvt","NaN","<div style=""width:500px;"">
                            <p style=""font-size:50px; font-weight:bold;""
                            >disturbing</p>
                            <div style=""width:240px; margin: auto;"">
                                <img src=""images/gray_39.png"" style= ""width:200px""alt=""img"">
                            </div>
                        </div>","-200","","0","images/gray_39.png","","","","disturbing"
"","","","","","html-slider-response","178","554728","0.0-172.0","71monwftvt","NaN","<div style=""width:500px;"">
                            <p style=""font-size:50px; font-weight:bold;""
                            >disturbing</p>
                            <div style=""width:240px; margin: auto;"">
                                <img src=""images/gray_17.png"" style= ""width:200px""alt=""img"">
                            </div>
                        </div>","73","","0","images/gray_17.png","","","","disturbing"
"","","","","","html-slider-response","179","558829","0.0-173.0","71monwftvt","NaN","<div style=""width:500px;"">
                            <p style=""font-size:50px; font-weight:bold;""
                            >disturbing</p>
                            <div style=""width:240px; margin: auto;"">
                                <img src=""images/gray_38.png"" style= ""width:200px""alt=""img"">
                            </div>
                        </div>","76","","0","images/gray_38.png","","","","disturbing"
"","","","","","html-slider-response","180","561096","0.0-174.0","71monwftvt","NaN","<div style=""width:500px;"">
                            <p style=""font-size:50px; font-weight:bold;""
                            >disturbing</p>
                            <div style=""width:240px; margin: auto;"">
                                <img src=""images/gray_12.png"" style= ""width:200px""alt=""img"">
                            </div>
                        </div>","53","","0","images/gray_12.png","","","","disturbing"
"","","","","","html-slider-response","181","563046","0.0-175.0","71monwftvt","NaN","<div style=""width:500px;"">
                            <p style=""font-size:50px; font-weight:bold;""
                            >disturbing</p>
                            <div style=""width:240px; margin: auto;"">
                                <img src=""images/gray_35.png"" style= ""width:200px""alt=""img"">
                            </div>
                        </div>","142","","0","images/gray_35.png","","","","disturbing"
"","","","","","html-slider-response","182","565012","0.0-176.0","71monwftvt","NaN","<div style=""width:500px;"">
                            <p style=""font-size:50px; font-weight:bold;""
                            >disturbing</p>
                            <div style=""width:240px; margin: auto;"">
                                <img src=""images/gray_15.png"" style= ""width:200px""alt=""img"">
                            </div>
                        </div>","159","","0","images/gray_15.png","","","","disturbing"
"","","","","","html-slider-response","183","566929","0.0-177.0","71monwftvt","NaN","<div style=""width:500px;"">
                            <p style=""font-size:50px; font-weight:bold;""
                            >disturbing</p>
                            <div style=""width:240px; margin: auto;"">
                                <img src=""images/gray_16.png"" style= ""width:200px""alt=""img"">
                            </div>
                        </div>","138","","0","images/gray_16.png","","","","disturbing"
"","","","","","html-slider-response","184","568812","0.0-178.0","71monwftvt","NaN","<div style=""width:500px;"">
                            <p style=""font-size:50px; font-weight:bold;""
                            >disturbing</p>
                            <div style=""width:240px; margin: auto;"">
                                <img src=""images/gray_11.png"" style= ""width:200px""alt=""img"">
                            </div>
                        </div>","200","","0","images/gray_11.png","","","","disturbing"
"","","","","","html-slider-response","185","570731","0.0-179.0","71monwftvt","NaN","<div style=""width:500px;"">
                            <p style=""font-size:50px; font-weight:bold;""
                            >disturbing</p>
                            <div style=""width:240px; margin: auto;"">
                                <img src=""images/gray_13.png"" style= ""width:200px""alt=""img"">
                            </div>
                        </div>","-200","","0","images/gray_13.png","","","","disturbing"
"","","","","","html-slider-response","186","573612","0.0-180.0","71monwftvt","NaN","<div style=""width:500px;"">
                            <p style=""font-size:50px; font-weight:bold;""
                            >disturbing</p>
                            <div style=""width:240px; margin: auto;"">
                                <img src=""images/gray_41.png"" style= ""width:200px""alt=""img"">
                            </div>
                        </div>","-130","","0","images/gray_41.png","","","","disturbing"
"","","","","","html-slider-response","187","575398","0.0-181.0","71monwftvt","NaN","<div style=""width:500px;"">
                            <p style=""font-size:50px; font-weight:bold;""
                            >disturbing</p>
                            <div style=""width:240px; margin: auto;"">
                                <img src=""images/gray_42.png"" style= ""width:200px""alt=""img"">
                            </div>
                        </div>","-81","","0","images/gray_42.png","","","","disturbing"
"","","","","","html-slider-response","188","577446","0.0-182.0","71monwftvt","NaN","<div style=""width:500px;"">
                            <p style=""font-size:50px; font-weight:bold;""
                            >disturbing</p>
                            <div style=""width:240px; margin: auto;"">
                                <img src=""images/gray_02.png"" style= ""width:200px""alt=""img"">
                            </div>
                        </div>","-172","","0","images/gray_02.png","","","","disturbing"
"","","","","","html-slider-response","189","579295","0.0-183.0","71monwftvt","NaN","<div style=""width:500px;"">
                            <p style=""font-size:50px; font-weight:bold;""
                            >disturbing</p>
                            <div style=""width:240px; margin: auto;"">
                                <img src=""images/gray_09.png"" style= ""width:200px""alt=""img"">
                            </div>
                        </div>","-119","","0","images/gray_09.png","","","","disturbing"
"","","","","","html-slider-response","190","580846","0.0-184.0","71monwftvt","NaN","<div style=""width:500px;"">
                            <p style=""font-size:50px; font-weight:bold;""
                            >disturbing</p>
                            <div style=""width:240px; margin: auto;"">
                                <img src=""images/gray_21.png"" style= ""width:200px""alt=""img"">
                            </div>
                        </div>","200","","0","images/gray_21.png","","","","disturbing"
"","","","","","html-slider-response","191","586180","0.0-185.0","71monwftvt","NaN","<div style=""width:500px;"">
                            <p style=""font-size:50px; font-weight:bold;""
                            >disturbing</p>
                            <div style=""width:240px; margin: auto;"">
                                <img src=""images/gray_40.png"" style= ""width:200px""alt=""img"">
                            </div>
                        </div>","-160","","0","images/gray_40.png","","","","disturbing"
"","","","","","html-slider-response","192","588213","0.0-186.0","71monwftvt","NaN","<div style=""width:500px;"">
                            <p style=""font-size:50px; font-weight:bold;""
                            >disturbing</p>
                            <div style=""width:240px; margin: auto;"">
                                <img src=""images/gray_43.png"" style= ""width:200px""alt=""img"">
                            </div>
                        </div>","-165","","0","images/gray_43.png","","","","disturbing"
"","","","","","html-slider-response","193","590179","0.0-187.0","71monwftvt","NaN","<div style=""width:500px;"">
                            <p style=""font-size:50px; font-weight:bold;""
                            >disturbing</p>
                            <div style=""width:240px; margin: auto;"">
                                <img src=""images/gray_34.png"" style= ""width:200px""alt=""img"">
                            </div>
                        </div>","200","","0","images/gray_34.png","","","","disturbing"
"","","","","","html-slider-response","194","592263","0.0-188.0","71monwftvt","NaN","<div style=""width:500px;"">
                            <p style=""font-size:50px; font-weight:bold;""
                            >disturbing</p>
                            <div style=""width:240px; margin: auto;"">
                                <img src=""images/gray_44.png"" style= ""width:200px""alt=""img"">
                            </div>
                        </div>","200","","0","images/gray_44.png","","","","disturbing"
"","","","","","html-slider-response","195","594395","0.0-189.0","71monwftvt","NaN","<div style=""width:500px;"">
                            <p style=""font-size:50px; font-weight:bold;""
                            >disturbing</p>
                            <div style=""width:240px; margin: auto;"">
                                <img src=""images/gray_22.png"" style= ""width:200px""alt=""img"">
                            </div>
                        </div>","200","","0","images/gray_22.png","","","","disturbing"
"","","","","","html-slider-response","196","596245","0.0-190.0","71monwftvt","NaN","<div style=""width:500px;"">
                            <p style=""font-size:50px; font-weight:bold;""
                            >disturbing</p>
                            <div style=""width:240px; margin: auto;"">
                                <img src=""images/gray_08.png"" style= ""width:200px""alt=""img"">
                            </div>
                        </div>","200","","0","images/gray_08.png","","","","disturbing"
"","","","","","html-slider-response","197","598779","0.0-191.0","71monwftvt","NaN","<div style=""width:500px;"">
                            <p style=""font-size:50px; font-weight:bold;""
                            >disturbing</p>
                            <div style=""width:240px; margin: auto;"">
                                <img src=""images/gray_37.png"" style= ""width:200px""alt=""img"">
                            </div>
                        </div>","46","","0","images/gray_37.png","","","","disturbing"
"","","","","","html-slider-response","198","601095","0.0-192.0","71monwftvt","NaN","<div style=""width:500px;"">
                            <p style=""font-size:50px; font-weight:bold;""
                            >disturbing</p>
                            <div style=""width:240px; margin: auto;"">
                                <img src=""images/gray_03.png"" style= ""width:200px""alt=""img"">
                            </div>
