"success","timeout","failed_images","failed_audio","failed_video","trial_type","trial_index","time_elapsed","internal_node_id","subject_id","rt","stimulus","response","question_order","slider_start","image_path","practiceTrial","practiceTrialNum","correct","concept"
"true","false","[]","[]","[]","preload","0","1783","0.0-0.0","7pml44yf4h","","","","","","","","","",""
"","","","","","html-button-response","1","9165","0.0-1.0","7pml44yf4h","7379","Welcome to our experiment!<p>At the bottom of this screen, you will see a button that says ""Begin Experiment"".<br>Please only click that button when you are ready to complete the 25 minute experiment in one sitting.</p><p> Once you click that button, it will not be possible to restart the experiment.","0","","","","","","",""
"true","","","","","fullscreen","2","12645","0.0-2.0","7pml44yf4h","2476","","","","","","","","",""
"","","","","","survey-multi-select","3","36050","0.0-3.0","7pml44yf4h","23400","","{""Consent"":[""<strong>I consent</strong>""]}","[0]","","","","","",""
"","","","","","html-button-response","4","41726","0.0-4.0","7pml44yf4h","5670","Welcome! <p> This experiment involves two parts: demographic information, followed by the experimental task.<p> It will take about 25 minutes to complete both parts.","0","","","","","","",""
"","","","","","survey-text","5","64024","0.0-5.0","7pml44yf4h","22289","","{""Age"":""19"",""Gender"":""Female"",""Race/ethnicity"":""white/caucasian"",""Languages"":""English""}","","","","","","",""
"","","","","","html-slider-response","6","81144","0.0-6.0","7pml44yf4h","17116","
            <div style='text-align:left; font-size:20px; line-height:25px; width: 1200px;'>
                During this experiment you will be asked to rate how much you associate maps with    different concepts.<br> Below, you can see some examples of the maps you will be asked to rate. Next to the maps
    is the list of concepts.<br>You will be asked    to rate how much you associate each map with each concept on a scale from 'not at all' to 'very much' like the
    one below. <br><br>
    Now, please look at the list of concepts and maps. For each concept, think about the map you associate 'very
    much' with the concept.<br>     When you see that map during the experiment, please rate it near the 'very much' endpoint of the
    scale.<br>Now, please think about which map you associate 'not at all'     with each concept. When you see that map during the experiment, please rate it near the 'not at all' endpoint
    of the scale.<br>
    Please use the full range of the scale. That is, if a map is somewhat associated with the concept, you would
    click partway between the middle point and right side of the scale.    You will be asked to rate each map for a given concept before moving on to the next concept.<br><br>Press the
    'Continue' button for instructions on how to use the slider.    <br><br>
</div>

<div style=""width: 500px; margin: 0 auto;"">
    <div style=""text-align: left; width: 200px; float: left;"">
        <p style=""font-size:25px; line-height:18px;"">calm</p>
        <p style=""font-size:25px; line-height:18px;"">exciting</p>
        <p style=""font-size:25px;line-height:18px;"">positive</p>
        <p style=""font-size:25px;line-height:18px;"">negative</p>
        <p style=""font-size:25px;line-height:18px;"">serious</p>
        <p style=""font-size:25px;line-height:18px;"">playful</p>
        <p style=""font-size:25px;line-height:18px;"">trustworthy</p>
        <p style=""font-size:25px;line-height:18px;"">disturbing</p>
    </div>
    <div style=""width: 200px; float: right; padding-top:15px; padding-right:40px"">
        <br>
        <br>
        <img src=""maps_anchoring.png"" alt=""img"" style=""max-width:500px"">
    </div>
    <div style=""clear: both;""></div>
</div>
            ","null","","0","maps_anchoring.png","true","","",""
"","","","","","html-button-response","7","83890","0.0-7.0","7pml44yf4h","2744","<div style=""width:800px;""><p style=""text-align:left"">To move the slider, click and drag your cursor to the location of the scale where you would like to make your rating and then let go. When you let go of the slider, your response will be recorded and the next trial will begin. <br>
            We are interested in your initial impressions of each map for the given concept, so please go with your first intuition. <br>
            Before you begin the experiment, there will be four training trials for you to practice using the scale. <br>
             When you are ready to start the training trials, please click ""Continue"".</p><br></div>","0","","","","","","",""
"","","","","","html-slider-response","8","87057","0.0-8.0-0.0","7pml44yf4h","NaN","<div style=""width:500px;"">
                            <p style=""font-size:25px;"">Please move the slider all the way to the <br> right endpoint of the scale</p>

                            </div>
                        </div>","200","","0","","true","0","true",""
"","","","","","html-button-response","9","88900","0.0-8.0-1.0","7pml44yf4h","1336","<p align='center'><b>Good job!</b> Click on 'Continue' to proceed.</p>","0","","","","","","",""
"","","","","","html-slider-response","10","91783","0.0-9.0-0.0","7pml44yf4h","NaN","<div style=""width:500px;"">
                            <p style=""font-size:25px;"">Please move the slider all the way to the <br> left endpoint of the scale</p>

                            </div>
                        </div>","-200","","0","","true","1","true",""
"","","","","","html-button-response","11","93356","0.0-9.0-1.0","7pml44yf4h","1071","<p align='center'><b>Good job!</b> Click on 'Continue' to proceed.</p>","0","","","","","","",""
"","","","","","html-slider-response","12","99983","0.0-10.0-0.0","7pml44yf4h","NaN","<div style=""width:500px;"">
                            <p style=""font-size:25px;"">Please move the slider halfway between the center and right endpoint of the scale</p>

                            </div>
                        </div>","107","","0","","true","2","true",""
"","","","","","html-button-response","13","101299","0.0-10.0-1.0","7pml44yf4h","812","<p align='center'><b>Good job!</b> Click on 'Continue' to proceed.</p>","0","","","","","","",""
"","","","","","html-slider-response","14","103721","0.0-11.0-0.0","7pml44yf4h","NaN","<div style=""width:500px;"">
                            <p style=""font-size:25px;"">Please move the slider halfway between the center and left endpoint of the scale</p>

                            </div>
                        </div>","-112","","0","","true","3","false",""
"","","","","","html-button-response","15","106959","0.0-11.0-1.0","7pml44yf4h","2734","<p align='center'><b>Not quite!</b> The slider was not placed near the instructed located. Click on 'Continue' to try again. </p>","0","","","","","","",""
"","","","","","html-slider-response","16","107178","0.0-11.1-0.1","7pml44yf4h","NaN","<div style=""width:500px;"">
                            <p style=""font-size:25px;"">Please move the slider halfway between the center and left endpoint of the scale</p>

                            </div>
                        </div>","0","","0","","true","3","false",""
"","","","","","html-button-response","17","108794","0.0-11.1-1.1","7pml44yf4h","1111","<p align='center'><b>Not quite!</b> The slider was not placed near the instructed located. Click on 'Continue' to try again. </p>","0","","","","","","",""
"","","","","","html-slider-response","18","114596","0.0-11.2-0.2","7pml44yf4h","NaN","<div style=""width:500px;"">
                            <p style=""font-size:25px;"">Please move the slider halfway between the center and left endpoint of the scale</p>

                            </div>
                        </div>","-102","","0","","true","3","true",""
"","","","","","html-button-response","19","116332","0.0-11.2-1.2","7pml44yf4h","1229","<p align='center'><b>Good job!</b> Click on 'Continue' to proceed.</p>","0","","","","","","",""
"","","","","","html-button-response","20","118838","0.0-12.0","7pml44yf4h","2505","<p>Great job! You've completed the practice trials. Now you will begin the main task.</p>","0","","","","","","",""
"","","","","","html-button-response","21","122174","0.0-13.0","7pml44yf4h","3335","<p>In this block of trials, you will be asked to rate how much you associate each map with:</p > <p style = 'font-size:150%; font-weight: bold'>serious</p><br></br>","0","","","","","","",""
"","","","","","html-slider-response","22","127855","0.0-14.0","7pml44yf4h","NaN","<div style=""width:500px;"">
                            <p style=""font-size:50px; font-weight:bold;""
                            >serious</p>
                            <div style=""width:240px; margin: auto;"">
                                <img src=""images/gray_39.png"" style= ""width:200px""alt=""img"">
                            </div>
                        </div>","21","","0","images/gray_39.png","","","","serious"
"","","","","","html-slider-response","23","131502","0.0-15.0","7pml44yf4h","NaN","<div style=""width:500px;"">
                            <p style=""font-size:50px; font-weight:bold;""
                            >serious</p>
                            <div style=""width:240px; margin: auto;"">
                                <img src=""images/gray_40.png"" style= ""width:200px""alt=""img"">
                            </div>
                        </div>","48","","0","images/gray_40.png","","","","serious"
"","","","","","html-slider-response","24","137479","0.0-16.0","7pml44yf4h","NaN","<div style=""width:500px;"">
                            <p style=""font-size:50px; font-weight:bold;""
                            >serious</p>
                            <div style=""width:240px; margin: auto;"">
                                <img src=""images/gray_03.png"" style= ""width:200px""alt=""img"">
                            </div>
                        </div>","-26","","0","images/gray_03.png","","","","serious"
"","","","","","html-slider-response","25","140907","0.0-17.0","7pml44yf4h","NaN","<div style=""width:500px;"">
                            <p style=""font-size:50px; font-weight:bold;""
                            >serious</p>
                            <div style=""width:240px; margin: auto;"">
                                <img src=""images/gray_06.png"" style= ""width:200px""alt=""img"">
                            </div>
                        </div>","49","","0","images/gray_06.png","","","","serious"
"","","","","","html-slider-response","26","144409","0.0-18.0","7pml44yf4h","NaN","<div style=""width:500px;"">
                            <p style=""font-size:50px; font-weight:bold;""
                            >serious</p>
                            <div style=""width:240px; margin: auto;"">
                                <img src=""images/gray_37.png"" style= ""width:200px""alt=""img"">
                            </div>
                        </div>","91","","0","images/gray_37.png","","","","serious"
"","","","","","html-slider-response","27","146837","0.0-19.0","7pml44yf4h","NaN","<div style=""width:500px;"">
                            <p style=""font-size:50px; font-weight:bold;""
                            >serious</p>
                            <div style=""width:240px; margin: auto;"">
                                <img src=""images/gray_35.png"" style= ""width:200px""alt=""img"">
                            </div>
                        </div>","30","","0","images/gray_35.png","","","","serious"
"","","","","","html-slider-response","28","149213","0.0-20.0","7pml44yf4h","NaN","<div style=""width:500px;"">
                            <p style=""font-size:50px; font-weight:bold;""
                            >serious</p>
                            <div style=""width:240px; margin: auto;"">
                                <img src=""images/gray_04.png"" style= ""width:200px""alt=""img"">
                            </div>
                        </div>","69","","0","images/gray_04.png","","","","serious"
"","","","","","html-slider-response","29","152167","0.0-21.0","7pml44yf4h","NaN","<div style=""width:500px;"">
                            <p style=""font-size:50px; font-weight:bold;""
                            >serious</p>
                            <div style=""width:240px; margin: auto;"">
                                <img src=""images/gray_41.png"" style= ""width:200px""alt=""img"">
                            </div>
                        </div>","36","","0","images/gray_41.png","","","","serious"
"","","","","","html-slider-response","30","154599","0.0-22.0","7pml44yf4h","NaN","<div style=""width:500px;"">
                            <p style=""font-size:50px; font-weight:bold;""
                            >serious</p>
                            <div style=""width:240px; margin: auto;"">
                                <img src=""images/gray_10.png"" style= ""width:200px""alt=""img"">
                            </div>
                        </div>","-31","","0","images/gray_10.png","","","","serious"
"","","","","","html-slider-response","31","156698","0.0-23.0","7pml44yf4h","NaN","<div style=""width:500px;"">
                            <p style=""font-size:50px; font-weight:bold;""
                            >serious</p>
                            <div style=""width:240px; margin: auto;"">
                                <img src=""images/gray_43.png"" style= ""width:200px""alt=""img"">
                            </div>
                        </div>","57","","0","images/gray_43.png","","","","serious"
"","","","","","html-slider-response","32","158942","0.0-24.0","7pml44yf4h","NaN","<div style=""width:500px;"">
                            <p style=""font-size:50px; font-weight:bold;""
                            >serious</p>
                            <div style=""width:240px; margin: auto;"">
                                <img src=""images/gray_05.png"" style= ""width:200px""alt=""img"">
                            </div>
                        </div>","22","","0","images/gray_05.png","","","","serious"
"","","","","","html-slider-response","33","161445","0.0-25.0","7pml44yf4h","NaN","<div style=""width:500px;"">
                            <p style=""font-size:50px; font-weight:bold;""
                            >serious</p>
                            <div style=""width:240px; margin: auto;"">
                                <img src=""images/gray_34.png"" style= ""width:200px""alt=""img"">
                            </div>
                        </div>","-40","","0","images/gray_34.png","","","","serious"
"","","","","","html-slider-response","34","164228","0.0-26.0","7pml44yf4h","NaN","<div style=""width:500px;"">
                            <p style=""font-size:50px; font-weight:bold;""
                            >serious</p>
                            <div style=""width:240px; margin: auto;"">
                                <img src=""images/gray_28.png"" style= ""width:200px""alt=""img"">
                            </div>
                        </div>","67","","0","images/gray_28.png","","","","serious"
"","","","","","html-slider-response","35","169528","0.0-27.0","7pml44yf4h","NaN","<div style=""width:500px;"">
                            <p style=""font-size:50px; font-weight:bold;""
                            >serious</p>
                            <div style=""width:240px; margin: auto;"">
                                <img src=""images/gray_14.png"" style= ""width:200px""alt=""img"">
                            </div>
                        </div>","-68","","0","images/gray_14.png","","","","serious"
"","","","","","html-slider-response","36","172193","0.0-28.0","7pml44yf4h","NaN","<div style=""width:500px;"">
                            <p style=""font-size:50px; font-weight:bold;""
                            >serious</p>
                            <div style=""width:240px; margin: auto;"">
                                <img src=""images/gray_36.png"" style= ""width:200px""alt=""img"">
                            </div>
                        </div>","-126","","0","images/gray_36.png","","","","serious"
"","","","","","html-slider-response","37","174754","0.0-29.0","7pml44yf4h","NaN","<div style=""width:500px;"">
                            <p style=""font-size:50px; font-weight:bold;""
                            >serious</p>
                            <div style=""width:240px; margin: auto;"">
                                <img src=""images/gray_15.png"" style= ""width:200px""alt=""img"">
                            </div>
                        </div>","-19","","0","images/gray_15.png","","","","serious"
"","","","","","html-slider-response","38","177085","0.0-30.0","7pml44yf4h","NaN","<div style=""width:500px;"">
                            <p style=""font-size:50px; font-weight:bold;""
                            >serious</p>
                            <div style=""width:240px; margin: auto;"">
                                <img src=""images/gray_26.png"" style= ""width:200px""alt=""img"">
                            </div>
                        </div>","110","","0","images/gray_26.png","","","","serious"
"","","","","","html-slider-response","39","179743","0.0-31.0","7pml44yf4h","NaN","<div style=""width:500px;"">
                            <p style=""font-size:50px; font-weight:bold;""
                            >serious</p>
                            <div style=""width:240px; margin: auto;"">
                                <img src=""images/gray_19.png"" style= ""width:200px""alt=""img"">
                            </div>
                        </div>","-37","","0","images/gray_19.png","","","","serious"
"","","","","","html-slider-response","40","181658","0.0-32.0","7pml44yf4h","NaN","<div style=""width:500px;"">
                            <p style=""font-size:50px; font-weight:bold;""
                            >serious</p>
                            <div style=""width:240px; margin: auto;"">
                                <img src=""images/gray_11.png"" style= ""width:200px""alt=""img"">
                            </div>
                        </div>","54","","0","images/gray_11.png","","","","serious"
"","","","","","html-slider-response","41","183384","0.0-33.0","7pml44yf4h","NaN","<div style=""width:500px;"">
                            <p style=""font-size:50px; font-weight:bold;""
                            >serious</p>
                            <div style=""width:240px; margin: auto;"">
                                <img src=""images/gray_44.png"" style= ""width:200px""alt=""img"">
                            </div>
                        </div>","39","","0","images/gray_44.png","","","","serious"
"","","","","","html-slider-response","42","185043","0.0-34.0","7pml44yf4h","NaN","<div style=""width:500px;"">
                            <p style=""font-size:50px; font-weight:bold;""
                            >serious</p>
                            <div style=""width:240px; margin: auto;"">
                                <img src=""images/gray_27.png"" style= ""width:200px""alt=""img"">
                            </div>
                        </div>","125","","0","images/gray_27.png","","","","serious"
"","","","","","html-slider-response","43","187163","0.0-35.0","7pml44yf4h","NaN","<div style=""width:500px;"">
                            <p style=""font-size:50px; font-weight:bold;""
                            >serious</p>
                            <div style=""width:240px; margin: auto;"">
                                <img src=""images/gray_42.png"" style= ""width:200px""alt=""img"">
                            </div>
                        </div>","22","","0","images/gray_42.png","","","","serious"
"","","","","","html-slider-response","44","191296","0.0-36.0","7pml44yf4h","NaN","<div style=""width:500px;"">
                            <p style=""font-size:50px; font-weight:bold;""
                            >serious</p>
                            <div style=""width:240px; margin: auto;"">
                                <img src=""images/gray_31.png"" style= ""width:200px""alt=""img"">
                            </div>
                        </div>","-145","","0","images/gray_31.png","","","","serious"
"","","","","","html-slider-response","45","193494","0.0-37.0","7pml44yf4h","NaN","<div style=""width:500px;"">
                            <p style=""font-size:50px; font-weight:bold;""
                            >serious</p>
                            <div style=""width:240px; margin: auto;"">
                                <img src=""images/gray_22.png"" style= ""width:200px""alt=""img"">
                            </div>
                        </div>","44","","0","images/gray_22.png","","","","serious"
"","","","","","html-slider-response","46","195391","0.0-38.0","7pml44yf4h","NaN","<div style=""width:500px;"">
                            <p style=""font-size:50px; font-weight:bold;""
                            >serious</p>
                            <div style=""width:240px; margin: auto;"">
                                <img src=""images/gray_18.png"" style= ""width:200px""alt=""img"">
                            </div>
                        </div>","-40","","0","images/gray_18.png","","","","serious"
"","","","","","html-slider-response","47","197357","0.0-39.0","7pml44yf4h","NaN","<div style=""width:500px;"">
                            <p style=""font-size:50px; font-weight:bold;""
                            >serious</p>
                            <div style=""width:240px; margin: auto;"">
                                <img src=""images/gray_08.png"" style= ""width:200px""alt=""img"">
                            </div>
                        </div>","111","","0","images/gray_08.png","","","","serious"
"","","","","","html-slider-response","48","199409","0.0-40.0","7pml44yf4h","NaN","<div style=""width:500px;"">
                            <p style=""font-size:50px; font-weight:bold;""
                            >serious</p>
                            <div style=""width:240px; margin: auto;"">
                                <img src=""images/gray_20.png"" style= ""width:200px""alt=""img"">
                            </div>
                        </div>","170","","0","images/gray_20.png","","","","serious"
"","","","","","html-slider-response","49","201339","0.0-41.0","7pml44yf4h","NaN","<div style=""width:500px;"">
                            <p style=""font-size:50px; font-weight:bold;""
                            >serious</p>
                            <div style=""width:240px; margin: auto;"">
                                <img src=""images/gray_07.png"" style= ""width:200px""alt=""img"">
                            </div>
                        </div>","200","","0","images/gray_07.png","","","","serious"
"","","","","","html-slider-response","50","203693","0.0-42.0","7pml44yf4h","NaN","<div style=""width:500px;"">
                            <p style=""font-size:50px; font-weight:bold;""
                            >serious</p>
                            <div style=""width:240px; margin: auto;"">
                                <img src=""images/gray_30.png"" style= ""width:200px""alt=""img"">
                            </div>
                        </div>","186","","0","images/gray_30.png","","","","serious"
"","","","","","html-slider-response","51","205831","0.0-43.0","7pml44yf4h","NaN","<div style=""width:500px;"">
                            <p style=""font-size:50px; font-weight:bold;""
                            >serious</p>
                            <div style=""width:240px; margin: auto;"">
                                <img src=""images/gray_25.png"" style= ""width:200px""alt=""img"">
                            </div>
                        </div>","62","","0","images/gray_25.png","","","","serious"
"","","","","","html-slider-response","52","208117","0.0-44.0","7pml44yf4h","NaN","<div style=""width:500px;"">
                            <p style=""font-size:50px; font-weight:bold;""
                            >serious</p>
                            <div style=""width:240px; margin: auto;"">
                                <img src=""images/gray_16.png"" style= ""width:200px""alt=""img"">
                            </div>
                        </div>","17","","0","images/gray_16.png","","","","serious"
"","","","","","html-slider-response","53","210099","0.0-45.0","7pml44yf4h","NaN","<div style=""width:500px;"">
                            <p style=""font-size:50px; font-weight:bold;""
                            >serious</p>
                            <div style=""width:240px; margin: auto;"">
                                <img src=""images/gray_38.png"" style= ""width:200px""alt=""img"">
                            </div>
                        </div>","-15","","0","images/gray_38.png","","","","serious"
"","","","","","html-slider-response","54","211726","0.0-46.0","7pml44yf4h","NaN","<div style=""width:500px;"">
                            <p style=""font-size:50px; font-weight:bold;""
                            >serious</p>
                            <div style=""width:240px; margin: auto;"">
                                <img src=""images/gray_33.png"" style= ""width:200px""alt=""img"">
                            </div>
                        </div>","200","","0","images/gray_33.png","","","","serious"
"","","","","","html-slider-response","55","215040","0.0-47.0","7pml44yf4h","NaN","<div style=""width:500px;"">
                            <p style=""font-size:50px; font-weight:bold;""
                            >serious</p>
                            <div style=""width:240px; margin: auto;"">
                                <img src=""images/gray_21.png"" style= ""width:200px""alt=""img"">
                            </div>
                        </div>","-138","","0","images/gray_21.png","","","","serious"
"","","","","","html-slider-response","56","217427","0.0-48.0","7pml44yf4h","NaN","<div style=""width:500px;"">
                            <p style=""font-size:50px; font-weight:bold;""
                            >serious</p>
                            <div style=""width:240px; margin: auto;"">
                                <img src=""images/gray_13.png"" style= ""width:200px""alt=""img"">
                            </div>
                        </div>","114","","0","images/gray_13.png","","","","serious"
"","","","","","html-slider-response","57","230491","0.0-49.0","7pml44yf4h","NaN","<div style=""width:500px;"">
                            <p style=""font-size:50px; font-weight:bold;""
                            >serious</p>
                            <div style=""width:240px; margin: auto;"">
                                <img src=""images/gray_32.png"" style= ""width:200px""alt=""img"">
                            </div>
                        </div>","32","","0","images/gray_32.png","","","","serious"
"","","","","","html-slider-response","58","233254","0.0-50.0","7pml44yf4h","NaN","<div style=""width:500px;"">
                            <p style=""font-size:50px; font-weight:bold;""
                            >serious</p>
                            <div style=""width:240px; margin: auto;"">
                                <img src=""images/gray_12.png"" style= ""width:200px""alt=""img"">
                            </div>
                        </div>","90","","0","images/gray_12.png","","","","serious"
"","","","","","html-slider-response","59","242558","0.0-51.0","7pml44yf4h","NaN","<div style=""width:500px;"">
                            <p style=""font-size:50px; font-weight:bold;""
                            >serious</p>
                            <div style=""width:240px; margin: auto;"">
                                <img src=""images/gray_29.png"" style= ""width:200px""alt=""img"">
                            </div>
                        </div>","-73","","0","images/gray_29.png","","","","serious"
"","","","","","html-slider-response","60","244604","0.0-52.0","7pml44yf4h","NaN","<div style=""width:500px;"">
                            <p style=""font-size:50px; font-weight:bold;""
                            >serious</p>
                            <div style=""width:240px; margin: auto;"">
                                <img src=""images/gray_02.png"" style= ""width:200px""alt=""img"">
                            </div>
                        </div>","62","","0","images/gray_02.png","","","","serious"
"","","","","","html-slider-response","61","250086","0.0-53.0","7pml44yf4h","NaN","<div style=""width:500px;"">
                            <p style=""font-size:50px; font-weight:bold;""
                            >serious</p>
                            <div style=""width:240px; margin: auto;"">
                                <img src=""images/gray_23.png"" style= ""width:200px""alt=""img"">
                            </div>
                        </div>","140","","0","images/gray_23.png","","","","serious"
"","","","","","html-slider-response","62","251904","0.0-54.0","7pml44yf4h","NaN","<div style=""width:500px;"">
                            <p style=""font-size:50px; font-weight:bold;""
                            >serious</p>
                            <div style=""width:240px; margin: auto;"">
                                <img src=""images/gray_24.png"" style= ""width:200px""alt=""img"">
                            </div>
                        </div>","-58","","0","images/gray_24.png","","","","serious"
"","","","","","html-slider-response","63","253712","0.0-55.0","7pml44yf4h","NaN","<div style=""width:500px;"">
                            <p style=""font-size:50px; font-weight:bold;""
                            >serious</p>
                            <div style=""width:240px; margin: auto;"">
                                <img src=""images/gray_01.png"" style= ""width:200px""alt=""img"">
                            </div>
                        </div>","81","","0","images/gray_01.png","","","","serious"
"","","","","","html-slider-response","64","255546","0.0-56.0","7pml44yf4h","NaN","<div style=""width:500px;"">
                            <p style=""font-size:50px; font-weight:bold;""
                            >serious</p>
                            <div style=""width:240px; margin: auto;"">
                                <img src=""images/gray_09.png"" style= ""width:200px""alt=""img"">
                            </div>
                        </div>","111","","0","images/gray_09.png","","","","serious"
"","","","","","html-slider-response","65","257505","0.0-57.0","7pml44yf4h","NaN","<div style=""width:500px;"">
                            <p style=""font-size:50px; font-weight:bold;""
                            >serious</p>
                            <div style=""width:240px; margin: auto;"">
                                <img src=""images/gray_17.png"" style= ""width:200px""alt=""img"">
                            </div>
                        </div>","114","","0","images/gray_17.png","","","","serious"
"","","","","","html-button-response","66","261394","0.0-58.0","7pml44yf4h","3387","<p>Great Job! You've finished block 1.<br></br> You have 7 block(s) left to go.<br></br></p>","0","","","","","","",""
"","","","","","html-button-response","67","262556","0.0-59.0","7pml44yf4h","1161","<p>In this block of trials, you will be asked to rate how much you associate each map with:</p > <p style = 'font-size:150%; font-weight: bold'>disturbing</p><br></br>","0","","","","","","",""
"","","","","","html-slider-response","68","264203","0.0-60.0","7pml44yf4h","NaN","<div style=""width:500px;"">
                            <p style=""font-size:50px; font-weight:bold;""
                            >disturbing</p>
                            <div style=""width:240px; margin: auto;"">
                                <img src=""images/gray_28.png"" style= ""width:200px""alt=""img"">
                            </div>
                        </div>","173","","0","images/gray_28.png","","","","disturbing"
"","","","","","html-slider-response","69","266180","0.0-61.0","7pml44yf4h","NaN","<div style=""width:500px;"">
                            <p style=""font-size:50px; font-weight:bold;""
                            >disturbing</p>
                            <div style=""width:240px; margin: auto;"">
                                <img src=""images/gray_11.png"" style= ""width:200px""alt=""img"">
                            </div>
                        </div>","178","","0","images/gray_11.png","","","","disturbing"
"","","","","","html-slider-response","70","268171","0.0-62.0","7pml44yf4h","NaN","<div style=""width:500px;"">
                            <p style=""font-size:50px; font-weight:bold;""
                            >disturbing</p>
                            <div style=""width:240px; margin: auto;"">
                                <img src=""images/gray_01.png"" style= ""width:200px""alt=""img"">
                            </div>
                        </div>","166","","0","images/gray_01.png","","","","disturbing"
"","","","","","html-slider-response","71","270348","0.0-63.0","7pml44yf4h","NaN","<div style=""width:500px;"">
                            <p style=""font-size:50px; font-weight:bold;""
                            >disturbing</p>
                            <div style=""width:240px; margin: auto;"">
                                <img src=""images/gray_26.png"" style= ""width:200px""alt=""img"">
                            </div>
                        </div>","104","","0","images/gray_26.png","","","","disturbing"
"","","","","","html-slider-response","72","272733","0.0-64.0","7pml44yf4h","NaN","<div style=""width:500px;"">
                            <p style=""font-size:50px; font-weight:bold;""
                            >disturbing</p>
                            <div style=""width:240px; margin: auto;"">
                                <img src=""images/gray_18.png"" style= ""width:200px""alt=""img"">
                            </div>
                        </div>","-158","","0","images/gray_18.png","","","","disturbing"
"","","","","","html-slider-response","73","274939","0.0-65.0","7pml44yf4h","NaN","<div style=""width:500px;"">
                            <p style=""font-size:50px; font-weight:bold;""
                            >disturbing</p>
                            <div style=""width:240px; margin: auto;"">
                                <img src=""images/gray_19.png"" style= ""width:200px""alt=""img"">
                            </div>
                        </div>","-98","","0","images/gray_19.png","","","","disturbing"
"","","","","","html-slider-response","74","276884","0.0-66.0","7pml44yf4h","NaN","<div style=""width:500px;"">
                            <p style=""font-size:50px; font-weight:bold;""
                            >disturbing</p>
                            <div style=""width:240px; margin: auto;"">
                                <img src=""images/gray_39.png"" style= ""width:200px""alt=""img"">
                            </div>
                        </div>","123","","0","images/gray_39.png","","","","disturbing"
"","","","","","html-slider-response","75","278963","0.0-67.0","7pml44yf4h","NaN","<div style=""width:500px;"">
                            <p style=""font-size:50px; font-weight:bold;""
                            >disturbing</p>
                            <div style=""width:240px; margin: auto;"">
                                <img src=""images/gray_24.png"" style= ""width:200px""alt=""img"">
                            </div>
                        </div>","90","","0","images/gray_24.png","","","","disturbing"
"","","","","","html-slider-response","76","281223","0.0-68.0","7pml44yf4h","NaN","<div style=""width:500px;"">
                            <p style=""font-size:50px; font-weight:bold;""
                            >disturbing</p>
                            <div style=""width:240px; margin: auto;"">
                                <img src=""images/gray_33.png"" style= ""width:200px""alt=""img"">
                            </div>
                        </div>","145","","0","images/gray_33.png","","","","disturbing"
"","","","","","html-slider-response","77","283210","0.0-69.0","7pml44yf4h","NaN","<div style=""width:500px;"">
                            <p style=""font-size:50px; font-weight:bold;""
                            >disturbing</p>
                            <div style=""width:240px; margin: auto;"">
                                <img src=""images/gray_43.png"" style= ""width:200px""alt=""img"">
                            </div>
                        </div>","140","","0","images/gray_43.png","","","","disturbing"
"","","","","","html-slider-response","78","288902","0.0-70.0","7pml44yf4h","NaN","<div style=""width:500px;"">
                            <p style=""font-size:50px; font-weight:bold;""
                            >disturbing</p>
                            <div style=""width:240px; margin: auto;"">
                                <img src=""images/gray_25.png"" style= ""width:200px""alt=""img"">
                            </div>
                        </div>","-127","","0","images/gray_25.png","","","","disturbing"
"","","","","","html-slider-response","79","291355","0.0-71.0","7pml44yf4h","NaN","<div style=""width:500px;"">
                            <p style=""font-size:50px; font-weight:bold;""
                            >disturbing</p>
                            <div style=""width:240px; margin: auto;"">
                                <img src=""images/gray_31.png"" style= ""width:200px""alt=""img"">
                            </div>
                        </div>","-86","","0","images/gray_31.png","","","","disturbing"
"","","","","","html-slider-response","80","294750","0.0-72.0","7pml44yf4h","NaN","<div style=""width:500px;"">
                            <p style=""font-size:50px; font-weight:bold;""
                            >disturbing</p>
                            <div style=""width:240px; margin: auto;"">
                                <img src=""images/gray_06.png"" style= ""width:200px""alt=""img"">
                            </div>
                        </div>","-134","","0","images/gray_06.png","","","","disturbing"
"","","","","","html-slider-response","81","297997","0.0-73.0","7pml44yf4h","NaN","<div style=""width:500px;"">
                            <p style=""font-size:50px; font-weight:bold;""
                            >disturbing</p>
                            <div style=""width:240px; margin: auto;"">
                                <img src=""images/gray_44.png"" style= ""width:200px""alt=""img"">
                            </div>
                        </div>","112","","0","images/gray_44.png","","","","disturbing"
"","","","","","html-slider-response","82","301589","0.0-74.0","7pml44yf4h","NaN","<div style=""width:500px;"">
                            <p style=""font-size:50px; font-weight:bold;""
                            >disturbing</p>
                            <div style=""width:240px; margin: auto;"">
                                <img src=""images/gray_13.png"" style= ""width:200px""alt=""img"">
                            </div>
                        </div>","-78","","0","images/gray_13.png","","","","disturbing"
"","","","","","html-slider-response","83","303586","0.0-75.0","7pml44yf4h","NaN","<div style=""width:500px;"">
                            <p style=""font-size:50px; font-weight:bold;""
                            >disturbing</p>
                            <div style=""width:240px; margin: auto;"">
                                <img src=""images/gray_37.png"" style= ""width:200px""alt=""img"">
                            </div>
                        </div>","108","","0","images/gray_37.png","","","","disturbing"
"","","","","","html-slider-response","84","309722","0.0-76.0","7pml44yf4h","NaN","<div style=""width:500px;"">
                            <p style=""font-size:50px; font-weight:bold;""
                            >disturbing</p>
                            <div style=""width:240px; margin: auto;"">
                                <img src=""images/gray_08.png"" style= ""width:200px""alt=""img"">
                            </div>
                        </div>","105","","0","images/gray_08.png","","","","disturbing"
"","","","","","html-slider-response","85","315589","0.0-77.0","7pml44yf4h","NaN","<div style=""width:500px;"">
                            <p style=""font-size:50px; font-weight:bold;""
                            >disturbing</p>
                            <div style=""width:240px; margin: auto;"">
                                <img src=""images/gray_14.png"" style= ""width:200px""alt=""img"">
                            </div>
                        </div>","-106","","0","images/gray_14.png","","","","disturbing"
"","","","","","html-slider-response","86","321022","0.0-78.0","7pml44yf4h","NaN","<div style=""width:500px;"">
                            <p style=""font-size:50px; font-weight:bold;""
                            >disturbing</p>
                            <div style=""width:240px; margin: auto;"">
                                <img src=""images/gray_38.png"" style= ""width:200px""alt=""img"">
                            </div>
                        </div>","130","","0","images/gray_38.png","","","","disturbing"
"","","","","","html-slider-response","87","325870","0.0-79.0","7pml44yf4h","NaN","<div style=""width:500px;"">
                            <p style=""font-size:50px; font-weight:bold;""
                            >disturbing</p>
                            <div style=""width:240px; margin: auto;"">
                                <img src=""images/gray_41.png"" style= ""width:200px""alt=""img"">
                            </div>
                        </div>","91","","0","images/gray_41.png","","","","disturbing"
"","","","","","html-slider-response","88","327457","0.0-80.0","7pml44yf4h","NaN","<div style=""width:500px;"">
                            <p style=""font-size:50px; font-weight:bold;""
                            >disturbing</p>
                            <div style=""width:240px; margin: auto;"">
                                <img src=""images/gray_17.png"" style= ""width:200px""alt=""img"">
                            </div>
                        </div>","150","","0","images/gray_17.png","","","","disturbing"
"","","","","","html-slider-response","89","329626","0.0-81.0","7pml44yf4h","NaN","<div style=""width:500px;"">
                            <p style=""font-size:50px; font-weight:bold;""
                            >disturbing</p>
                            <div style=""width:240px; margin: auto;"">
                                <img src=""images/gray_35.png"" style= ""width:200px""alt=""img"">
                            </div>
                        </div>","26","","0","images/gray_35.png","","","","disturbing"
"","","","","","html-slider-response","90","332454","0.0-82.0","7pml44yf4h","NaN","<div style=""width:500px;"">
                            <p style=""font-size:50px; font-weight:bold;""
                            >disturbing</p>
                            <div style=""width:240px; margin: auto;"">
                                <img src=""images/gray_03.png"" style= ""width:200px""alt=""img"">
                            </div>
                        </div>","-110","","0","images/gray_03.png","","","","disturbing"
"","","","","","html-slider-response","91","334915","0.0-83.0","7pml44yf4h","NaN","<div style=""width:500px;"">
                            <p style=""font-size:50px; font-weight:bold;""
                            >disturbing</p>
                            <div style=""width:240px; margin: auto;"">
                                <img src=""images/gray_04.png"" style= ""width:200px""alt=""img"">
                            </div>
                        </div>","91","","0","images/gray_04.png","","","","disturbing"
"","","","","","html-slider-response","92","337077","0.0-84.0","7pml44yf4h","NaN","<div style=""width:500px;"">
                            <p style=""font-size:50px; font-weight:bold;""
                            >disturbing</p>
                            <div style=""width:240px; margin: auto;"">
                                <img src=""images/gray_36.png"" style= ""width:200px""alt=""img"">
                            </div>
                        </div>","42","","0","images/gray_36.png","","","","disturbing"
"","","","","","html-slider-response","93","339352","0.0-85.0","7pml44yf4h","NaN","<div style=""width:500px;"">
                            <p style=""font-size:50px; font-weight:bold;""
                            >disturbing</p>
                            <div style=""width:240px; margin: auto;"">
                                <img src=""images/gray_05.png"" style= ""width:200px""alt=""img"">
                            </div>
                        </div>","44","","0","images/gray_05.png","","","","disturbing"
"","","","","","html-slider-response","94","341430","0.0-86.0","7pml44yf4h","NaN","<div style=""width:500px;"">
                            <p style=""font-size:50px; font-weight:bold;""
                            >disturbing</p>
                            <div style=""width:240px; margin: auto;"">
                                <img src=""images/gray_10.png"" style= ""width:200px""alt=""img"">
                            </div>
                        </div>","146","","0","images/gray_10.png","","","","disturbing"
"","","","","","html-slider-response","95","343163","0.0-87.0","7pml44yf4h","NaN","<div style=""width:500px;"">
                            <p style=""font-size:50px; font-weight:bold;""
                            >disturbing</p>
                            <div style=""width:240px; margin: auto;"">
                                <img src=""images/gray_22.png"" style= ""width:200px""alt=""img"">
                            </div>
                        </div>","-52","","0","images/gray_22.png","","","","disturbing"
"","","","","","html-slider-response","96","345381","0.0-88.0","7pml44yf4h","NaN","<div style=""width:500px;"">
                            <p style=""font-size:50px; font-weight:bold;""
                            >disturbing</p>
                            <div style=""width:240px; margin: auto;"">
                                <img src=""images/gray_29.png"" style= ""width:200px""alt=""img"">
                            </div>
                        </div>","-121","","0","images/gray_29.png","","","","disturbing"
"","","","","","html-slider-response","97","347304","0.0-89.0","7pml44yf4h","NaN","<div style=""width:500px;"">
                            <p style=""font-size:50px; font-weight:bold;""
                            >disturbing</p>
                            <div style=""width:240px; margin: auto;"">
                                <img src=""images/gray_09.png"" style= ""width:200px""alt=""img"">
                            </div>
                        </div>","64","","0","images/gray_09.png","","","","disturbing"
"","","","","","html-slider-response","98","349257","0.0-90.0","7pml44yf4h","NaN","<div style=""width:500px;"">
                            <p style=""font-size:50px; font-weight:bold;""
                            >disturbing</p>
                            <div style=""width:240px; margin: auto;"">
                                <img src=""images/gray_02.png"" style= ""width:200px""alt=""img"">
                            </div>
                        </div>","79","","0","images/gray_02.png","","","","disturbing"
"","","","","","html-slider-response","99","350332","0.0-91.0","7pml44yf4h","NaN","<div style=""width:500px;"">
                            <p style=""font-size:50px; font-weight:bold;""
                            >disturbing</p>
                            <div style=""width:240px; margin: auto;"">
                                <img src=""images/gray_20.png"" style= ""width:200px""alt=""img"">
                            </div>
                        </div>","3","","0","images/gray_20.png","","","","disturbing"
"","","","","","html-slider-response","100","352250","0.0-92.0","7pml44yf4h","NaN","<div style=""width:500px;"">
                            <p style=""font-size:50px; font-weight:bold;""
                            >disturbing</p>
                            <div style=""width:240px; margin: auto;"">
                                <img src=""images/gray_21.png"" style= ""width:200px""alt=""img"">
                            </div>
                        </div>","-81","","0","images/gray_21.png","","","","disturbing"
"","","","","","html-slider-response","101","354777","0.0-93.0","7pml44yf4h","NaN","<div style=""width:500px;"">
                            <p style=""font-size:50px; font-weight:bold;""
                            >disturbing</p>
                            <div style=""width:240px; margin: auto;"">
                                <img src=""images/gray_30.png"" style= ""width:200px""alt=""img"">
                            </div>
                        </div>","65","","0","images/gray_30.png","","","","disturbing"
"","","","","","html-slider-response","102","360728","0.0-94.0","7pml44yf4h","NaN","<div style=""width:500px;"">
                            <p style=""font-size:50px; font-weight:bold;""
                            >disturbing</p>
                            <div style=""width:240px; margin: auto;"">
                                <img src=""images/gray_32.png"" style= ""width:200px""alt=""img"">
                            </div>
                        </div>","77","","0","images/gray_32.png","","","","disturbing"
"","","","","","html-slider-response","103","362836","0.0-95.0","7pml44yf4h","NaN","<div style=""width:500px;"">
                            <p style=""font-size:50px; font-weight:bold;""
                            >disturbing</p>
                            <div style=""width:240px; margin: auto;"">
                                <img src=""images/gray_27.png"" style= ""width:200px""alt=""img"">
                            </div>
                        </div>","142","","0","images/gray_27.png","","","","disturbing"
"","","","","","html-slider-response","104","365221","0.0-96.0","7pml44yf4h","NaN","<div style=""width:500px;"">
                            <p style=""font-size:50px; font-weight:bold;""
                            >disturbing</p>
                            <div style=""width:240px; margin: auto;"">
                                <img src=""images/gray_40.png"" style= ""width:200px""alt=""img"">
                            </div>
                        </div>","34","","0","images/gray_40.png","","","","disturbing"
"","","","","","html-slider-response","105","372399","0.0-97.0","7pml44yf4h","NaN","<div style=""width:500px;"">
                            <p style=""font-size:50px; font-weight:bold;""
                            >disturbing</p>
                            <div style=""width:240px; margin: auto;"">
                                <img src=""images/gray_07.png"" style= ""width:200px""alt=""img"">
                            </div>
                        </div>","146","","0","images/gray_07.png","","","","disturbing"
"","","","","","html-slider-response","106","376058","0.0-98.0","7pml44yf4h","NaN","<div style=""width:500px;"">
                            <p style=""font-size:50px; font-weight:bold;""
                            >disturbing</p>
                            <div style=""width:240px; margin: auto;"">
                                <img src=""images/gray_42.png"" style= ""width:200px""alt=""img"">
                            </div>
                        </div>","33","","0","images/gray_42.png","","","","disturbing"
"","","","","","html-slider-response","107","377826","0.0-99.0","7pml44yf4h","NaN","<div style=""width:500px;"">
                            <p style=""font-size:50px; font-weight:bold;""
                            >disturbing</p>
                            <div style=""width:240px; margin: auto;"">
                                <img src=""images/gray_16.png"" style= ""width:200px""alt=""img"">
                            </div>
                        </div>","98","","0","images/gray_16.png","","","","disturbing"
"","","","","","html-slider-response","108","379535","0.0-100.0","7pml44yf4h","NaN","<div style=""width:500px;"">
                            <p style=""font-size:50px; font-weight:bold;""
                            >disturbing</p>
                            <div style=""width:240px; margin: auto;"">
                                <img src=""images/gray_23.png"" style= ""width:200px""alt=""img"">
                            </div>
                        </div>","200","","0","images/gray_23.png","","","","disturbing"
"","","","","","html-slider-response","109","381458","0.0-101.0","7pml44yf4h","NaN","<div style=""width:500px;"">
                            <p style=""font-size:50px; font-weight:bold;""
                            >disturbing</p>
                            <div style=""width:240px; margin: auto;"">
                                <img src=""images/gray_12.png"" style= ""width:200px""alt=""img"">
                            </div>
                        </div>","26","","0","images/gray_12.png","","","","disturbing"
"","","","","","html-slider-response","110","384248","0.0-102.0","7pml44yf4h","NaN","<div style=""width:500px;"">
                            <p style=""font-size:50px; font-weight:bold;""
                            >disturbing</p>
                            <div style=""width:240px; margin: auto;"">
                                <img src=""images/gray_34.png"" style= ""width:200px""alt=""img"">
                            </div>
                        </div>","-66","","0","images/gray_34.png","","","","disturbing"
"","","","","","html-slider-response","111","386090","0.0-103.0","7pml44yf4h","NaN","<div style=""width:500px;"">
                            <p style=""font-size:50px; font-weight:bold;""
                            >disturbing</p>
                            <div style=""width:240px; margin: auto;"">
                                <img src=""images/gray_15.png"" style= ""width:200px""alt=""img"">
                            </div>
                        </div>","24","","0","images/gray_15.png","","","","disturbing"
"","","","","","html-button-response","112","388226","0.0-104.0","7pml44yf4h","1633","<p>Great Job! You've finished block 2.<br></br> You have 6 block(s) left to go.<br></br></p>","0","","","","","","",""
"","","","","","html-button-response","113","388922","0.0-105.0","7pml44yf4h","694","<p>In this block of trials, you will be asked to rate how much you associate each map with:</p > <p style = 'font-size:150%; font-weight: bold'>exciting</p><br></br>","0","","","","","","",""
"","","","","","html-slider-response","114","390539","0.0-106.0","7pml44yf4h","NaN","<div style=""width:500px;"">
                            <p style=""font-size:50px; font-weight:bold;""
                            >exciting</p>
                            <div style=""width:240px; margin: auto;"">
                                <img src=""images/gray_41.png"" style= ""width:200px""alt=""img"">
                            </div>
                        </div>","22","","0","images/gray_41.png","","","","exciting"
"","","","","","html-slider-response","115","392772","0.0-107.0","7pml44yf4h","NaN","<div style=""width:500px;"">
                            <p style=""font-size:50px; font-weight:bold;""
                            >exciting</p>
                            <div style=""width:240px; margin: auto;"">
                                <img src=""images/gray_27.png"" style= ""width:200px""alt=""img"">
                            </div>
                        </div>","41","","0","images/gray_27.png","","","","exciting"
"","","","","","html-slider-response","116","394708","0.0-108.0","7pml44yf4h","NaN","<div style=""width:500px;"">
                            <p style=""font-size:50px; font-weight:bold;""
                            >exciting</p>
                            <div style=""width:240px; margin: auto;"">
                                <img src=""images/gray_36.png"" style= ""width:200px""alt=""img"">
                            </div>
                        </div>","114","","0","images/gray_36.png","","","","exciting"
"","","","","","html-slider-response","117","397142","0.0-109.0","7pml44yf4h","NaN","<div style=""width:500px;"">
                            <p style=""font-size:50px; font-weight:bold;""
                            >exciting</p>
                            <div style=""width:240px; margin: auto;"">
                                <img src=""images/gray_14.png"" style= ""width:200px""alt=""img"">
                            </div>
                        </div>","200","","0","images/gray_14.png","","","","exciting"
"","","","","","html-slider-response","118","399806","0.0-110.0","7pml44yf4h","NaN","<div style=""width:500px;"">
                            <p style=""font-size:50px; font-weight:bold;""
                            >exciting</p>
                            <div style=""width:240px; margin: auto;"">
                                <img src=""images/gray_28.png"" style= ""width:200px""alt=""img"">
                            </div>
                        </div>","63","","0","images/gray_28.png","","","","exciting"
"","","","","","html-slider-response","119","401865","0.0-111.0","7pml44yf4h","NaN","<div style=""width:500px;"">
                            <p style=""font-size:50px; font-weight:bold;""
                            >exciting</p>
                            <div style=""width:240px; margin: auto;"">
                                <img src=""images/gray_05.png"" style= ""width:200px""alt=""img"">
                            </div>
                        </div>","-137","","0","images/gray_05.png","","","","exciting"
"","","","","","html-slider-response","120","403753","0.0-112.0","7pml44yf4h","NaN","<div style=""width:500px;"">
                            <p style=""font-size:50px; font-weight:bold;""
                            >exciting</p>
                            <div style=""width:240px; margin: auto;"">
                                <img src=""images/gray_12.png"" style= ""width:200px""alt=""img"">
                            </div>
                        </div>","-107","","0","images/gray_12.png","","","","exciting"
"","","","","","html-slider-response","121","405521","0.0-113.0","7pml44yf4h","NaN","<div style=""width:500px;"">
                            <p style=""font-size:50px; font-weight:bold;""
                            >exciting</p>
                            <div style=""width:240px; margin: auto;"">
                                <img src=""images/gray_04.png"" style= ""width:200px""alt=""img"">
                            </div>
                        </div>","-112","","0","images/gray_04.png","","","","exciting"
"","","","","","html-slider-response","122","407360","0.0-114.0","7pml44yf4h","NaN","<div style=""width:500px;"">
                            <p style=""font-size:50px; font-weight:bold;""
                            >exciting</p>
                            <div style=""width:240px; margin: auto;"">
                                <img src=""images/gray_23.png"" style= ""width:200px""alt=""img"">
                            </div>
                        </div>","-129","","0","images/gray_23.png","","","","exciting"
"","","","","","html-slider-response","123","409015","0.0-115.0","7pml44yf4h","NaN","<div style=""width:500px;"">
                            <p style=""font-size:50px; font-weight:bold;""
                            >exciting</p>
                            <div style=""width:240px; margin: auto;"">
                                <img src=""images/gray_10.png"" style= ""width:200px""alt=""img"">
                            </div>
                        </div>","200","","0","images/gray_10.png","","","","exciting"
"","","","","","html-slider-response","124","411434","0.0-116.0","7pml44yf4h","NaN","<div style=""width:500px;"">
                            <p style=""font-size:50px; font-weight:bold;""
                            >exciting</p>
                            <div style=""width:240px; margin: auto;"">
                                <img src=""images/gray_35.png"" style= ""width:200px""alt=""img"">
                            </div>
                        </div>","-98","","0","images/gray_35.png","","","","exciting"
"","","","","","html-slider-response","125","412994","0.0-117.0","7pml44yf4h","NaN","<div style=""width:500px;"">
                            <p style=""font-size:50px; font-weight:bold;""
                            >exciting</p>
                            <div style=""width:240px; margin: auto;"">
                                <img src=""images/gray_43.png"" style= ""width:200px""alt=""img"">
                            </div>
                        </div>","84","","0","images/gray_43.png","","","","exciting"
"","","","","","html-slider-response","126","415011","0.0-118.0","7pml44yf4h","NaN","<div style=""width:500px;"">
                            <p style=""font-size:50px; font-weight:bold;""
                            >exciting</p>
                            <div style=""width:240px; margin: auto;"">
                                <img src=""images/gray_24.png"" style= ""width:200px""alt=""img"">
                            </div>
                        </div>","-153","","0","images/gray_24.png","","","","exciting"
"","","","","","html-slider-response","127","417109","0.0-119.0","7pml44yf4h","NaN","<div style=""width:500px;"">
                            <p style=""font-size:50px; font-weight:bold;""
                            >exciting</p>
                            <div style=""width:240px; margin: auto;"">
                                <img src=""images/gray_34.png"" style= ""width:200px""alt=""img"">
                            </div>
                        </div>","-67","","0","images/gray_34.png","","","","exciting"
"","","","","","html-slider-response","128","418799","0.0-120.0","7pml44yf4h","NaN","<div style=""width:500px;"">
                            <p style=""font-size:50px; font-weight:bold;""
                            >exciting</p>
                            <div style=""width:240px; margin: auto;"">
                                <img src=""images/gray_15.png"" style= ""width:200px""alt=""img"">
                            </div>
                        </div>","-79","","0","images/gray_15.png","","","","exciting"
"","","","","","html-slider-response","129","420717","0.0-121.0","7pml44yf4h","NaN","<div style=""width:500px;"">
                            <p style=""font-size:50px; font-weight:bold;""
                            >exciting</p>
                            <div style=""width:240px; margin: auto;"">
                                <img src=""images/gray_03.png"" style= ""width:200px""alt=""img"">
                            </div>
                        </div>","-55","","0","images/gray_03.png","","","","exciting"
"","","","","","html-slider-response","130","422707","0.0-122.0","7pml44yf4h","NaN","<div style=""width:500px;"">
                            <p style=""font-size:50px; font-weight:bold;""
                            >exciting</p>
                            <div style=""width:240px; margin: auto;"">
                                <img src=""images/gray_30.png"" style= ""width:200px""alt=""img"">
                            </div>
                        </div>","122","","0","images/gray_30.png","","","","exciting"
"","","","","","html-slider-response","131","424852","0.0-123.0","7pml44yf4h","NaN","<div style=""width:500px;"">
                            <p style=""font-size:50px; font-weight:bold;""
                            >exciting</p>
                            <div style=""width:240px; margin: auto;"">
                                <img src=""images/gray_17.png"" style= ""width:200px""alt=""img"">
                            </div>
                        </div>","-43","","0","images/gray_17.png","","","","exciting"
"","","","","","html-slider-response","132","426814","0.0-124.0","7pml44yf4h","NaN","<div style=""width:500px;"">
                            <p style=""font-size:50px; font-weight:bold;""
                            >exciting</p>
                            <div style=""width:240px; margin: auto;"">
                                <img src=""images/gray_37.png"" style= ""width:200px""alt=""img"">
                            </div>
                        </div>","189","","0","images/gray_37.png","","","","exciting"
"","","","","","html-slider-response","133","428135","0.0-125.0","7pml44yf4h","NaN","<div style=""width:500px;"">
                            <p style=""font-size:50px; font-weight:bold;""
                            >exciting</p>
                            <div style=""width:240px; margin: auto;"">
                                <img src=""images/gray_01.png"" style= ""width:200px""alt=""img"">
                            </div>
                        </div>","10","","0","images/gray_01.png","","","","exciting"
"","","","","","html-slider-response","134","429899","0.0-126.0","7pml44yf4h","NaN","<div style=""width:500px;"">
                            <p style=""font-size:50px; font-weight:bold;""
                            >exciting</p>
                            <div style=""width:240px; margin: auto;"">
                                <img src=""images/gray_29.png"" style= ""width:200px""alt=""img"">
                            </div>
                        </div>","49","","0","images/gray_29.png","","","","exciting"
"","","","","","html-slider-response","135","431766","0.0-127.0","7pml44yf4h","NaN","<div style=""width:500px;"">
                            <p style=""font-size:50px; font-weight:bold;""
                            >exciting</p>
                            <div style=""width:240px; margin: auto;"">
                                <img src=""images/gray_39.png"" style= ""width:200px""alt=""img"">
                            </div>
                        </div>","-136","","0","images/gray_39.png","","","","exciting"
"","","","","","html-slider-response","136","433679","0.0-128.0","7pml44yf4h","NaN","<div style=""width:500px;"">
                            <p style=""font-size:50px; font-weight:bold;""
                            >exciting</p>
                            <div style=""width:240px; margin: auto;"">
                                <img src=""images/gray_25.png"" style= ""width:200px""alt=""img"">
                            </div>
                        </div>","-41","","0","images/gray_25.png","","","","exciting"
"","","","","","html-slider-response","137","435659","0.0-129.0","7pml44yf4h","NaN","<div style=""width:500px;"">
                            <p style=""font-size:50px; font-weight:bold;""
                            >exciting</p>
                            <div style=""width:240px; margin: auto;"">
                                <img src=""images/gray_40.png"" style= ""width:200px""alt=""img"">
                            </div>
                        </div>","-68","","0","images/gray_40.png","","","","exciting"
"","","","","","html-slider-response","138","438148","0.0-130.0","7pml44yf4h","NaN","<div style=""width:500px;"">
                            <p style=""font-size:50px; font-weight:bold;""
                            >exciting</p>
                            <div style=""width:240px; margin: auto;"">
                                <img src=""images/gray_13.png"" style= ""width:200px""alt=""img"">
                            </div>
                        </div>","-66","","0","images/gray_13.png","","","","exciting"
"","","","","","html-slider-response","139","439676","0.0-131.0","7pml44yf4h","NaN","<div style=""width:500px;"">
                            <p style=""font-size:50px; font-weight:bold;""
                            >exciting</p>
                            <div style=""width:240px; margin: auto;"">
                                <img src=""images/gray_44.png"" style= ""width:200px""alt=""img"">
                            </div>
                        </div>","72","","0","images/gray_44.png","","","","exciting"
"","","","","","html-slider-response","140","441364","0.0-132.0","7pml44yf4h","NaN","<div style=""width:500px;"">
                            <p style=""font-size:50px; font-weight:bold;""
                            >exciting</p>
                            <div style=""width:240px; margin: auto;"">
                                <img src=""images/gray_26.png"" style= ""width:200px""alt=""img"">
                            </div>
                        </div>","-48","","0","images/gray_26.png","","","","exciting"
"","","","","","html-slider-response","141","443544","0.0-133.0","7pml44yf4h","NaN","<div style=""width:500px;"">
                            <p style=""font-size:50px; font-weight:bold;""
                            >exciting</p>
                            <div style=""width:240px; margin: auto;"">
                                <img src=""images/gray_21.png"" style= ""width:200px""alt=""img"">
                            </div>
                        </div>","-102","","0","images/gray_21.png","","","","exciting"
"","","","","","html-slider-response","142","446023","0.0-134.0","7pml44yf4h","NaN","<div style=""width:500px;"">
                            <p style=""font-size:50px; font-weight:bold;""
                            >exciting</p>
                            <div style=""width:240px; margin: auto;"">
                                <img src=""images/gray_19.png"" style= ""width:200px""alt=""img"">
                            </div>
                        </div>","-54","","0","images/gray_19.png","","","","exciting"
"","","","","","html-slider-response","143","447915","0.0-135.0","7pml44yf4h","NaN","<div style=""width:500px;"">
                            <p style=""font-size:50px; font-weight:bold;""
                            >exciting</p>
                            <div style=""width:240px; margin: auto;"">
                                <img src=""images/gray_38.png"" style= ""width:200px""alt=""img"">
                            </div>
                        </div>","-41","","0","images/gray_38.png","","","","exciting"
"","","","","","html-slider-response","144","449485","0.0-136.0","7pml44yf4h","NaN","<div style=""width:500px;"">
                            <p style=""font-size:50px; font-weight:bold;""
                            >exciting</p>
                            <div style=""width:240px; margin: auto;"">
                                <img src=""images/gray_20.png"" style= ""width:200px""alt=""img"">
                            </div>
                        </div>","-67","","0","images/gray_20.png","","","","exciting"
"","","","","","html-slider-response","145","451438","0.0-137.0","7pml44yf4h","NaN","<div style=""width:500px;"">
                            <p style=""font-size:50px; font-weight:bold;""
                            >exciting</p>
                            <div style=""width:240px; margin: auto;"">
                                <img src=""images/gray_07.png"" style= ""width:200px""alt=""img"">
                            </div>
                        </div>","-52","","0","images/gray_07.png","","","","exciting"
"","","","","","html-slider-response","146","453081","0.0-138.0","7pml44yf4h","NaN","<div style=""width:500px;"">
                            <p style=""font-size:50px; font-weight:bold;""
                            >exciting</p>
                            <div style=""width:240px; margin: auto;"">
                                <img src=""images/gray_33.png"" style= ""width:200px""alt=""img"">
                            </div>
                        </div>","-31","","0","images/gray_33.png","","","","exciting"
"","","","","","html-slider-response","147","455341","0.0-139.0","7pml44yf4h","NaN","<div style=""width:500px;"">
                            <p style=""font-size:50px; font-weight:bold;""
                            >exciting</p>
                            <div style=""width:240px; margin: auto;"">
                                <img src=""images/gray_22.png"" style= ""width:200px""alt=""img"">
                            </div>
                        </div>","-57","","0","images/gray_22.png","","","","exciting"
"","","","","","html-slider-response","148","457601","0.0-140.0","7pml44yf4h","NaN","<div style=""width:500px;"">
                            <p style=""font-size:50px; font-weight:bold;""
                            >exciting</p>
                            <div style=""width:240px; margin: auto;"">
                                <img src=""images/gray_06.png"" style= ""width:200px""alt=""img"">
                            </div>
                        </div>","-70","","0","images/gray_06.png","","","","exciting"
"","","","","","html-slider-response","149","459911","0.0-141.0","7pml44yf4h","NaN","<div style=""width:500px;"">
                            <p style=""font-size:50px; font-weight:bold;""
                            >exciting</p>
                            <div style=""width:240px; margin: auto;"">
                                <img src=""images/gray_18.png"" style= ""width:200px""alt=""img"">
                            </div>
                        </div>","-40","","0","images/gray_18.png","","","","exciting"
"","","","","","html-slider-response","150","461929","0.0-142.0","7pml44yf4h","NaN","<div style=""width:500px;"">
                            <p style=""font-size:50px; font-weight:bold;""
                            >exciting</p>
                            <div style=""width:240px; margin: auto;"">
                                <img src=""images/gray_32.png"" style= ""width:200px""alt=""img"">
                            </div>
                        </div>","-36","","0","images/gray_32.png","","","","exciting"
"","","","","","html-slider-response","151","463798","0.0-143.0","7pml44yf4h","NaN","<div style=""width:500px;"">
                            <p style=""font-size:50px; font-weight:bold;""
                            >exciting</p>
                            <div style=""width:240px; margin: auto;"">
                                <img src=""images/gray_02.png"" style= ""width:200px""alt=""img"">
                            </div>
                        </div>","-48","","0","images/gray_02.png","","","","exciting"
"","","","","","html-slider-response","152","465997","0.0-144.0","7pml44yf4h","NaN","<div style=""width:500px;"">
                            <p style=""font-size:50px; font-weight:bold;""
                            >exciting</p>
                            <div style=""width:240px; margin: auto;"">
                                <img src=""images/gray_16.png"" style= ""width:200px""alt=""img"">
                            </div>
                        </div>","-66","","0","images/gray_16.png","","","","exciting"
"","","","","","html-slider-response","153","468318","0.0-145.0","7pml44yf4h","NaN","<div style=""width:500px;"">
                            <p style=""font-size:50px; font-weight:bold;""
                            >exciting</p>
                            <div style=""width:240px; margin: auto;"">
                                <img src=""images/gray_11.png"" style= ""width:200px""alt=""img"">
                            </div>
                        </div>","49","","0","images/gray_11.png","","","","exciting"
"","","","","","html-slider-response","154","470208","0.0-146.0","7pml44yf4h","NaN","<div style=""width:500px;"">
                            <p style=""font-size:50px; font-weight:bold;""
                            >exciting</p>
                            <div style=""width:240px; margin: auto;"">
                                <img src=""images/gray_31.png"" style= ""width:200px""alt=""img"">
                            </div>
                        </div>","36","","0","images/gray_31.png","","","","exciting"
"","","","","","html-slider-response","155","471791","0.0-147.0","7pml44yf4h","NaN","<div style=""width:500px;"">
                            <p style=""font-size:50px; font-weight:bold;""
                            >exciting</p>
                            <div style=""width:240px; margin: auto;"">
                                <img src=""images/gray_08.png"" style= ""width:200px""alt=""img"">
                            </div>
                        </div>","87","","0","images/gray_08.png","","","","exciting"
"","","","","","html-slider-response","156","473843","0.0-148.0","7pml44yf4h","NaN","<div style=""width:500px;"">
                            <p style=""font-size:50px; font-weight:bold;""
                            >exciting</p>
                            <div style=""width:240px; margin: auto;"">
                                <img src=""images/gray_09.png"" style= ""width:200px""alt=""img"">
                            </div>
                        </div>","55","","0","images/gray_09.png","","","","exciting"
"","","","","","html-slider-response","157","475608","0.0-149.0","7pml44yf4h","NaN","<div style=""width:500px;"">
                            <p style=""font-size:50px; font-weight:bold;""
                            >exciting</p>
                            <div style=""width:240px; margin: auto;"">
                                <img src=""images/gray_42.png"" style= ""width:200px""alt=""img"">
                            </div>
                        </div>","-141","","0","images/gray_42.png","","","","exciting"
"","","","","","html-button-response","158","477908","0.0-150.0","7pml44yf4h","1797","<p>Great Job! You've finished block 3.<br></br> You have 5 block(s) left to go.<br></br></p>","0","","","","","","",""
"","","","","","html-button-response","159","478656","0.0-151.0","7pml44yf4h","747","<p>In this block of trials, you will be asked to rate how much you associate each map with:</p > <p style = 'font-size:150%; font-weight: bold'>playful</p><br></br>","0","","","","","","",""
"","","","","","html-slider-response","160","480143","0.0-152.0","7pml44yf4h","NaN","<div style=""width:500px;"">
                            <p style=""font-size:50px; font-weight:bold;""
                            >playful</p>
                            <div style=""width:240px; margin: auto;"">
                                <img src=""images/gray_25.png"" style= ""width:200px""alt=""img"">
                            </div>
                        </div>","34","","0","images/gray_25.png","","","","playful"
"","","","","","html-slider-response","161","481658","0.0-153.0","7pml44yf4h","NaN","<div style=""width:500px;"">
                            <p style=""font-size:50px; font-weight:bold;""
                            >playful</p>
                            <div style=""width:240px; margin: auto;"">
                                <img src=""images/gray_13.png"" style= ""width:200px""alt=""img"">
                            </div>
                        </div>","-75","","0","images/gray_13.png","","","","playful"
"","","","","","html-slider-response","162","483225","0.0-154.0","7pml44yf4h","NaN","<div style=""width:500px;"">
                            <p style=""font-size:50px; font-weight:bold;""
                            >playful</p>
                            <div style=""width:240px; margin: auto;"">
                                <img src=""images/gray_24.png"" style= ""width:200px""alt=""img"">
                            </div>
                        </div>","30","","0","images/gray_24.png","","","","playful"
"","","","","","html-slider-response","163","484637","0.0-155.0","7pml44yf4h","NaN","<div style=""width:500px;"">
                            <p style=""font-size:50px; font-weight:bold;""
                            >playful</p>
                            <div style=""width:240px; margin: auto;"">
                                <img src=""images/gray_16.png"" style= ""width:200px""alt=""img"">
                            </div>
                        </div>","63","","0","images/gray_16.png","","","","playful"
"","","","","","html-slider-response","164","487174","0.0-156.0","7pml44yf4h","NaN","<div style=""width:500px;"">
                            <p style=""font-size:50px; font-weight:bold;""
                            >playful</p>
                            <div style=""width:240px; margin: auto;"">
                                <img src=""images/gray_14.png"" style= ""width:200px""alt=""img"">
                            </div>
                        </div>","200","","0","images/gray_14.png","","","","playful"
"","","","","","html-slider-response","165","488946","0.0-157.0","7pml44yf4h","NaN","<div style=""width:500px;"">
                            <p style=""font-size:50px; font-weight:bold;""
                            >playful</p>
                            <div style=""width:240px; margin: auto;"">
                                <img src=""images/gray_11.png"" style= ""width:200px""alt=""img"">
                            </div>
                        </div>","-62","","0","images/gray_11.png","","","","playful"
"","","","","","html-slider-response","166","490412","0.0-158.0","7pml44yf4h","NaN","<div style=""width:500px;"">
                            <p style=""font-size:50px; font-weight:bold;""
                            >playful</p>
                            <div style=""width:240px; margin: auto;"">
                                <img src=""images/gray_26.png"" style= ""width:200px""alt=""img"">
                            </div>
                        </div>","-77","","0","images/gray_26.png","","","","playful"
"","","","","","html-slider-response","167","492426","0.0-159.0","7pml44yf4h","NaN","<div style=""width:500px;"">
                            <p style=""font-size:50px; font-weight:bold;""
                            >playful</p>
                            <div style=""width:240px; margin: auto;"">
                                <img src=""images/gray_05.png"" style= ""width:200px""alt=""img"">
                            </div>
                        </div>","-68","","0","images/gray_05.png","","","","playful"
"","","","","","html-slider-response","168","494749","0.0-160.0","7pml44yf4h","NaN","<div style=""width:500px;"">
                            <p style=""font-size:50px; font-weight:bold;""
                            >playful</p>
                            <div style=""width:240px; margin: auto;"">
                                <img src=""images/gray_08.png"" style= ""width:200px""alt=""img"">
                            </div>
                        </div>","84","","0","images/gray_08.png","","","","playful"
"","","","","","html-slider-response","169","496614","0.0-161.0","7pml44yf4h","NaN","<div style=""width:500px;"">
                            <p style=""font-size:50px; font-weight:bold;""
                            >playful</p>
                            <div style=""width:240px; margin: auto;"">
                                <img src=""images/gray_09.png"" style= ""width:200px""alt=""img"">
                            </div>
                        </div>","-80","","0","images/gray_09.png","","","","playful"
"","","","","","html-slider-response","170","503120","0.0-162.0","7pml44yf4h","NaN","<div style=""width:500px;"">
                            <p style=""font-size:50px; font-weight:bold;""
                            >playful</p>
                            <div style=""width:240px; margin: auto;"">
                                <img src=""images/gray_32.png"" style= ""width:200px""alt=""img"">
                            </div>
                        </div>","-68","","0","images/gray_32.png","","","","playful"
"","","","","","html-slider-response","171","505439","0.0-163.0","7pml44yf4h","NaN","<div style=""width:500px;"">
                            <p style=""font-size:50px; font-weight:bold;""
                            >playful</p>
                            <div style=""width:240px; margin: auto;"">
                                <img src=""images/gray_10.png"" style= ""width:200px""alt=""img"">
                            </div>
                        </div>","178","","0","images/gray_10.png","","","","playful"
"","","","","","html-slider-response","172","507173","0.0-164.0","7pml44yf4h","NaN","<div style=""width:500px;"">
                            <p style=""font-size:50px; font-weight:bold;""
                            >playful</p>
                            <div style=""width:240px; margin: auto;"">
                                <img src=""images/gray_07.png"" style= ""width:200px""alt=""img"">
                            </div>
                        </div>","-46","","0","images/gray_07.png","","","","playful"
"","","","","","html-slider-response","173","509123","0.0-165.0","7pml44yf4h","NaN","<div style=""width:500px;"">
                            <p style=""font-size:50px; font-weight:bold;""
                            >playful</p>
                            <div style=""width:240px; margin: auto;"">
                                <img src=""images/gray_28.png"" style= ""width:200px""alt=""img"">
                            </div>
                        </div>","-66","","0","images/gray_28.png","","","","playful"
"","","","","","html-slider-response","174","511196","0.0-166.0","7pml44yf4h","NaN","<div style=""width:500px;"">
                            <p style=""font-size:50px; font-weight:bold;""
                            >playful</p>
                            <div style=""width:240px; margin: auto;"">
                                <img src=""images/gray_36.png"" style= ""width:200px""alt=""img"">
                            </div>
                        </div>","101","","0","images/gray_36.png","","","","playful"
"","","","","","html-slider-response","175","513934","0.0-167.0","7pml44yf4h","NaN","<div style=""width:500px;"">
                            <p style=""font-size:50px; font-weight:bold;""
                            >playful</p>
                            <div style=""width:240px; margin: auto;"">
                                <img src=""images/gray_35.png"" style= ""width:200px""alt=""img"">
                            </div>
                        </div>","200","","0","images/gray_35.png","","","","playful"
"","","","","","html-slider-response","176","515873","0.0-168.0","7pml44yf4h","NaN","<div style=""width:500px;"">
                            <p style=""font-size:50px; font-weight:bold;""
                            >playful</p>
                            <div style=""width:240px; margin: auto;"">
                                <img src=""images/gray_29.png"" style= ""width:200px""alt=""img"">
                            </div>
                        </div>","38","","0","images/gray_29.png","","","","playful"
"","","","","","html-slider-response","177","518115","0.0-169.0","7pml44yf4h","NaN","<div style=""width:500px;"">
                            <p style=""font-size:50px; font-weight:bold;""
                            >playful</p>
                            <div style=""width:240px; margin: auto;"">
                                <img src=""images/gray_17.png"" style= ""width:200px""alt=""img"">
                            </div>
                        </div>","-83","","0","images/gray_17.png","","","","playful"
"","","","","","html-slider-response","178","519973","0.0-170.0","7pml44yf4h","NaN","<div style=""width:500px;"">
                            <p style=""font-size:50px; font-weight:bold;""
                            >playful</p>
                            <div style=""width:240px; margin: auto;"">
                                <img src=""images/gray_06.png"" style= ""width:200px""alt=""img"">
                            </div>
                        </div>","-198","","0","images/gray_06.png","","","","playful"
"","","","","","html-slider-response","179","521876","0.0-171.0","7pml44yf4h","NaN","<div style=""width:500px;"">
                            <p style=""font-size:50px; font-weight:bold;""
                            >playful</p>
                            <div style=""width:240px; margin: auto;"">
                                <img src=""images/gray_40.png"" style= ""width:200px""alt=""img"">
                            </div>
                        </div>","-112","","0","images/gray_40.png","","","","playful"
"","","","","","html-slider-response","180","524184","0.0-172.0","7pml44yf4h","NaN","<div style=""width:500px;"">
                            <p style=""font-size:50px; font-weight:bold;""
                            >playful</p>
                            <div style=""width:240px; margin: auto;"">
                                <img src=""images/gray_20.png"" style= ""width:200px""alt=""img"">
                            </div>
                        </div>","77","","0","images/gray_20.png","","","","playful"
"","","","","","html-slider-response","181","526457","0.0-173.0","7pml44yf4h","NaN","<div style=""width:500px;"">
                            <p style=""font-size:50px; font-weight:bold;""
                            >playful</p>
                            <div style=""width:240px; margin: auto;"">
                                <img src=""images/gray_41.png"" style= ""width:200px""alt=""img"">
                            </div>
                        </div>","-67","","0","images/gray_41.png","","","","playful"
"","","","","","html-slider-response","182","528144","0.0-174.0","7pml44yf4h","NaN","<div style=""width:500px;"">
                            <p style=""font-size:50px; font-weight:bold;""
                            >playful</p>
                            <div style=""width:240px; margin: auto;"">
                                <img src=""images/gray_23.png"" style= ""width:200px""alt=""img"">
                            </div>
                        </div>","-42","","0","images/gray_23.png","","","","playful"
"","","","","","html-slider-response","183","529542","0.0-175.0","7pml44yf4h","NaN","<div style=""width:500px;"">
                            <p style=""font-size:50px; font-weight:bold;""
                            >playful</p>
                            <div style=""width:240px; margin: auto;"">
                                <img src=""images/gray_15.png"" style= ""width:200px""alt=""img"">
                            </div>
                        </div>","-78","","0","images/gray_15.png","","","","playful"
"","","","","","html-slider-response","184","531463","0.0-176.0","7pml44yf4h","NaN","<div style=""width:500px;"">
                            <p style=""font-size:50px; font-weight:bold;""
                            >playful</p>
                            <div style=""width:240px; margin: auto;"">
                                <img src=""images/gray_27.png"" style= ""width:200px""alt=""img"">
                            </div>
                        </div>","-114","","0","images/gray_27.png","","","","playful"
"","","","","","html-slider-response","185","533642","0.0-177.0","7pml44yf4h","NaN","<div style=""width:500px;"">
                            <p style=""font-size:50px; font-weight:bold;""
                            >playful</p>
                            <div style=""width:240px; margin: auto;"">
                                <img src=""images/gray_03.png"" style= ""width:200px""alt=""img"">
                            </div>
                        </div>","-85","","0","images/gray_03.png","","","","playful"
"","","","","","html-slider-response","186","535288","0.0-178.0","7pml44yf4h","NaN","<div style=""width:500px;"">
                            <p style=""font-size:50px; font-weight:bold;""
                            >playful</p>
                            <div style=""width:240px; margin: auto;"">
                                <img src=""images/gray_38.png"" style= ""width:200px""alt=""img"">
                            </div>
                        </div>","-10","","0","images/gray_38.png","","","","playful"
"","","","","","html-slider-response","187","536579","0.0-179.0","7pml44yf4h","NaN","<div style=""width:500px;"">
                            <p style=""font-size:50px; font-weight:bold;""
                            >playful</p>
                            <div style=""width:240px; margin: auto;"">
                                <img src=""images/gray_19.png"" style= ""width:200px""alt=""img"">
                            </div>
                        </div>","-36","","0","images/gray_19.png","","","","playful"
"","","","","","html-slider-response","188","538275","0.0-180.0","7pml44yf4h","NaN","<div style=""width:500px;"">
                            <p style=""font-size:50px; font-weight:bold;""
                            >playful</p>
                            <div style=""width:240px; margin: auto;"">
                                <img src=""images/gray_12.png"" style= ""width:200px""alt=""img"">
                            </div>
                        </div>","-40","","0","images/gray_12.png","","","","playful"
"","","","","","html-slider-response","189","539850","0.0-181.0","7pml44yf4h","NaN","<div style=""width:500px;"">
                            <p style=""font-size:50px; font-weight:bold;""
                            >playful</p>
                            <div style=""width:240px; margin: auto;"">
                                <img src=""images/gray_37.png"" style= ""width:200px""alt=""img"">
                            </div>
                        </div>","-42","","0","images/gray_37.png","","","","playful"
"","","","","","html-slider-response","190","541320","0.0-182.0","7pml44yf4h","NaN","<div style=""width:500px;"">
                            <p style=""font-size:50px; font-weight:bold;""
                            >playful</p>
                            <div style=""width:240px; margin: auto;"">
                                <img src=""images/gray_18.png"" style= ""width:200px""alt=""img"">
                            </div>
                        </div>","54","","0","images/gray_18.png","","","","playful"
"","","","","","html-slider-response","191","543279","0.0-183.0","7pml44yf4h","NaN","<div style=""width:500px;"">
                            <p style=""font-size:50px; font-weight:bold;""
                            >playful</p>
                            <div style=""width:240px; margin: auto;"">
                                <img src=""images/gray_02.png"" style= ""width:200px""alt=""img"">
                            </div>
                        </div>","-50","","0","images/gray_02.png","","","","playful"
"","","","","","html-slider-response","192","544588","0.0-184.0","7pml44yf4h","NaN","<div style=""width:500px;"">
                            <p style=""font-size:50px; font-weight:bold;""
                            >playful</p>
                            <div style=""width:240px; margin: auto;"">
                                <img src=""images/gray_43.png"" style= ""width:200px""alt=""img"">
                            </div>
                        </div>","-50","","0","images/gray_43.png","","","","playful"
"","","","","","html-slider-response","193","546234","0.0-185.0","7pml44yf4h","NaN","<div style=""width:500px;"">
                            <p style=""font-size:50px; font-weight:bold;""
                            >playful</p>
                            <div style=""width:240px; margin: auto;"">
                                <img src=""images/gray_01.png"" style= ""width:200px""alt=""img"">
                            </div>
                        </div>","-79","","0","images/gray_01.png","","","","playful"
"","","","","","html-slider-response","194","547728","0.0-186.0","7pml44yf4h","NaN","<div style=""width:500px;"">
                            <p style=""font-size:50px; font-weight:bold;""
                            >playful</p>
                            <div style=""width:240px; margin: auto;"">
                                <img src=""images/gray_22.png"" style= ""width:200px""alt=""img"">
                            </div>
                        </div>","-70","","0","images/gray_22.png","","","","playful"
"","","","","","html-slider-response","195","548978","0.0-187.0","7pml44yf4h","NaN","<div style=""width:500px;"">
                            <p style=""font-size:50px; font-weight:bold;""
                            >playful</p>
                            <div style=""width:240px; margin: auto;"">
                                <img src=""images/gray_39.png"" style= ""width:200px""alt=""img"">
                            </div>
                        </div>","-119","","0","images/gray_39.png","","","","playful"
"","","","","","html-slider-response","196","550315","0.0-188.0","7pml44yf4h","NaN","<div style=""width:500px;"">
                            <p style=""font-size:50px; font-weight:bold;""
                            >playful</p>
                            <div style=""width:240px; margin: auto;"">
                                <img src=""images/gray_42.png"" style= ""width:200px""alt=""img"">
                            </div>
                        </div>","-60","","0","images/gray_42.png","","","","playful"
"","","","","","html-slider-response","197","551502","0.0-189.0","7pml44yf4h","NaN","<div style=""width:500px;"">
                            <p style=""font-size:50px; font-weight:bold;""
                            >playful</p>
                            <div style=""width:240px; margin: auto;"">
                                <img src=""images/gray_34.png"" style= ""width:200px""alt=""img"">
                            </div>
                        </div>","-59","","0","images/gray_34.png","","","","playful"
"","","","","","html-slider-response","198","554911","0.0-190.0","7pml44yf4h","NaN","<div style=""width:500px;"">
                            <p style=""font-size:50px; font-weight:bold;""
                            >playful</p>
                            <div style=""width:240px; margin: auto;"">
                                <img src=""images/gray_21.png"" style= ""width:200px""alt=""img"">
                            </div>
                        </div>","-53","","0","images/gray_21.png","","","","playful"
"","","","","","html-slider-response","199","556631","0.0-191.0","7pml44yf4h","NaN","<div style=""width:500px;"">
                            <p style=""font-size:50px; font-weight:bold;""
                            >playful</p>
                            <div style=""width:240px; margin: auto;"">
                                <img src=""images/gray_04.png"" style= ""width:200px""alt=""img"">
                            </div>
                        </div>","-57","","0","images/gray_04.png","","","","playful"
"","","","","","html-slider-response","200","558022","0.0-192.0","7pml44yf4h","NaN","<div style=""width:500px;"">
                            <p style=""font-size:50px; font-weight:bold;""
                            >playful</p>
