"success","timeout","failed_images","failed_audio","failed_video","trial_type","trial_index","time_elapsed","internal_node_id","subject_id","rt","stimulus","response","question_order","slider_start","image_path","practiceTrial","practiceTrialNum","correct","concept"
"true","false","[]","[]","[]","preload","0","1080","0.0-0.0","7zecohaxu1","","","","","","","","","",""
"","","","","","html-button-response","1","8911","0.0-1.0","7zecohaxu1","7830","Welcome to our experiment!<p>At the bottom of this screen, you will see a button that says ""Begin Experiment"".<br>Please only click that button when you are ready to complete the 25 minute experiment in one sitting.</p><p> Once you click that button, it will not be possible to restart the experiment.","0","","","","","","",""
"true","","","","","fullscreen","2","10880","0.0-2.0","7zecohaxu1","967","","","","","","","","",""
"","","","","","survey-multi-select","3","20494","0.0-3.0","7zecohaxu1","9610","","{""Consent"":[""<strong>I consent</strong>""]}","[0]","","","","","",""
"","","","","","html-button-response","4","34143","0.0-4.0","7zecohaxu1","13647","Welcome! <p> This experiment involves two parts: demographic information, followed by the experimental task.<p> It will take about 25 minutes to complete both parts.","0","","","","","","",""
"","","","","","survey-text","5","58565","0.0-5.0","7zecohaxu1","24418","","{""Age"":""19"",""Gender"":""Male"",""Race/ethnicity"":""Native American, White"",""Languages"":""English, Spanish, German""}","","","","","","",""
"","","","","","html-slider-response","6","76129","0.0-6.0","7zecohaxu1","17562","
            <div style='text-align:left; font-size:20px; line-height:25px; width: 1200px;'>
                During this experiment you will be asked to rate how much you associate maps with    different concepts.<br> Below, you can see some examples of the maps you will be asked to rate. Next to the maps
    is the list of concepts.<br>You will be asked    to rate how much you associate each map with each concept on a scale from 'not at all' to 'very much' like the
    one below. <br><br>
    Now, please look at the list of concepts and maps. For each concept, think about the map you associate 'very
    much' with the concept.<br>     When you see that map during the experiment, please rate it near the 'very much' endpoint of the
    scale.<br>Now, please think about which map you associate 'not at all'     with each concept. When you see that map during the experiment, please rate it near the 'not at all' endpoint
    of the scale.<br>
    Please use the full range of the scale. That is, if a map is somewhat associated with the concept, you would
    click partway between the middle point and right side of the scale.    You will be asked to rate each map for a given concept before moving on to the next concept.<br><br>Press the
    'Continue' button for instructions on how to use the slider.    <br><br>
</div>

<div style=""width: 500px; margin: 0 auto;"">
    <div style=""text-align: left; width: 200px; float: left;"">
        <p style=""font-size:25px; line-height:18px;"">calm</p>
        <p style=""font-size:25px; line-height:18px;"">exciting</p>
        <p style=""font-size:25px;line-height:18px;"">positive</p>
        <p style=""font-size:25px;line-height:18px;"">negative</p>
        <p style=""font-size:25px;line-height:18px;"">serious</p>
        <p style=""font-size:25px;line-height:18px;"">playful</p>
        <p style=""font-size:25px;line-height:18px;"">trustworthy</p>
        <p style=""font-size:25px;line-height:18px;"">disturbing</p>
    </div>
    <div style=""width: 200px; float: right; padding-top:15px; padding-right:40px"">
        <br>
        <br>
        <img src=""maps_anchoring.png"" alt=""img"" style=""max-width:500px"">
    </div>
    <div style=""clear: both;""></div>
</div>
            ","200","","0","maps_anchoring.png","true","","",""
"","","","","","html-button-response","7","77840","0.0-7.0","7zecohaxu1","1710","<div style=""width:800px;""><p style=""text-align:left"">To move the slider, click and drag your cursor to the location of the scale where you would like to make your rating and then let go. When you let go of the slider, your response will be recorded and the next trial will begin. <br>
            We are interested in your initial impressions of each map for the given concept, so please go with your first intuition. <br>
            Before you begin the experiment, there will be four training trials for you to practice using the scale. <br>
             When you are ready to start the training trials, please click ""Continue"".</p><br></div>","0","","","","","","",""
"","","","","","html-slider-response","8","79479","0.0-8.0-0.0","7zecohaxu1","NaN","<div style=""width:500px;"">
                            <p style=""font-size:25px;"">Please move the slider all the way to the <br> right endpoint of the scale</p>

                            </div>
                        </div>","200","","0","","true","0","true",""
"","","","","","html-button-response","9","80885","0.0-8.0-1.0","7zecohaxu1","901","<p align='center'><b>Good job!</b> Click on 'Continue' to proceed.</p>","0","","","","","","",""
"","","","","","html-slider-response","10","81826","0.0-9.0-0.0","7zecohaxu1","NaN","<div style=""width:500px;"">
                            <p style=""font-size:25px;"">Please move the slider all the way to the <br> left endpoint of the scale</p>

                            </div>
                        </div>","10","","0","","true","1","false",""
"","","","","","html-button-response","11","83077","0.0-9.0-1.0","7zecohaxu1","745","<p align='center'><b>Not quite!</b> The slider was not placed near the instructed located. Click on 'Continue' to try again. </p>","0","","","","","","",""
"","","","","","html-slider-response","12","83753","0.0-9.1-0.1","7zecohaxu1","NaN","<div style=""width:500px;"">
                            <p style=""font-size:25px;"">Please move the slider all the way to the <br> left endpoint of the scale</p>

                            </div>
                        </div>","-200","","0","","true","1","true",""
"","","","","","html-button-response","13","86353","0.0-9.1-1.1","7zecohaxu1","2098","<p align='center'><b>Good job!</b> Click on 'Continue' to proceed.</p>","0","","","","","","",""
"","","","","","html-slider-response","14","89558","0.0-10.0-0.0","7zecohaxu1","NaN","<div style=""width:500px;"">
                            <p style=""font-size:25px;"">Please move the slider halfway between the center and right endpoint of the scale</p>

                            </div>
                        </div>","100","","0","","true","2","true",""
"","","","","","html-button-response","15","90748","0.0-10.0-1.0","7zecohaxu1","687","<p align='center'><b>Good job!</b> Click on 'Continue' to proceed.</p>","0","","","","","","",""
"","","","","","html-slider-response","16","92153","0.0-11.0-0.0","7zecohaxu1","NaN","<div style=""width:500px;"">
                            <p style=""font-size:25px;"">Please move the slider halfway between the center and left endpoint of the scale</p>

                            </div>
                        </div>","-115","","0","","true","3","false",""
"","","","","","html-button-response","17","92998","0.0-11.0-1.0","7zecohaxu1","333","<p align='center'><b>Not quite!</b> The slider was not placed near the instructed located. Click on 'Continue' to try again. </p>","0","","","","","","",""
"","","","","","html-slider-response","18","94710","0.0-11.1-0.1","7zecohaxu1","NaN","<div style=""width:500px;"">
                            <p style=""font-size:25px;"">Please move the slider halfway between the center and left endpoint of the scale</p>

                            </div>
                        </div>","-109","","0","","true","3","true",""
"","","","","","html-button-response","19","95737","0.0-11.1-1.1","7zecohaxu1","525","<p align='center'><b>Good job!</b> Click on 'Continue' to proceed.</p>","0","","","","","","",""
"","","","","","html-button-response","20","96674","0.0-12.0","7zecohaxu1","937","<p>Great job! You've completed the practice trials. Now you will begin the main task.</p>","0","","","","","","",""
"","","","","","html-button-response","21","98332","0.0-13.0","7zecohaxu1","1658","<p>In this block of trials, you will be asked to rate how much you associate each map with:</p > <p style = 'font-size:150%; font-weight: bold'>trustworthy</p><br></br>","0","","","","","","",""
"","","","","","html-slider-response","22","101724","0.0-14.0","7zecohaxu1","NaN","<div style=""width:500px;"">
                            <p style=""font-size:50px; font-weight:bold;""
                            >trustworthy</p>
                            <div style=""width:240px; margin: auto;"">
                                <img src=""images/gray_32.png"" style= ""width:200px""alt=""img"">
                            </div>
                        </div>","79","","0","images/gray_32.png","","","","trustworthy"
"","","","","","html-slider-response","23","105256","0.0-15.0","7zecohaxu1","NaN","<div style=""width:500px;"">
                            <p style=""font-size:50px; font-weight:bold;""
                            >trustworthy</p>
                            <div style=""width:240px; margin: auto;"">
                                <img src=""images/gray_31.png"" style= ""width:200px""alt=""img"">
                            </div>
                        </div>","151","","0","images/gray_31.png","","","","trustworthy"
"","","","","","html-slider-response","24","107311","0.0-16.0","7zecohaxu1","NaN","<div style=""width:500px;"">
                            <p style=""font-size:50px; font-weight:bold;""
                            >trustworthy</p>
                            <div style=""width:240px; margin: auto;"">
                                <img src=""images/gray_22.png"" style= ""width:200px""alt=""img"">
                            </div>
                        </div>","-23","","0","images/gray_22.png","","","","trustworthy"
"","","","","","html-slider-response","25","109217","0.0-17.0","7zecohaxu1","NaN","<div style=""width:500px;"">
                            <p style=""font-size:50px; font-weight:bold;""
                            >trustworthy</p>
                            <div style=""width:240px; margin: auto;"">
                                <img src=""images/gray_29.png"" style= ""width:200px""alt=""img"">
                            </div>
                        </div>","-102","","0","images/gray_29.png","","","","trustworthy"
"","","","","","html-slider-response","26","111563","0.0-18.0","7zecohaxu1","NaN","<div style=""width:500px;"">
                            <p style=""font-size:50px; font-weight:bold;""
                            >trustworthy</p>
                            <div style=""width:240px; margin: auto;"">
                                <img src=""images/gray_38.png"" style= ""width:200px""alt=""img"">
                            </div>
                        </div>","-51","","0","images/gray_38.png","","","","trustworthy"
"","","","","","html-slider-response","27","114655","0.0-19.0","7zecohaxu1","NaN","<div style=""width:500px;"">
                            <p style=""font-size:50px; font-weight:bold;""
                            >trustworthy</p>
                            <div style=""width:240px; margin: auto;"">
                                <img src=""images/gray_02.png"" style= ""width:200px""alt=""img"">
                            </div>
                        </div>","-82","","0","images/gray_02.png","","","","trustworthy"
"","","","","","html-slider-response","28","116925","0.0-20.0","7zecohaxu1","NaN","<div style=""width:500px;"">
                            <p style=""font-size:50px; font-weight:bold;""
                            >trustworthy</p>
                            <div style=""width:240px; margin: auto;"">
                                <img src=""images/gray_12.png"" style= ""width:200px""alt=""img"">
                            </div>
                        </div>","31","","0","images/gray_12.png","","","","trustworthy"
"","","","","","html-slider-response","29","118674","0.0-21.0","7zecohaxu1","NaN","<div style=""width:500px;"">
                            <p style=""font-size:50px; font-weight:bold;""
                            >trustworthy</p>
                            <div style=""width:240px; margin: auto;"">
                                <img src=""images/gray_06.png"" style= ""width:200px""alt=""img"">
                            </div>
                        </div>","-69","","0","images/gray_06.png","","","","trustworthy"
"","","","","","html-slider-response","30","121418","0.0-22.0","7zecohaxu1","NaN","<div style=""width:500px;"">
                            <p style=""font-size:50px; font-weight:bold;""
                            >trustworthy</p>
                            <div style=""width:240px; margin: auto;"">
                                <img src=""images/gray_41.png"" style= ""width:200px""alt=""img"">
                            </div>
                        </div>","59","","0","images/gray_41.png","","","","trustworthy"
"","","","","","html-slider-response","31","123620","0.0-23.0","7zecohaxu1","NaN","<div style=""width:500px;"">
                            <p style=""font-size:50px; font-weight:bold;""
                            >trustworthy</p>
                            <div style=""width:240px; margin: auto;"">
                                <img src=""images/gray_14.png"" style= ""width:200px""alt=""img"">
                            </div>
                        </div>","154","","0","images/gray_14.png","","","","trustworthy"
"","","","","","html-slider-response","32","125529","0.0-24.0","7zecohaxu1","NaN","<div style=""width:500px;"">
                            <p style=""font-size:50px; font-weight:bold;""
                            >trustworthy</p>
                            <div style=""width:240px; margin: auto;"">
                                <img src=""images/gray_35.png"" style= ""width:200px""alt=""img"">
                            </div>
                        </div>","72","","0","images/gray_35.png","","","","trustworthy"
"","","","","","html-slider-response","33","127525","0.0-25.0","7zecohaxu1","NaN","<div style=""width:500px;"">
                            <p style=""font-size:50px; font-weight:bold;""
                            >trustworthy</p>
                            <div style=""width:240px; margin: auto;"">
                                <img src=""images/gray_19.png"" style= ""width:200px""alt=""img"">
                            </div>
                        </div>","200","","0","images/gray_19.png","","","","trustworthy"
"","","","","","html-slider-response","34","129466","0.0-26.0","7zecohaxu1","NaN","<div style=""width:500px;"">
                            <p style=""font-size:50px; font-weight:bold;""
                            >trustworthy</p>
                            <div style=""width:240px; margin: auto;"">
                                <img src=""images/gray_28.png"" style= ""width:200px""alt=""img"">
                            </div>
                        </div>","88","","0","images/gray_28.png","","","","trustworthy"
"","","","","","html-slider-response","35","131244","0.0-27.0","7zecohaxu1","NaN","<div style=""width:500px;"">
                            <p style=""font-size:50px; font-weight:bold;""
                            >trustworthy</p>
                            <div style=""width:240px; margin: auto;"">
                                <img src=""images/gray_16.png"" style= ""width:200px""alt=""img"">
                            </div>
                        </div>","119","","0","images/gray_16.png","","","","trustworthy"
"","","","","","html-slider-response","36","133509","0.0-28.0","7zecohaxu1","NaN","<div style=""width:500px;"">
                            <p style=""font-size:50px; font-weight:bold;""
                            >trustworthy</p>
                            <div style=""width:240px; margin: auto;"">
                                <img src=""images/gray_27.png"" style= ""width:200px""alt=""img"">
                            </div>
                        </div>","-49","","0","images/gray_27.png","","","","trustworthy"
"","","","","","html-slider-response","37","135533","0.0-29.0","7zecohaxu1","NaN","<div style=""width:500px;"">
                            <p style=""font-size:50px; font-weight:bold;""
                            >trustworthy</p>
                            <div style=""width:240px; margin: auto;"">
                                <img src=""images/gray_18.png"" style= ""width:200px""alt=""img"">
                            </div>
                        </div>","81","","0","images/gray_18.png","","","","trustworthy"
"","","","","","html-slider-response","38","137243","0.0-30.0","7zecohaxu1","NaN","<div style=""width:500px;"">
                            <p style=""font-size:50px; font-weight:bold;""
                            >trustworthy</p>
                            <div style=""width:240px; margin: auto;"">
                                <img src=""images/gray_17.png"" style= ""width:200px""alt=""img"">
                            </div>
                        </div>","69","","0","images/gray_17.png","","","","trustworthy"
"","","","","","html-slider-response","39","138693","0.0-31.0","7zecohaxu1","NaN","<div style=""width:500px;"">
                            <p style=""font-size:50px; font-weight:bold;""
                            >trustworthy</p>
                            <div style=""width:240px; margin: auto;"">
                                <img src=""images/gray_30.png"" style= ""width:200px""alt=""img"">
                            </div>
                        </div>","40","","0","images/gray_30.png","","","","trustworthy"
"","","","","","html-slider-response","40","140468","0.0-32.0","7zecohaxu1","NaN","<div style=""width:500px;"">
                            <p style=""font-size:50px; font-weight:bold;""
                            >trustworthy</p>
                            <div style=""width:240px; margin: auto;"">
                                <img src=""images/gray_44.png"" style= ""width:200px""alt=""img"">
                            </div>
                        </div>","-101","","0","images/gray_44.png","","","","trustworthy"
"","","","","","html-slider-response","41","142118","0.0-33.0","7zecohaxu1","NaN","<div style=""width:500px;"">
                            <p style=""font-size:50px; font-weight:bold;""
                            >trustworthy</p>
                            <div style=""width:240px; margin: auto;"">
                                <img src=""images/gray_05.png"" style= ""width:200px""alt=""img"">
                            </div>
                        </div>","-200","","0","images/gray_05.png","","","","trustworthy"
"","","","","","html-slider-response","42","143883","0.0-34.0","7zecohaxu1","NaN","<div style=""width:500px;"">
                            <p style=""font-size:50px; font-weight:bold;""
                            >trustworthy</p>
                            <div style=""width:240px; margin: auto;"">
                                <img src=""images/gray_15.png"" style= ""width:200px""alt=""img"">
                            </div>
                        </div>","-40","","0","images/gray_15.png","","","","trustworthy"
"","","","","","html-slider-response","43","145704","0.0-35.0","7zecohaxu1","NaN","<div style=""width:500px;"">
                            <p style=""font-size:50px; font-weight:bold;""
                            >trustworthy</p>
                            <div style=""width:240px; margin: auto;"">
                                <img src=""images/gray_25.png"" style= ""width:200px""alt=""img"">
                            </div>
                        </div>","75","","0","images/gray_25.png","","","","trustworthy"
"","","","","","html-slider-response","44","147422","0.0-36.0","7zecohaxu1","NaN","<div style=""width:500px;"">
                            <p style=""font-size:50px; font-weight:bold;""
                            >trustworthy</p>
                            <div style=""width:240px; margin: auto;"">
                                <img src=""images/gray_01.png"" style= ""width:200px""alt=""img"">
                            </div>
                        </div>","-43","","0","images/gray_01.png","","","","trustworthy"
"","","","","","html-slider-response","45","149957","0.0-37.0","7zecohaxu1","NaN","<div style=""width:500px;"">
                            <p style=""font-size:50px; font-weight:bold;""
                            >trustworthy</p>
                            <div style=""width:240px; margin: auto;"">
                                <img src=""images/gray_04.png"" style= ""width:200px""alt=""img"">
                            </div>
                        </div>","-29","","0","images/gray_04.png","","","","trustworthy"
"","","","","","html-slider-response","46","151389","0.0-38.0","7zecohaxu1","NaN","<div style=""width:500px;"">
                            <p style=""font-size:50px; font-weight:bold;""
                            >trustworthy</p>
                            <div style=""width:240px; margin: auto;"">
                                <img src=""images/gray_24.png"" style= ""width:200px""alt=""img"">
                            </div>
                        </div>","45","","0","images/gray_24.png","","","","trustworthy"
"","","","","","html-slider-response","47","152882","0.0-39.0","7zecohaxu1","NaN","<div style=""width:500px;"">
                            <p style=""font-size:50px; font-weight:bold;""
                            >trustworthy</p>
                            <div style=""width:240px; margin: auto;"">
                                <img src=""images/gray_11.png"" style= ""width:200px""alt=""img"">
                            </div>
                        </div>","29","","0","images/gray_11.png","","","","trustworthy"
"","","","","","html-slider-response","48","154727","0.0-40.0","7zecohaxu1","NaN","<div style=""width:500px;"">
                            <p style=""font-size:50px; font-weight:bold;""
                            >trustworthy</p>
                            <div style=""width:240px; margin: auto;"">
                                <img src=""images/gray_09.png"" style= ""width:200px""alt=""img"">
                            </div>
                        </div>","39","","0","images/gray_09.png","","","","trustworthy"
"","","","","","html-slider-response","49","156446","0.0-41.0","7zecohaxu1","NaN","<div style=""width:500px;"">
                            <p style=""font-size:50px; font-weight:bold;""
                            >trustworthy</p>
                            <div style=""width:240px; margin: auto;"">
                                <img src=""images/gray_21.png"" style= ""width:200px""alt=""img"">
                            </div>
                        </div>","200","","0","images/gray_21.png","","","","trustworthy"
"","","","","","html-slider-response","50","160300","0.0-42.0","7zecohaxu1","NaN","<div style=""width:500px;"">
                            <p style=""font-size:50px; font-weight:bold;""
                            >trustworthy</p>
                            <div style=""width:240px; margin: auto;"">
                                <img src=""images/gray_33.png"" style= ""width:200px""alt=""img"">
                            </div>
                        </div>","157","","0","images/gray_33.png","","","","trustworthy"
"","","","","","html-slider-response","51","162063","0.0-43.0","7zecohaxu1","NaN","<div style=""width:500px;"">
                            <p style=""font-size:50px; font-weight:bold;""
                            >trustworthy</p>
                            <div style=""width:240px; margin: auto;"">
                                <img src=""images/gray_07.png"" style= ""width:200px""alt=""img"">
                            </div>
                        </div>","-200","","0","images/gray_07.png","","","","trustworthy"
"","","","","","html-slider-response","52","164502","0.0-44.0","7zecohaxu1","NaN","<div style=""width:500px;"">
                            <p style=""font-size:50px; font-weight:bold;""
                            >trustworthy</p>
                            <div style=""width:240px; margin: auto;"">
                                <img src=""images/gray_43.png"" style= ""width:200px""alt=""img"">
                            </div>
                        </div>","-105","","0","images/gray_43.png","","","","trustworthy"
"","","","","","html-slider-response","53","168911","0.0-45.0","7zecohaxu1","NaN","<div style=""width:500px;"">
                            <p style=""font-size:50px; font-weight:bold;""
                            >trustworthy</p>
                            <div style=""width:240px; margin: auto;"">
                                <img src=""images/gray_10.png"" style= ""width:200px""alt=""img"">
                            </div>
                        </div>","-78","","0","images/gray_10.png","","","","trustworthy"
"","","","","","html-slider-response","54","173388","0.0-46.0","7zecohaxu1","NaN","<div style=""width:500px;"">
                            <p style=""font-size:50px; font-weight:bold;""
                            >trustworthy</p>
                            <div style=""width:240px; margin: auto;"">
                                <img src=""images/gray_37.png"" style= ""width:200px""alt=""img"">
                            </div>
                        </div>","73","","0","images/gray_37.png","","","","trustworthy"
"","","","","","html-slider-response","55","175256","0.0-47.0","7zecohaxu1","NaN","<div style=""width:500px;"">
                            <p style=""font-size:50px; font-weight:bold;""
                            >trustworthy</p>
                            <div style=""width:240px; margin: auto;"">
                                <img src=""images/gray_40.png"" style= ""width:200px""alt=""img"">
                            </div>
                        </div>","35","","0","images/gray_40.png","","","","trustworthy"
"","","","","","html-slider-response","56","177450","0.0-48.0","7zecohaxu1","NaN","<div style=""width:500px;"">
                            <p style=""font-size:50px; font-weight:bold;""
                            >trustworthy</p>
                            <div style=""width:240px; margin: auto;"">
                                <img src=""images/gray_42.png"" style= ""width:200px""alt=""img"">
                            </div>
                        </div>","-49","","0","images/gray_42.png","","","","trustworthy"
"","","","","","html-slider-response","57","178639","0.0-49.0","7zecohaxu1","NaN","<div style=""width:500px;"">
                            <p style=""font-size:50px; font-weight:bold;""
                            >trustworthy</p>
                            <div style=""width:240px; margin: auto;"">
                                <img src=""images/gray_34.png"" style= ""width:200px""alt=""img"">
                            </div>
                        </div>","-83","","0","images/gray_34.png","","","","trustworthy"
"","","","","","html-slider-response","58","180550","0.0-50.0","7zecohaxu1","NaN","<div style=""width:500px;"">
                            <p style=""font-size:50px; font-weight:bold;""
                            >trustworthy</p>
                            <div style=""width:240px; margin: auto;"">
                                <img src=""images/gray_03.png"" style= ""width:200px""alt=""img"">
                            </div>
                        </div>","68","","0","images/gray_03.png","","","","trustworthy"
"","","","","","html-slider-response","59","181668","0.0-51.0","7zecohaxu1","NaN","<div style=""width:500px;"">
                            <p style=""font-size:50px; font-weight:bold;""
                            >trustworthy</p>
                            <div style=""width:240px; margin: auto;"">
                                <img src=""images/gray_26.png"" style= ""width:200px""alt=""img"">
                            </div>
                        </div>","118","","0","images/gray_26.png","","","","trustworthy"
"","","","","","html-slider-response","60","182660","0.0-52.0","7zecohaxu1","NaN","<div style=""width:500px;"">
                            <p style=""font-size:50px; font-weight:bold;""
                            >trustworthy</p>
                            <div style=""width:240px; margin: auto;"">
                                <img src=""images/gray_39.png"" style= ""width:200px""alt=""img"">
                            </div>
                        </div>","-3","","0","images/gray_39.png","","","","trustworthy"
"","","","","","html-slider-response","61","183830","0.0-53.0","7zecohaxu1","NaN","<div style=""width:500px;"">
                            <p style=""font-size:50px; font-weight:bold;""
                            >trustworthy</p>
                            <div style=""width:240px; margin: auto;"">
                                <img src=""images/gray_13.png"" style= ""width:200px""alt=""img"">
                            </div>
                        </div>","-62","","0","images/gray_13.png","","","","trustworthy"
"","","","","","html-slider-response","62","185482","0.0-54.0","7zecohaxu1","NaN","<div style=""width:500px;"">
                            <p style=""font-size:50px; font-weight:bold;""
                            >trustworthy</p>
                            <div style=""width:240px; margin: auto;"">
                                <img src=""images/gray_36.png"" style= ""width:200px""alt=""img"">
                            </div>
                        </div>","82","","0","images/gray_36.png","","","","trustworthy"
"","","","","","html-slider-response","63","187277","0.0-55.0","7zecohaxu1","NaN","<div style=""width:500px;"">
                            <p style=""font-size:50px; font-weight:bold;""
                            >trustworthy</p>
                            <div style=""width:240px; margin: auto;"">
                                <img src=""images/gray_08.png"" style= ""width:200px""alt=""img"">
                            </div>
                        </div>","77","","0","images/gray_08.png","","","","trustworthy"
"","","","","","html-slider-response","64","188722","0.0-56.0","7zecohaxu1","NaN","<div style=""width:500px;"">
                            <p style=""font-size:50px; font-weight:bold;""
                            >trustworthy</p>
                            <div style=""width:240px; margin: auto;"">
                                <img src=""images/gray_23.png"" style= ""width:200px""alt=""img"">
                            </div>
                        </div>","-94","","0","images/gray_23.png","","","","trustworthy"
"","","","","","html-slider-response","65","190482","0.0-57.0","7zecohaxu1","NaN","<div style=""width:500px;"">
                            <p style=""font-size:50px; font-weight:bold;""
                            >trustworthy</p>
                            <div style=""width:240px; margin: auto;"">
                                <img src=""images/gray_20.png"" style= ""width:200px""alt=""img"">
                            </div>
                        </div>","200","","0","images/gray_20.png","","","","trustworthy"
"","","","","","html-button-response","66","192451","0.0-58.0","7zecohaxu1","1461","<p>Great Job! You've finished block 1.<br></br> You have 7 block(s) left to go.<br></br></p>","0","","","","","","",""
"","","","","","html-button-response","67","193413","0.0-59.0","7zecohaxu1","961","<p>In this block of trials, you will be asked to rate how much you associate each map with:</p > <p style = 'font-size:150%; font-weight: bold'>serious</p><br></br>","0","","","","","","",""
"","","","","","html-slider-response","68","195318","0.0-60.0","7zecohaxu1","NaN","<div style=""width:500px;"">
                            <p style=""font-size:50px; font-weight:bold;""
                            >serious</p>
                            <div style=""width:240px; margin: auto;"">
                                <img src=""images/gray_24.png"" style= ""width:200px""alt=""img"">
                            </div>
                        </div>","-55","","0","images/gray_24.png","","","","serious"
"","","","","","html-slider-response","69","196684","0.0-61.0","7zecohaxu1","NaN","<div style=""width:500px;"">
                            <p style=""font-size:50px; font-weight:bold;""
                            >serious</p>
                            <div style=""width:240px; margin: auto;"">
                                <img src=""images/gray_40.png"" style= ""width:200px""alt=""img"">
                            </div>
                        </div>","107","","0","images/gray_40.png","","","","serious"
"","","","","","html-slider-response","70","198071","0.0-62.0","7zecohaxu1","NaN","<div style=""width:500px;"">
                            <p style=""font-size:50px; font-weight:bold;""
                            >serious</p>
                            <div style=""width:240px; margin: auto;"">
                                <img src=""images/gray_33.png"" style= ""width:200px""alt=""img"">
                            </div>
                        </div>","-33","","0","images/gray_33.png","","","","serious"
"","","","","","html-slider-response","71","199902","0.0-63.0","7zecohaxu1","NaN","<div style=""width:500px;"">
                            <p style=""font-size:50px; font-weight:bold;""
                            >serious</p>
                            <div style=""width:240px; margin: auto;"">
                                <img src=""images/gray_34.png"" style= ""width:200px""alt=""img"">
                            </div>
                        </div>","63","","0","images/gray_34.png","","","","serious"
"","","","","","html-slider-response","72","201460","0.0-64.0","7zecohaxu1","NaN","<div style=""width:500px;"">
                            <p style=""font-size:50px; font-weight:bold;""
                            >serious</p>
                            <div style=""width:240px; margin: auto;"">
                                <img src=""images/gray_25.png"" style= ""width:200px""alt=""img"">
                            </div>
                        </div>","187","","0","images/gray_25.png","","","","serious"
"","","","","","html-slider-response","73","203427","0.0-65.0","7zecohaxu1","NaN","<div style=""width:500px;"">
                            <p style=""font-size:50px; font-weight:bold;""
                            >serious</p>
                            <div style=""width:240px; margin: auto;"">
                                <img src=""images/gray_38.png"" style= ""width:200px""alt=""img"">
                            </div>
                        </div>","-113","","0","images/gray_38.png","","","","serious"
"","","","","","html-slider-response","74","205483","0.0-66.0","7zecohaxu1","NaN","<div style=""width:500px;"">
                            <p style=""font-size:50px; font-weight:bold;""
                            >serious</p>
                            <div style=""width:240px; margin: auto;"">
                                <img src=""images/gray_30.png"" style= ""width:200px""alt=""img"">
                            </div>
                        </div>","135","","0","images/gray_30.png","","","","serious"
"","","","","","html-slider-response","75","207612","0.0-67.0","7zecohaxu1","NaN","<div style=""width:500px;"">
                            <p style=""font-size:50px; font-weight:bold;""
                            >serious</p>
                            <div style=""width:240px; margin: auto;"">
                                <img src=""images/gray_18.png"" style= ""width:200px""alt=""img"">
                            </div>
                        </div>","61","","0","images/gray_18.png","","","","serious"
"","","","","","html-slider-response","76","209204","0.0-68.0","7zecohaxu1","NaN","<div style=""width:500px;"">
                            <p style=""font-size:50px; font-weight:bold;""
                            >serious</p>
                            <div style=""width:240px; margin: auto;"">
                                <img src=""images/gray_44.png"" style= ""width:200px""alt=""img"">
                            </div>
                        </div>","-53","","0","images/gray_44.png","","","","serious"
"","","","","","html-slider-response","77","211573","0.0-69.0","7zecohaxu1","NaN","<div style=""width:500px;"">
                            <p style=""font-size:50px; font-weight:bold;""
                            >serious</p>
                            <div style=""width:240px; margin: auto;"">
                                <img src=""images/gray_08.png"" style= ""width:200px""alt=""img"">
                            </div>
                        </div>","-136","","0","images/gray_08.png","","","","serious"
"","","","","","html-slider-response","78","213538","0.0-70.0","7zecohaxu1","NaN","<div style=""width:500px;"">
                            <p style=""font-size:50px; font-weight:bold;""
                            >serious</p>
                            <div style=""width:240px; margin: auto;"">
                                <img src=""images/gray_29.png"" style= ""width:200px""alt=""img"">
                            </div>
                        </div>","146","","0","images/gray_29.png","","","","serious"
"","","","","","html-slider-response","79","215307","0.0-71.0","7zecohaxu1","NaN","<div style=""width:500px;"">
                            <p style=""font-size:50px; font-weight:bold;""
                            >serious</p>
                            <div style=""width:240px; margin: auto;"">
                                <img src=""images/gray_35.png"" style= ""width:200px""alt=""img"">
                            </div>
                        </div>","191","","0","images/gray_35.png","","","","serious"
"","","","","","html-slider-response","80","217624","0.0-72.0","7zecohaxu1","NaN","<div style=""width:500px;"">
                            <p style=""font-size:50px; font-weight:bold;""
                            >serious</p>
                            <div style=""width:240px; margin: auto;"">
                                <img src=""images/gray_05.png"" style= ""width:200px""alt=""img"">
                            </div>
                        </div>","19","","0","images/gray_05.png","","","","serious"
"","","","","","html-slider-response","81","219043","0.0-73.0","7zecohaxu1","NaN","<div style=""width:500px;"">
                            <p style=""font-size:50px; font-weight:bold;""
                            >serious</p>
                            <div style=""width:240px; margin: auto;"">
                                <img src=""images/gray_06.png"" style= ""width:200px""alt=""img"">
                            </div>
                        </div>","-86","","0","images/gray_06.png","","","","serious"
"","","","","","html-slider-response","82","220421","0.0-74.0","7zecohaxu1","NaN","<div style=""width:500px;"">
                            <p style=""font-size:50px; font-weight:bold;""
                            >serious</p>
                            <div style=""width:240px; margin: auto;"">
                                <img src=""images/gray_15.png"" style= ""width:200px""alt=""img"">
                            </div>
                        </div>","-153","","0","images/gray_15.png","","","","serious"
"","","","","","html-slider-response","83","223085","0.0-75.0","7zecohaxu1","NaN","<div style=""width:500px;"">
                            <p style=""font-size:50px; font-weight:bold;""
                            >serious</p>
                            <div style=""width:240px; margin: auto;"">
                                <img src=""images/gray_41.png"" style= ""width:200px""alt=""img"">
                            </div>
                        </div>","74","","0","images/gray_41.png","","","","serious"
"","","","","","html-slider-response","84","224172","0.0-76.0","7zecohaxu1","NaN","<div style=""width:500px;"">
                            <p style=""font-size:50px; font-weight:bold;""
                            >serious</p>
                            <div style=""width:240px; margin: auto;"">
                                <img src=""images/gray_22.png"" style= ""width:200px""alt=""img"">
                            </div>
                        </div>","-69","","0","images/gray_22.png","","","","serious"
"","","","","","html-slider-response","85","225874","0.0-77.0","7zecohaxu1","NaN","<div style=""width:500px;"">
                            <p style=""font-size:50px; font-weight:bold;""
                            >serious</p>
                            <div style=""width:240px; margin: auto;"">
                                <img src=""images/gray_31.png"" style= ""width:200px""alt=""img"">
                            </div>
                        </div>","134","","0","images/gray_31.png","","","","serious"
"","","","","","html-slider-response","86","228559","0.0-78.0","7zecohaxu1","NaN","<div style=""width:500px;"">
                            <p style=""font-size:50px; font-weight:bold;""
                            >serious</p>
                            <div style=""width:240px; margin: auto;"">
                                <img src=""images/gray_39.png"" style= ""width:200px""alt=""img"">
                            </div>
                        </div>","58","","0","images/gray_39.png","","","","serious"
"","","","","","html-slider-response","87","229700","0.0-79.0","7zecohaxu1","NaN","<div style=""width:500px;"">
                            <p style=""font-size:50px; font-weight:bold;""
                            >serious</p>
                            <div style=""width:240px; margin: auto;"">
                                <img src=""images/gray_20.png"" style= ""width:200px""alt=""img"">
                            </div>
                        </div>","-23","","0","images/gray_20.png","","","","serious"
"","","","","","html-slider-response","88","231133","0.0-80.0","7zecohaxu1","NaN","<div style=""width:500px;"">
                            <p style=""font-size:50px; font-weight:bold;""
                            >serious</p>
                            <div style=""width:240px; margin: auto;"">
                                <img src=""images/gray_26.png"" style= ""width:200px""alt=""img"">
                            </div>
                        </div>","-89","","0","images/gray_26.png","","","","serious"
"","","","","","html-slider-response","89","232782","0.0-81.0","7zecohaxu1","NaN","<div style=""width:500px;"">
                            <p style=""font-size:50px; font-weight:bold;""
                            >serious</p>
                            <div style=""width:240px; margin: auto;"">
                                <img src=""images/gray_09.png"" style= ""width:200px""alt=""img"">
                            </div>
                        </div>","-128","","0","images/gray_09.png","","","","serious"
"","","","","","html-slider-response","90","234419","0.0-82.0","7zecohaxu1","NaN","<div style=""width:500px;"">
                            <p style=""font-size:50px; font-weight:bold;""
                            >serious</p>
                            <div style=""width:240px; margin: auto;"">
                                <img src=""images/gray_19.png"" style= ""width:200px""alt=""img"">
                            </div>
                        </div>","136","","0","images/gray_19.png","","","","serious"
"","","","","","html-slider-response","91","235925","0.0-83.0","7zecohaxu1","NaN","<div style=""width:500px;"">
                            <p style=""font-size:50px; font-weight:bold;""
                            >serious</p>
                            <div style=""width:240px; margin: auto;"">
                                <img src=""images/gray_32.png"" style= ""width:200px""alt=""img"">
                            </div>
                        </div>","174","","0","images/gray_32.png","","","","serious"
"","","","","","html-slider-response","92","237958","0.0-84.0","7zecohaxu1","NaN","<div style=""width:500px;"">
                            <p style=""font-size:50px; font-weight:bold;""
                            >serious</p>
                            <div style=""width:240px; margin: auto;"">
                                <img src=""images/gray_04.png"" style= ""width:200px""alt=""img"">
                            </div>
                        </div>","7","","0","images/gray_04.png","","","","serious"
"","","","","","html-slider-response","93","241436","0.0-85.0","7zecohaxu1","NaN","<div style=""width:500px;"">
                            <p style=""font-size:50px; font-weight:bold;""
                            >serious</p>
                            <div style=""width:240px; margin: auto;"">
                                <img src=""images/gray_14.png"" style= ""width:200px""alt=""img"">
                            </div>
                        </div>","-55","","0","images/gray_14.png","","","","serious"
"","","","","","html-slider-response","94","243103","0.0-86.0","7zecohaxu1","NaN","<div style=""width:500px;"">
                            <p style=""font-size:50px; font-weight:bold;""
                            >serious</p>
                            <div style=""width:240px; margin: auto;"">
                                <img src=""images/gray_07.png"" style= ""width:200px""alt=""img"">
                            </div>
                        </div>","48","","0","images/gray_07.png","","","","serious"
"","","","","","html-slider-response","95","245016","0.0-87.0","7zecohaxu1","NaN","<div style=""width:500px;"">
                            <p style=""font-size:50px; font-weight:bold;""
                            >serious</p>
                            <div style=""width:240px; margin: auto;"">
                                <img src=""images/gray_21.png"" style= ""width:200px""alt=""img"">
                            </div>
                        </div>","-41","","0","images/gray_21.png","","","","serious"
"","","","","","html-slider-response","96","246650","0.0-88.0","7zecohaxu1","NaN","<div style=""width:500px;"">
                            <p style=""font-size:50px; font-weight:bold;""
                            >serious</p>
                            <div style=""width:240px; margin: auto;"">
                                <img src=""images/gray_10.png"" style= ""width:200px""alt=""img"">
                            </div>
                        </div>","103","","0","images/gray_10.png","","","","serious"
"","","","","","html-slider-response","97","248197","0.0-89.0","7zecohaxu1","NaN","<div style=""width:500px;"">
                            <p style=""font-size:50px; font-weight:bold;""
                            >serious</p>
                            <div style=""width:240px; margin: auto;"">
                                <img src=""images/gray_03.png"" style= ""width:200px""alt=""img"">
                            </div>
                        </div>","138","","0","images/gray_03.png","","","","serious"
"","","","","","html-slider-response","98","249620","0.0-90.0","7zecohaxu1","NaN","<div style=""width:500px;"">
                            <p style=""font-size:50px; font-weight:bold;""
                            >serious</p>
                            <div style=""width:240px; margin: auto;"">
                                <img src=""images/gray_12.png"" style= ""width:200px""alt=""img"">
                            </div>
                        </div>","-40","","0","images/gray_12.png","","","","serious"
"","","","","","html-slider-response","99","251189","0.0-91.0","7zecohaxu1","NaN","<div style=""width:500px;"">
                            <p style=""font-size:50px; font-weight:bold;""
                            >serious</p>
                            <div style=""width:240px; margin: auto;"">
                                <img src=""images/gray_42.png"" style= ""width:200px""alt=""img"">
                            </div>
                        </div>","50","","0","images/gray_42.png","","","","serious"
"","","","","","html-slider-response","100","252463","0.0-92.0","7zecohaxu1","NaN","<div style=""width:500px;"">
                            <p style=""font-size:50px; font-weight:bold;""
                            >serious</p>
                            <div style=""width:240px; margin: auto;"">
                                <img src=""images/gray_28.png"" style= ""width:200px""alt=""img"">
                            </div>
                        </div>","88","","0","images/gray_28.png","","","","serious"
"","","","","","html-slider-response","101","253759","0.0-93.0","7zecohaxu1","NaN","<div style=""width:500px;"">
                            <p style=""font-size:50px; font-weight:bold;""
                            >serious</p>
                            <div style=""width:240px; margin: auto;"">
                                <img src=""images/gray_27.png"" style= ""width:200px""alt=""img"">
                            </div>
                        </div>","-33","","0","images/gray_27.png","","","","serious"
"","","","","","html-slider-response","102","255096","0.0-94.0","7zecohaxu1","NaN","<div style=""width:500px;"">
                            <p style=""font-size:50px; font-weight:bold;""
                            >serious</p>
                            <div style=""width:240px; margin: auto;"">
                                <img src=""images/gray_11.png"" style= ""width:200px""alt=""img"">
                            </div>
                        </div>","-86","","0","images/gray_11.png","","","","serious"
"","","","","","html-slider-response","103","256958","0.0-95.0","7zecohaxu1","NaN","<div style=""width:500px;"">
                            <p style=""font-size:50px; font-weight:bold;""
                            >serious</p>
                            <div style=""width:240px; margin: auto;"">
                                <img src=""images/gray_01.png"" style= ""width:200px""alt=""img"">
                            </div>
                        </div>","30","","0","images/gray_01.png","","","","serious"
"","","","","","html-slider-response","104","259874","0.0-96.0","7zecohaxu1","NaN","<div style=""width:500px;"">
                            <p style=""font-size:50px; font-weight:bold;""
                            >serious</p>
                            <div style=""width:240px; margin: auto;"">
                                <img src=""images/gray_36.png"" style= ""width:200px""alt=""img"">
                            </div>
                        </div>","-43","","0","images/gray_36.png","","","","serious"
"","","","","","html-slider-response","105","261118","0.0-97.0","7zecohaxu1","NaN","<div style=""width:500px;"">
                            <p style=""font-size:50px; font-weight:bold;""
                            >serious</p>
                            <div style=""width:240px; margin: auto;"">
                                <img src=""images/gray_23.png"" style= ""width:200px""alt=""img"">
                            </div>
                        </div>","87","","0","images/gray_23.png","","","","serious"
"","","","","","html-slider-response","106","262468","0.0-98.0","7zecohaxu1","NaN","<div style=""width:500px;"">
                            <p style=""font-size:50px; font-weight:bold;""
                            >serious</p>
                            <div style=""width:240px; margin: auto;"">
                                <img src=""images/gray_16.png"" style= ""width:200px""alt=""img"">
                            </div>
                        </div>","142","","0","images/gray_16.png","","","","serious"
"","","","","","html-slider-response","107","263986","0.0-99.0","7zecohaxu1","NaN","<div style=""width:500px;"">
                            <p style=""font-size:50px; font-weight:bold;""
                            >serious</p>
                            <div style=""width:240px; margin: auto;"">
                                <img src=""images/gray_02.png"" style= ""width:200px""alt=""img"">
                            </div>
                        </div>","194","","0","images/gray_02.png","","","","serious"
"","","","","","html-slider-response","108","265207","0.0-100.0","7zecohaxu1","NaN","<div style=""width:500px;"">
                            <p style=""font-size:50px; font-weight:bold;""
                            >serious</p>
                            <div style=""width:240px; margin: auto;"">
                                <img src=""images/gray_13.png"" style= ""width:200px""alt=""img"">
                            </div>
                        </div>","-98","","0","images/gray_13.png","","","","serious"
"","","","","","html-slider-response","109","266519","0.0-101.0","7zecohaxu1","NaN","<div style=""width:500px;"">
                            <p style=""font-size:50px; font-weight:bold;""
                            >serious</p>
                            <div style=""width:240px; margin: auto;"">
                                <img src=""images/gray_37.png"" style= ""width:200px""alt=""img"">
                            </div>
                        </div>","-8","","0","images/gray_37.png","","","","serious"
"","","","","","html-slider-response","110","267967","0.0-102.0","7zecohaxu1","NaN","<div style=""width:500px;"">
                            <p style=""font-size:50px; font-weight:bold;""
                            >serious</p>
                            <div style=""width:240px; margin: auto;"">
                                <img src=""images/gray_43.png"" style= ""width:200px""alt=""img"">
                            </div>
                        </div>","-160","","0","images/gray_43.png","","","","serious"
"","","","","","html-slider-response","111","269287","0.0-103.0","7zecohaxu1","NaN","<div style=""width:500px;"">
                            <p style=""font-size:50px; font-weight:bold;""
                            >serious</p>
                            <div style=""width:240px; margin: auto;"">
                                <img src=""images/gray_17.png"" style= ""width:200px""alt=""img"">
                            </div>
                        </div>","56","","0","images/gray_17.png","","","","serious"
"","","","","","html-button-response","112","270678","0.0-104.0","7zecohaxu1","881","<p>Great Job! You've finished block 2.<br></br> You have 6 block(s) left to go.<br></br></p>","0","","","","","","",""
"","","","","","html-button-response","113","271489","0.0-105.0","7zecohaxu1","811","<p>In this block of trials, you will be asked to rate how much you associate each map with:</p > <p style = 'font-size:150%; font-weight: bold'>calm</p><br></br>","0","","","","","","",""
"","","","","","html-slider-response","114","272587","0.0-106.0","7zecohaxu1","NaN","<div style=""width:500px;"">
                            <p style=""font-size:50px; font-weight:bold;""
                            >calm</p>
                            <div style=""width:240px; margin: auto;"">
                                <img src=""images/gray_07.png"" style= ""width:200px""alt=""img"">
                            </div>
                        </div>","-42","","0","images/gray_07.png","","","","calm"
"","","","","","html-slider-response","115","274222","0.0-107.0","7zecohaxu1","NaN","<div style=""width:500px;"">
                            <p style=""font-size:50px; font-weight:bold;""
                            >calm</p>
                            <div style=""width:240px; margin: auto;"">
                                <img src=""images/gray_21.png"" style= ""width:200px""alt=""img"">
                            </div>
                        </div>","117","","0","images/gray_21.png","","","","calm"
"","","","","","html-slider-response","116","283547","0.0-108.0","7zecohaxu1","NaN","<div style=""width:500px;"">
                            <p style=""font-size:50px; font-weight:bold;""
                            >calm</p>
                            <div style=""width:240px; margin: auto;"">
                                <img src=""images/gray_16.png"" style= ""width:200px""alt=""img"">
                            </div>
                        </div>","43","","0","images/gray_16.png","","","","calm"
"","","","","","html-slider-response","117","285060","0.0-109.0","7zecohaxu1","NaN","<div style=""width:500px;"">
                            <p style=""font-size:50px; font-weight:bold;""
                            >calm</p>
                            <div style=""width:240px; margin: auto;"">
                                <img src=""images/gray_14.png"" style= ""width:200px""alt=""img"">
                            </div>
                        </div>","184","","0","images/gray_14.png","","","","calm"
"","","","","","html-slider-response","118","289546","0.0-110.0","7zecohaxu1","NaN","<div style=""width:500px;"">
                            <p style=""font-size:50px; font-weight:bold;""
                            >calm</p>
                            <div style=""width:240px; margin: auto;"">
                                <img src=""images/gray_09.png"" style= ""width:200px""alt=""img"">
                            </div>
                        </div>","50","","0","images/gray_09.png","","","","calm"
"","","","","","html-slider-response","119","291578","0.0-111.0","7zecohaxu1","NaN","<div style=""width:500px;"">
                            <p style=""font-size:50px; font-weight:bold;""
                            >calm</p>
                            <div style=""width:240px; margin: auto;"">
                                <img src=""images/gray_08.png"" style= ""width:200px""alt=""img"">
                            </div>
                        </div>","-112","","0","images/gray_08.png","","","","calm"
"","","","","","html-slider-response","120","292958","0.0-112.0","7zecohaxu1","NaN","<div style=""width:500px;"">
                            <p style=""font-size:50px; font-weight:bold;""
                            >calm</p>
                            <div style=""width:240px; margin: auto;"">
                                <img src=""images/gray_01.png"" style= ""width:200px""alt=""img"">
                            </div>
                        </div>","-161","","0","images/gray_01.png","","","","calm"
"","","","","","html-slider-response","121","294457","0.0-113.0","7zecohaxu1","NaN","<div style=""width:500px;"">
                            <p style=""font-size:50px; font-weight:bold;""
                            >calm</p>
                            <div style=""width:240px; margin: auto;"">
                                <img src=""images/gray_04.png"" style= ""width:200px""alt=""img"">
                            </div>
                        </div>","-184","","0","images/gray_04.png","","","","calm"
"","","","","","html-slider-response","122","297188","0.0-114.0","7zecohaxu1","NaN","<div style=""width:500px;"">
                            <p style=""font-size:50px; font-weight:bold;""
                            >calm</p>
                            <div style=""width:240px; margin: auto;"">
                                <img src=""images/gray_12.png"" style= ""width:200px""alt=""img"">
                            </div>
                        </div>","-72","","0","images/gray_12.png","","","","calm"
"","","","","","html-slider-response","123","298770","0.0-115.0","7zecohaxu1","NaN","<div style=""width:500px;"">
                            <p style=""font-size:50px; font-weight:bold;""
                            >calm</p>
                            <div style=""width:240px; margin: auto;"">
                                <img src=""images/gray_10.png"" style= ""width:200px""alt=""img"">
                            </div>
                        </div>","88","","0","images/gray_10.png","","","","calm"
"","","","","","html-slider-response","124","300390","0.0-116.0","7zecohaxu1","NaN","<div style=""width:500px;"">
                            <p style=""font-size:50px; font-weight:bold;""
                            >calm</p>
                            <div style=""width:240px; margin: auto;"">
                                <img src=""images/gray_24.png"" style= ""width:200px""alt=""img"">
                            </div>
                        </div>","-46","","0","images/gray_24.png","","","","calm"
"","","","","","html-slider-response","125","303488","0.0-117.0","7zecohaxu1","NaN","<div style=""width:500px;"">
                            <p style=""font-size:50px; font-weight:bold;""
                            >calm</p>
                            <div style=""width:240px; margin: auto;"">
                                <img src=""images/gray_41.png"" style= ""width:200px""alt=""img"">
                            </div>
                        </div>","-32","","0","images/gray_41.png","","","","calm"
"","","","","","html-slider-response","126","305417","0.0-118.0","7zecohaxu1","NaN","<div style=""width:500px;"">
                            <p style=""font-size:50px; font-weight:bold;""
                            >calm</p>
                            <div style=""width:240px; margin: auto;"">
                                <img src=""images/gray_20.png"" style= ""width:200px""alt=""img"">
                            </div>
                        </div>","-121","","0","images/gray_20.png","","","","calm"
"","","","","","html-slider-response","127","306623","0.0-119.0","7zecohaxu1","NaN","<div style=""width:500px;"">
                            <p style=""font-size:50px; font-weight:bold;""
                            >calm</p>
                            <div style=""width:240px; margin: auto;"">
                                <img src=""images/gray_27.png"" style= ""width:200px""alt=""img"">
                            </div>
                        </div>","107","","0","images/gray_27.png","","","","calm"
"","","","","","html-slider-response","128","308085","0.0-120.0","7zecohaxu1","NaN","<div style=""width:500px;"">
                            <p style=""font-size:50px; font-weight:bold;""
                            >calm</p>
                            <div style=""width:240px; margin: auto;"">
                                <img src=""images/gray_02.png"" style= ""width:200px""alt=""img"">
                            </div>
                        </div>","148","","0","images/gray_02.png","","","","calm"
"","","","","","html-slider-response","129","310096","0.0-121.0","7zecohaxu1","NaN","<div style=""width:500px;"">
                            <p style=""font-size:50px; font-weight:bold;""
                            >calm</p>
                            <div style=""width:240px; margin: auto;"">
                                <img src=""images/gray_18.png"" style= ""width:200px""alt=""img"">
                            </div>
                        </div>","30","","0","images/gray_18.png","","","","calm"
"","","","","","html-slider-response","130","311380","0.0-122.0","7zecohaxu1","NaN","<div style=""width:500px;"">
                            <p style=""font-size:50px; font-weight:bold;""
                            >calm</p>
                            <div style=""width:240px; margin: auto;"">
                                <img src=""images/gray_33.png"" style= ""width:200px""alt=""img"">
                            </div>
                        </div>","-33","","0","images/gray_33.png","","","","calm"
"","","","","","html-slider-response","131","312923","0.0-123.0","7zecohaxu1","NaN","<div style=""width:500px;"">
                            <p style=""font-size:50px; font-weight:bold;""
                            >calm</p>
                            <div style=""width:240px; margin: auto;"">
                                <img src=""images/gray_05.png"" style= ""width:200px""alt=""img"">
                            </div>
                        </div>","-82","","0","images/gray_05.png","","","","calm"
"","","","","","html-slider-response","132","314574","0.0-124.0","7zecohaxu1","NaN","<div style=""width:500px;"">
                            <p style=""font-size:50px; font-weight:bold;""
                            >calm</p>
                            <div style=""width:240px; margin: auto;"">
                                <img src=""images/gray_38.png"" style= ""width:200px""alt=""img"">
                            </div>
                        </div>","-102","","0","images/gray_38.png","","","","calm"
"","","","","","html-slider-response","133","316230","0.0-125.0","7zecohaxu1","NaN","<div style=""width:500px;"">
                            <p style=""font-size:50px; font-weight:bold;""
                            >calm</p>
                            <div style=""width:240px; margin: auto;"">
                                <img src=""images/gray_19.png"" style= ""width:200px""alt=""img"">
                            </div>
                        </div>","48","","0","images/gray_19.png","","","","calm"
"","","","","","html-slider-response","134","317708","0.0-126.0","7zecohaxu1","NaN","<div style=""width:500px;"">
                            <p style=""font-size:50px; font-weight:bold;""
                            >calm</p>
                            <div style=""width:240px; margin: auto;"">
                                <img src=""images/gray_44.png"" style= ""width:200px""alt=""img"">
                            </div>
                        </div>","-81","","0","images/gray_44.png","","","","calm"
"","","","","","html-slider-response","135","319380","0.0-127.0","7zecohaxu1","NaN","<div style=""width:500px;"">
                            <p style=""font-size:50px; font-weight:bold;""
                            >calm</p>
                            <div style=""width:240px; margin: auto;"">
                                <img src=""images/gray_43.png"" style= ""width:200px""alt=""img"">
                            </div>
                        </div>","-119","","0","images/gray_43.png","","","","calm"
"","","","","","html-slider-response","136","321180","0.0-128.0","7zecohaxu1","NaN","<div style=""width:500px;"">
                            <p style=""font-size:50px; font-weight:bold;""
                            >calm</p>
                            <div style=""width:240px; margin: auto;"">
                                <img src=""images/gray_25.png"" style= ""width:200px""alt=""img"">
                            </div>
                        </div>","-149","","0","images/gray_25.png","","","","calm"
"","","","","","html-slider-response","137","323903","0.0-129.0","7zecohaxu1","NaN","<div style=""width:500px;"">
                            <p style=""font-size:50px; font-weight:bold;""
                            >calm</p>
                            <div style=""width:240px; margin: auto;"">
                                <img src=""images/gray_34.png"" style= ""width:200px""alt=""img"">
                            </div>
                        </div>","15","","0","images/gray_34.png","","","","calm"
"","","","","","html-slider-response","138","325449","0.0-130.0","7zecohaxu1","NaN","<div style=""width:500px;"">
                            <p style=""font-size:50px; font-weight:bold;""
                            >calm</p>
                            <div style=""width:240px; margin: auto;"">
                                <img src=""images/gray_17.png"" style= ""width:200px""alt=""img"">
                            </div>
                        </div>","-91","","0","images/gray_17.png","","","","calm"
"","","","","","html-slider-response","139","330412","0.0-131.0","7zecohaxu1","NaN","<div style=""width:500px;"">
                            <p style=""font-size:50px; font-weight:bold;""
                            >calm</p>
                            <div style=""width:240px; margin: auto;"">
                                <img src=""images/gray_13.png"" style= ""width:200px""alt=""img"">
                            </div>
                        </div>","-29","","0","images/gray_13.png","","","","calm"
"","","","","","html-slider-response","140","332057","0.0-132.0","7zecohaxu1","NaN","<div style=""width:500px;"">
                            <p style=""font-size:50px; font-weight:bold;""
                            >calm</p>
                            <div style=""width:240px; margin: auto;"">
                                <img src=""images/gray_23.png"" style= ""width:200px""alt=""img"">
                            </div>
                        </div>","-101","","0","images/gray_23.png","","","","calm"
"","","","","","html-slider-response","141","333901","0.0-133.0","7zecohaxu1","NaN","<div style=""width:500px;"">
                            <p style=""font-size:50px; font-weight:bold;""
                            >calm</p>
                            <div style=""width:240px; margin: auto;"">
                                <img src=""images/gray_03.png"" style= ""width:200px""alt=""img"">
                            </div>
                        </div>","43","","0","images/gray_03.png","","","","calm"
"","","","","","html-slider-response","142","335479","0.0-134.0","7zecohaxu1","NaN","<div style=""width:500px;"">
                            <p style=""font-size:50px; font-weight:bold;""
                            >calm</p>
                            <div style=""width:240px; margin: auto;"">
                                <img src=""images/gray_32.png"" style= ""width:200px""alt=""img"">
                            </div>
                        </div>","-66","","0","images/gray_32.png","","","","calm"
"","","","","","html-slider-response","143","336971","0.0-135.0","7zecohaxu1","NaN","<div style=""width:500px;"">
                            <p style=""font-size:50px; font-weight:bold;""
                            >calm</p>
                            <div style=""width:240px; margin: auto;"">
                                <img src=""images/gray_11.png"" style= ""width:200px""alt=""img"">
                            </div>
                        </div>","-116","","0","images/gray_11.png","","","","calm"
"","","","","","html-slider-response","144","338693","0.0-136.0","7zecohaxu1","NaN","<div style=""width:500px;"">
                            <p style=""font-size:50px; font-weight:bold;""
                            >calm</p>
                            <div style=""width:240px; margin: auto;"">
                                <img src=""images/gray_42.png"" style= ""width:200px""alt=""img"">
                            </div>
                        </div>","89","","0","images/gray_42.png","","","","calm"
"","","","","","html-slider-response","145","341228","0.0-137.0","7zecohaxu1","NaN","<div style=""width:500px;"">
                            <p style=""font-size:50px; font-weight:bold;""
                            >calm</p>
                            <div style=""width:240px; margin: auto;"">
                                <img src=""images/gray_29.png"" style= ""width:200px""alt=""img"">
                            </div>
                        </div>","195","","0","images/gray_29.png","","","","calm"
"","","","","","html-slider-response","146","342909","0.0-138.0","7zecohaxu1","NaN","<div style=""width:500px;"">
                            <p style=""font-size:50px; font-weight:bold;""
                            >calm</p>
                            <div style=""width:240px; margin: auto;"">
                                <img src=""images/gray_39.png"" style= ""width:200px""alt=""img"">
                            </div>
                        </div>","-95","","0","images/gray_39.png","","","","calm"
"","","","","","html-slider-response","147","344125","0.0-139.0","7zecohaxu1","NaN","<div style=""width:500px;"">
                            <p style=""font-size:50px; font-weight:bold;""
                            >calm</p>
                            <div style=""width:240px; margin: auto;"">
                                <img src=""images/gray_40.png"" style= ""width:200px""alt=""img"">
                            </div>
                        </div>","-30","","0","images/gray_40.png","","","","calm"
"","","","","","html-slider-response","148","345511","0.0-140.0","7zecohaxu1","NaN","<div style=""width:500px;"">
                            <p style=""font-size:50px; font-weight:bold;""
                            >calm</p>
                            <div style=""width:240px; margin: auto;"">
                                <img src=""images/gray_30.png"" style= ""width:200px""alt=""img"">
                            </div>
                        </div>","-14","","0","images/gray_30.png","","","","calm"
"","","","","","html-slider-response","149","346253","0.0-141.0","7zecohaxu1","NaN","<div style=""width:500px;"">
                            <p style=""font-size:50px; font-weight:bold;""
                            >calm</p>
                            <div style=""width:240px; margin: auto;"">
                                <img src=""images/gray_31.png"" style= ""width:200px""alt=""img"">
                            </div>
                        </div>","-17","","0","images/gray_31.png","","","","calm"
"","","","","","html-slider-response","150","347425","0.0-142.0","7zecohaxu1","NaN","<div style=""width:500px;"">
                            <p style=""font-size:50px; font-weight:bold;""
                            >calm</p>
                            <div style=""width:240px; margin: auto;"">
                                <img src=""images/gray_28.png"" style= ""width:200px""alt=""img"">
                            </div>
                        </div>","42","","0","images/gray_28.png","","","","calm"
"","","","","","html-slider-response","151","348828","0.0-143.0","7zecohaxu1","NaN","<div style=""width:500px;"">
                            <p style=""font-size:50px; font-weight:bold;""
                            >calm</p>
                            <div style=""width:240px; margin: auto;"">
                                <img src=""images/gray_26.png"" style= ""width:200px""alt=""img"">
                            </div>
                        </div>","95","","0","images/gray_26.png","","","","calm"
"","","","","","html-slider-response","152","350568","0.0-144.0","7zecohaxu1","NaN","<div style=""width:500px;"">
                            <p style=""font-size:50px; font-weight:bold;""
                            >calm</p>
                            <div style=""width:240px; margin: auto;"">
                                <img src=""images/gray_35.png"" style= ""width:200px""alt=""img"">
                            </div>
                        </div>","146","","0","images/gray_35.png","","","","calm"
"","","","","","html-slider-response","153","352973","0.0-145.0","7zecohaxu1","NaN","<div style=""width:500px;"">
                            <p style=""font-size:50px; font-weight:bold;""
                            >calm</p>
                            <div style=""width:240px; margin: auto;"">
                                <img src=""images/gray_22.png"" style= ""width:200px""alt=""img"">
                            </div>
                        </div>","-131","","0","images/gray_22.png","","","","calm"
"","","","","","html-slider-response","154","354596","0.0-146.0","7zecohaxu1","NaN","<div style=""width:500px;"">
                            <p style=""font-size:50px; font-weight:bold;""
                            >calm</p>
                            <div style=""width:240px; margin: auto;"">
                                <img src=""images/gray_36.png"" style= ""width:200px""alt=""img"">
                            </div>
                        </div>","99","","0","images/gray_36.png","","","","calm"
"","","","","","html-slider-response","155","356357","0.0-147.0","7zecohaxu1","NaN","<div style=""width:500px;"">
                            <p style=""font-size:50px; font-weight:bold;""
                            >calm</p>
                            <div style=""width:240px; margin: auto;"">
                                <img src=""images/gray_37.png"" style= ""width:200px""alt=""img"">
                            </div>
                        </div>","146","","0","images/gray_37.png","","","","calm"
"","","","","","html-slider-response","156","360363","0.0-148.0","7zecohaxu1","NaN","<div style=""width:500px;"">
                            <p style=""font-size:50px; font-weight:bold;""
                            >calm</p>
                            <div style=""width:240px; margin: auto;"">
                                <img src=""images/gray_15.png"" style= ""width:200px""alt=""img"">
                            </div>
                        </div>","-117","","0","images/gray_15.png","","","","calm"
"","","","","","html-slider-response","157","361951","0.0-149.0","7zecohaxu1","NaN","<div style=""width:500px;"">
                            <p style=""font-size:50px; font-weight:bold;""
                            >calm</p>
                            <div style=""width:240px; margin: auto;"">
                                <img src=""images/gray_06.png"" style= ""width:200px""alt=""img"">
                            </div>
                        </div>","-117","","0","images/gray_06.png","","","","calm"
"","","","","","html-button-response","158","363704","0.0-150.0","7zecohaxu1","1243","<p>Great Job! You've finished block 3.<br></br> You have 5 block(s) left to go.<br></br></p>","0","","","","","","",""
"","","","","","html-button-response","159","364505","0.0-151.0","7zecohaxu1","801","<p>In this block of trials, you will be asked to rate how much you associate each map with:</p > <p style = 'font-size:150%; font-weight: bold'>exciting</p><br></br>","0","","","","","","",""
"","","","","","html-slider-response","160","365861","0.0-152.0","7zecohaxu1","NaN","<div style=""width:500px;"">
                            <p style=""font-size:50px; font-weight:bold;""
                            >exciting</p>
                            <div style=""width:240px; margin: auto;"">
                                <img src=""images/gray_23.png"" style= ""width:200px""alt=""img"">
                            </div>
                        </div>","-62","","0","images/gray_23.png","","","","exciting"
"","","","","","html-slider-response","161","367353","0.0-153.0","7zecohaxu1","NaN","<div style=""width:500px;"">
                            <p style=""font-size:50px; font-weight:bold;""
                            >exciting</p>
                            <div style=""width:240px; margin: auto;"">
                                <img src=""images/gray_02.png"" style= ""width:200px""alt=""img"">
                            </div>
                        </div>","-20","","0","images/gray_02.png","","","","exciting"
"","","","","","html-slider-response","162","368764","0.0-154.0","7zecohaxu1","NaN","<div style=""width:500px;"">
                            <p style=""font-size:50px; font-weight:bold;""
                            >exciting</p>
                            <div style=""width:240px; margin: auto;"">
                                <img src=""images/gray_22.png"" style= ""width:200px""alt=""img"">
                            </div>
                        </div>","-20","","0","images/gray_22.png","","","","exciting"
"","","","","","html-slider-response","163","370002","0.0-155.0","7zecohaxu1","NaN","<div style=""width:500px;"">
                            <p style=""font-size:50px; font-weight:bold;""
                            >exciting</p>
                            <div style=""width:240px; margin: auto;"">
                                <img src=""images/gray_30.png"" style= ""width:200px""alt=""img"">
                            </div>
                        </div>","-62","","0","images/gray_30.png","","","","exciting"
"","","","","","html-slider-response","164","371516","0.0-156.0","7zecohaxu1","NaN","<div style=""width:500px;"">
                            <p style=""font-size:50px; font-weight:bold;""
                            >exciting</p>
                            <div style=""width:240px; margin: auto;"">
                                <img src=""images/gray_43.png"" style= ""width:200px""alt=""img"">
                            </div>
                        </div>","-105","","0","images/gray_43.png","","","","exciting"
"","","","","","html-slider-response","165","373022","0.0-157.0","7zecohaxu1","NaN","<div style=""width:500px;"">
                            <p style=""font-size:50px; font-weight:bold;""
                            >exciting</p>
                            <div style=""width:240px; margin: auto;"">
                                <img src=""images/gray_13.png"" style= ""width:200px""alt=""img"">
                            </div>
                        </div>","-21","","0","images/gray_13.png","","","","exciting"
"","","","","","html-slider-response","166","374410","0.0-158.0","7zecohaxu1","NaN","<div style=""width:500px;"">
                            <p style=""font-size:50px; font-weight:bold;""
                            >exciting</p>
                            <div style=""width:240px; margin: auto;"">
                                <img src=""images/gray_05.png"" style= ""width:200px""alt=""img"">
                            </div>
                        </div>","-69","","0","images/gray_05.png","","","","exciting"
"","","","","","html-slider-response","167","375723","0.0-159.0","7zecohaxu1","NaN","<div style=""width:500px;"">
                            <p style=""font-size:50px; font-weight:bold;""
                            >exciting</p>
                            <div style=""width:240px; margin: auto;"">
                                <img src=""images/gray_35.png"" style= ""width:200px""alt=""img"">
                            </div>
                        </div>","-60","","0","images/gray_35.png","","","","exciting"
"","","","","","html-slider-response","168","377456","0.0-160.0","7zecohaxu1","NaN","<div style=""width:500px;"">
                            <p style=""font-size:50px; font-weight:bold;""
                            >exciting</p>
                            <div style=""width:240px; margin: auto;"">
                                <img src=""images/gray_31.png"" style= ""width:200px""alt=""img"">
                            </div>
                        </div>","110","","0","images/gray_31.png","","","","exciting"
"","","","","","html-slider-response","169","378858","0.0-161.0","7zecohaxu1","NaN","<div style=""width:500px;"">
                            <p style=""font-size:50px; font-weight:bold;""
                            >exciting</p>
                            <div style=""width:240px; margin: auto;"">
                                <img src=""images/gray_29.png"" style= ""width:200px""alt=""img"">
                            </div>
                        </div>","31","","0","images/gray_29.png","","","","exciting"
"","","","","","html-slider-response","170","380239","0.0-162.0","7zecohaxu1","NaN","<div style=""width:500px;"">
                            <p style=""font-size:50px; font-weight:bold;""
                            >exciting</p>
                            <div style=""width:240px; margin: auto;"">
                                <img src=""images/gray_40.png"" style= ""width:200px""alt=""img"">
                            </div>
                        </div>","59","","0","images/gray_40.png","","","","exciting"
"","","","","","html-slider-response","171","382580","0.0-163.0","7zecohaxu1","NaN","<div style=""width:500px;"">
                            <p style=""font-size:50px; font-weight:bold;""
                            >exciting</p>
                            <div style=""width:240px; margin: auto;"">
                                <img src=""images/gray_27.png"" style= ""width:200px""alt=""img"">
                            </div>
                        </div>","184","","0","images/gray_27.png","","","","exciting"
"","","","","","html-slider-response","172","384004","0.0-164.0","7zecohaxu1","NaN","<div style=""width:500px;"">
                            <p style=""font-size:50px; font-weight:bold;""
                            >exciting</p>
                            <div style=""width:240px; margin: auto;"">
                                <img src=""images/gray_34.png"" style= ""width:200px""alt=""img"">
                            </div>
                        </div>","-59","","0","images/gray_34.png","","","","exciting"
"","","","","","html-slider-response","173","385772","0.0-165.0","7zecohaxu1","NaN","<div style=""width:500px;"">
                            <p style=""font-size:50px; font-weight:bold;""
                            >exciting</p>
                            <div style=""width:240px; margin: auto;"">
                                <img src=""images/gray_21.png"" style= ""width:200px""alt=""img"">
                            </div>
                        </div>","180","","0","images/gray_21.png","","","","exciting"
"","","","","","html-slider-response","174","387723","0.0-166.0","7zecohaxu1","NaN","<div style=""width:500px;"">
                            <p style=""font-size:50px; font-weight:bold;""
                            >exciting</p>
                            <div style=""width:240px; margin: auto;"">
                                <img src=""images/gray_32.png"" style= ""width:200px""alt=""img"">
                            </div>
                        </div>","-13","","0","images/gray_32.png","","","","exciting"
"","","","","","html-slider-response","175","390794","0.0-167.0","7zecohaxu1","NaN","<div style=""width:500px;"">
                            <p style=""font-size:50px; font-weight:bold;""
                            >exciting</p>
                            <div style=""width:240px; margin: auto;"">
                                <img src=""images/gray_42.png"" style= ""width:200px""alt=""img"">
                            </div>
                        </div>","-34","","0","images/gray_42.png","","","","exciting"
"","","","","","html-slider-response","176","392532","0.0-168.0","7zecohaxu1","NaN","<div style=""width:500px;"">
                            <p style=""font-size:50px; font-weight:bold;""
                            >exciting</p>
                            <div style=""width:240px; margin: auto;"">
                                <img src=""images/gray_01.png"" style= ""width:200px""alt=""img"">
                            </div>
                        </div>","23","","0","images/gray_01.png","","","","exciting"
"","","","","","html-slider-response","177","396484","0.0-169.0","7zecohaxu1","NaN","<div style=""width:500px;"">
                            <p style=""font-size:50px; font-weight:bold;""
                            >exciting</p>
                            <div style=""width:240px; margin: auto;"">
                                <img src=""images/gray_33.png"" style= ""width:200px""alt=""img"">
                            </div>
                        </div>","88","","0","images/gray_33.png","","","","exciting"
"","","","","","html-slider-response","178","397728","0.0-170.0","7zecohaxu1","NaN","<div style=""width:500px;"">
                            <p style=""font-size:50px; font-weight:bold;""
                            >exciting</p>
                            <div style=""width:240px; margin: auto;"">
                                <img src=""images/gray_26.png"" style= ""width:200px""alt=""img"">
                            </div>
                        </div>","-53","","0","images/gray_26.png","","","","exciting"
"","","","","","html-slider-response","179","399507","0.0-171.0","7zecohaxu1","NaN","<div style=""width:500px;"">
                            <p style=""font-size:50px; font-weight:bold;""
                            >exciting</p>
                            <div style=""width:240px; margin: auto;"">
                                <img src=""images/gray_38.png"" style= ""width:200px""alt=""img"">
                            </div>
                        </div>","-5","","0","images/gray_38.png","","","","exciting"
"","","","","","html-slider-response","180","400881","0.0-172.0","7zecohaxu1","NaN","<div style=""width:500px;"">
                            <p style=""font-size:50px; font-weight:bold;""
                            >exciting</p>
                            <div style=""width:240px; margin: auto;"">
                                <img src=""images/gray_25.png"" style= ""width:200px""alt=""img"">
                            </div>
                        </div>","-69","","0","images/gray_25.png","","","","exciting"
"","","","","","html-slider-response","181","402710","0.0-173.0","7zecohaxu1","NaN","<div style=""width:500px;"">
                            <p style=""font-size:50px; font-weight:bold;""
                            >exciting</p>
                            <div style=""width:240px; margin: auto;"">
                                <img src=""images/gray_20.png"" style= ""width:200px""alt=""img"">
                            </div>
                        </div>","65","","0","images/gray_20.png","","","","exciting"
"","","","","","html-slider-response","182","404367","0.0-174.0","7zecohaxu1","NaN","<div style=""width:500px;"">
                            <p style=""font-size:50px; font-weight:bold;""
                            >exciting</p>
                            <div style=""width:240px; margin: auto;"">
                                <img src=""images/gray_44.png"" style= ""width:200px""alt=""img"">
                            </div>
                        </div>","-91","","0","images/gray_44.png","","","","exciting"
"","","","","","html-slider-response","183","406422","0.0-175.0","7zecohaxu1","NaN","<div style=""width:500px;"">
                            <p style=""font-size:50px; font-weight:bold;""
                            >exciting</p>
                            <div style=""width:240px; margin: auto;"">
                                <img src=""images/gray_15.png"" style= ""width:200px""alt=""img"">
                            </div>
                        </div>","-73","","0","images/gray_15.png","","","","exciting"
"","","","","","html-slider-response","184","409249","0.0-176.0","7zecohaxu1","NaN","<div style=""width:500px;"">
                            <p style=""font-size:50px; font-weight:bold;""
                            >exciting</p>
                            <div style=""width:240px; margin: auto;"">
                                <img src=""images/gray_18.png"" style= ""width:200px""alt=""img"">
                            </div>
                        </div>","56","","0","images/gray_18.png","","","","exciting"
"","","","","","html-slider-response","185","410960","0.0-177.0","7zecohaxu1","NaN","<div style=""width:500px;"">
                            <p style=""font-size:50px; font-weight:bold;""
                            >exciting</p>
                            <div style=""width:240px; margin: auto;"">
                                <img src=""images/gray_04.png"" style= ""width:200px""alt=""img"">
                            </div>
                        </div>","-49","","0","images/gray_04.png","","","","exciting"
"","","","","","html-slider-response","186","412362","0.0-178.0","7zecohaxu1","NaN","<div style=""width:500px;"">
                            <p style=""font-size:50px; font-weight:bold;""
                            >exciting</p>
                            <div style=""width:240px; margin: auto;"">
                                <img src=""images/gray_12.png"" style= ""width:200px""alt=""img"">
                            </div>
                        </div>","-93","","0","images/gray_12.png","","","","exciting"
"","","","","","html-slider-response","187","414335","0.0-179.0","7zecohaxu1","NaN","<div style=""width:500px;"">
                            <p style=""font-size:50px; font-weight:bold;""
                            >exciting</p>
                            <div style=""width:240px; margin: auto;"">
                                <img src=""images/gray_11.png"" style= ""width:200px""alt=""img"">
                            </div>
                        </div>","-93","","0","images/gray_11.png","","","","exciting"
"","","","","","html-slider-response","188","415782","0.0-180.0","7zecohaxu1","NaN","<div style=""width:500px;"">
                            <p style=""font-size:50px; font-weight:bold;""
                            >exciting</p>
                            <div style=""width:240px; margin: auto;"">
                                <img src=""images/gray_17.png"" style= ""width:200px""alt=""img"">
                            </div>
                        </div>","-61","","0","images/gray_17.png","","","","exciting"
"","","","","","html-slider-response","189","417463","0.0-181.0","7zecohaxu1","NaN","<div style=""width:500px;"">
                            <p style=""font-size:50px; font-weight:bold;""
                            >exciting</p>
                            <div style=""width:240px; margin: auto;"">
                                <img src=""images/gray_36.png"" style= ""width:200px""alt=""img"">
                            </div>
                        </div>","124","","0","images/gray_36.png","","","","exciting"
"","","","","","html-slider-response","190","419008","0.0-182.0","7zecohaxu1","NaN","<div style=""width:500px;"">
                            <p style=""font-size:50px; font-weight:bold;""
                            >exciting</p>
                            <div style=""width:240px; margin: auto;"">
                                <img src=""images/gray_07.png"" style= ""width:200px""alt=""img"">
                            </div>
                        </div>","-81","","0","images/gray_07.png","","","","exciting"
"","","","","","html-slider-response","191","420432","0.0-183.0","7zecohaxu1","NaN","<div style=""width:500px;"">
                            <p style=""font-size:50px; font-weight:bold;""
                            >exciting</p>
                            <div style=""width:240px; margin: auto;"">
                                <img src=""images/gray_09.png"" style= ""width:200px""alt=""img"">
                            </div>
                        </div>","-30","","0","images/gray_09.png","","","","exciting"
"","","","","","html-slider-response","192","421685","0.0-184.0","7zecohaxu1","NaN","<div style=""width:500px;"">
                            <p style=""font-size:50px; font-weight:bold;""
                            >exciting</p>
                            <div style=""width:240px; margin: auto;"">
                                <img src=""images/gray_24.png"" style= ""width:200px""alt=""img"">
                            </div>
                        </div>","52","","0","images/gray_24.png","","","","exciting"
"","","","","","html-slider-response","193","423185","0.0-185.0","7zecohaxu1","NaN","<div style=""width:500px;"">
                            <p style=""font-size:50px; font-weight:bold;""
                            >exciting</p>
                            <div style=""width:240px; margin: auto;"">
                                <img src=""images/gray_41.png"" style= ""width:200px""alt=""img"">
                            </div>
                        </div>","52","","0","images/gray_41.png","","","","exciting"
"","","","","","html-slider-response","194","425083","0.0-186.0","7zecohaxu1","NaN","<div style=""width:500px;"">
                            <p style=""font-size:50px; font-weight:bold;""
                            >exciting</p>
                            <div style=""width:240px; margin: auto;"">
                                <img src=""images/gray_06.png"" style= ""width:200px""alt=""img"">
                            </div>
                        </div>","-46","","0","images/gray_06.png","","","","exciting"
"","","","","","html-slider-response","195","426967","0.0-187.0","7zecohaxu1","NaN","<div style=""width:500px;"">
                            <p style=""font-size:50px; font-weight:bold;""
                            >exciting</p>
                            <div style=""width:240px; margin: auto;"">
                                <img src=""images/gray_03.png"" style= ""width:200px""alt=""img"">
                            </div>
                        </div>","42","","0","images/gray_03.png","","","","exciting"
"","","","","","html-slider-response","196","429746","0.0-188.0","7zecohaxu1","NaN","<div style=""width:500px;"">
                            <p style=""font-size:50px; font-weight:bold;""
                            >exciting</p>
                            <div style=""width:240px; margin: auto;"">
                                <img src=""images/gray_14.png"" style= ""width:200px""alt=""img"">
                            </div>
                        </div>","197","","0","images/gray_14.png","","","","exciting"
"","","","","","html-slider-response","197","431002","0.0-189.0","7zecohaxu1","NaN","<div style=""width:500px;"">
                            <p style=""font-size:50px; font-weight:bold;""
                            >exciting</p>
                            <div style=""width:240px; margin: auto;"">
                                <img src=""images/gray_10.png"" style= ""width:200px""alt=""img"">
                            </div>
                        </div>","-101","","0","images/gray_10.png","","","","exciting"
"","","","","","html-slider-response","198","432973","0.0-190.0","7zecohaxu1","NaN","<div style=""width:500px;"">
                            <p style=""font-size:50px; font-weight:bold;""
                            >exciting</p>
                            <div style=""width:240px; margin: auto;"">
                                <img src=""images/gray_28.png"" style= ""width:200px""alt=""img"">
                            </div>
                        </div>","-46","","0","images/gray_28.png","","","","exciting"
"","","","","","html-slider-response","199","434623","0.0-191.0","7zecohaxu1","NaN","<div style=""width:500px;"">
                            <p style=""font-size:50px; font-weight:bold;""
                            >exciting</p>
                            <div style=""width:240px; margin: auto;"">
                                <img src=""images/gray_39.png"" style= ""width:200px""alt=""img"">
                            </div>
                        </div>","-164","","0","images/gray_39.png","","","","exciting"
"","","","","","html-slider-response","200","436430","0.0-192.0","7zecohaxu1","NaN","<div style=""width:500px;"">
                            <p style=""font-size:50px; font-weight:bold;""
                            >exciting</p>
                            <div style=""width:240px; margin: auto;"">
                                <img src=""images/gray_37.png"" style= ""width:200px""alt=""img"">
