"success","timeout","failed_images","failed_audio","failed_video","trial_type","trial_index","time_elapsed","internal_node_id","subject_id","rt","stimulus","response","question_order","slider_start","image_path","practiceTrial","practiceTrialNum","correct","concept"
"true","false","[]","[]","[]","preload","0","433","0.0-0.0","8u7uf5e0k8","","","","","","","","","",""
"","","","","","html-button-response","1","21785783","0.0-1.0","8u7uf5e0k8","18497359","Welcome to our experiment!<p>At the bottom of this screen, you will see a button that says ""Begin Experiment"".<br>Please only click that button when you are ready to complete the 25 minute experiment in one sitting.</p><p> Once you click that button, it will not be possible to restart the experiment.","0","","","","","","",""
"true","","","","","fullscreen","2","21789180","0.0-2.0","8u7uf5e0k8","2391","","","","","","","","",""
"","","","","","survey-multi-select","3","21812117","0.0-3.0","8u7uf5e0k8","22933","","{""Consent"":[""<strong>I consent</strong>""]}","[0]","","","","","",""
"","","","","","html-button-response","4","21814594","0.0-4.0","8u7uf5e0k8","2474","Welcome! <p> This experiment involves two parts: demographic information, followed by the experimental task.<p> It will take about 25 minutes to complete both parts.","0","","","","","","",""
"","","","","","survey-text","5","21823600","0.0-5.0","8u7uf5e0k8","8995","","{""Age"":""18"",""Gender"":""Female"",""Race/ethnicity"":""Asian"",""Languages"":""English""}","","","","","","",""
"","","","","","html-slider-response","6","21863141","0.0-6.0","8u7uf5e0k8","39540","
            <div style='text-align:left; font-size:20px; line-height:25px; width: 1200px;'>
                During this experiment you will be asked to rate how much you associate maps with    different concepts.<br> Below, you can see some examples of the maps you will be asked to rate. Next to the maps
    is the list of concepts.<br>You will be asked    to rate how much you associate each map with each concept on a scale from 'not at all' to 'very much' like the
    one below. <br><br>
    Now, please look at the list of concepts and maps. For each concept, think about the map you associate 'very
    much' with the concept.<br>     When you see that map during the experiment, please rate it near the 'very much' endpoint of the
    scale.<br>Now, please think about which map you associate 'not at all'     with each concept. When you see that map during the experiment, please rate it near the 'not at all' endpoint
    of the scale.<br>
    Please use the full range of the scale. That is, if a map is somewhat associated with the concept, you would
    click partway between the middle point and right side of the scale.    You will be asked to rate each map for a given concept before moving on to the next concept.<br><br>Press the
    'Continue' button for instructions on how to use the slider.    <br><br>
</div>

<div style=""width: 500px; margin: 0 auto;"">
    <div style=""text-align: left; width: 200px; float: left;"">
        <p style=""font-size:25px; line-height:18px;"">calm</p>
        <p style=""font-size:25px; line-height:18px;"">exciting</p>
        <p style=""font-size:25px;line-height:18px;"">positive</p>
        <p style=""font-size:25px;line-height:18px;"">negative</p>
        <p style=""font-size:25px;line-height:18px;"">serious</p>
        <p style=""font-size:25px;line-height:18px;"">playful</p>
        <p style=""font-size:25px;line-height:18px;"">trustworthy</p>
        <p style=""font-size:25px;line-height:18px;"">disturbing</p>
    </div>
    <div style=""width: 200px; float: right; padding-top:15px; padding-right:40px"">
        <br>
        <br>
        <img src=""maps_anchoring.png"" alt=""img"" style=""max-width:500px"">
    </div>
    <div style=""clear: both;""></div>
</div>
            ","0","","0","maps_anchoring.png","true","","",""
"","","","","","html-button-response","7","21871465","0.0-7.0","8u7uf5e0k8","8324","<div style=""width:800px;""><p style=""text-align:left"">To move the slider, click and drag your cursor to the location of the scale where you would like to make your rating and then let go. When you let go of the slider, your response will be recorded and the next trial will begin. <br>
            We are interested in your initial impressions of each map for the given concept, so please go with your first intuition. <br>
            Before you begin the experiment, there will be four training trials for you to practice using the scale. <br>
             When you are ready to start the training trials, please click ""Continue"".</p><br></div>","0","","","","","","",""
"","","","","","html-slider-response","8","21874804","0.0-8.0-0.0","8u7uf5e0k8","NaN","<div style=""width:500px;"">
                            <p style=""font-size:25px;"">Please move the slider all the way to the <br> right endpoint of the scale</p>

                            </div>
                        </div>","200","","0","","true","0","true",""
"","","","","","html-button-response","9","21876024","0.0-8.0-1.0","8u7uf5e0k8","713","<p align='center'><b>Good job!</b> Click on 'Continue' to proceed.</p>","0","","","","","","",""
"","","","","","html-slider-response","10","21877449","0.0-9.0-0.0","8u7uf5e0k8","NaN","<div style=""width:500px;"">
                            <p style=""font-size:25px;"">Please move the slider all the way to the <br> left endpoint of the scale</p>

                            </div>
                        </div>","-200","","0","","true","1","true",""
"","","","","","html-button-response","11","21878613","0.0-9.0-1.0","8u7uf5e0k8","659","<p align='center'><b>Good job!</b> Click on 'Continue' to proceed.</p>","0","","","","","","",""
"","","","","","html-slider-response","12","21884483","0.0-10.0-0.0","8u7uf5e0k8","NaN","<div style=""width:500px;"">
                            <p style=""font-size:25px;"">Please move the slider halfway between the center and right endpoint of the scale</p>

                            </div>
                        </div>","105","","0","","true","2","true",""
"","","","","","html-button-response","13","21885683","0.0-10.0-1.0","8u7uf5e0k8","694","<p align='center'><b>Good job!</b> Click on 'Continue' to proceed.</p>","0","","","","","","",""
"","","","","","html-slider-response","14","21888097","0.0-11.0-0.0","8u7uf5e0k8","NaN","<div style=""width:500px;"">
                            <p style=""font-size:25px;"">Please move the slider halfway between the center and left endpoint of the scale</p>

                            </div>
                        </div>","-104","","0","","true","3","true",""
"","","","","","html-button-response","15","21889245","0.0-11.0-1.0","8u7uf5e0k8","643","<p align='center'><b>Good job!</b> Click on 'Continue' to proceed.</p>","0","","","","","","",""
"","","","","","html-button-response","16","21890290","0.0-12.0","8u7uf5e0k8","1044","<p>Great job! You've completed the practice trials. Now you will begin the main task.</p>","0","","","","","","",""
"","","","","","html-button-response","17","21892686","0.0-13.0","8u7uf5e0k8","2394","<p>In this block of trials, you will be asked to rate how much you associate each map with:</p > <p style = 'font-size:150%; font-weight: bold'>calm</p><br></br>","0","","","","","","",""
"","","","","","html-slider-response","18","21895976","0.0-14.0","8u7uf5e0k8","NaN","<div style=""width:500px;"">
                            <p style=""font-size:50px; font-weight:bold;""
                            >calm</p>
                            <div style=""width:240px; margin: auto;"">
                                <img src=""images/gray_29.png"" style= ""width:200px""alt=""img"">
                            </div>
                        </div>","150","","0","images/gray_29.png","","","","calm"
"","","","","","html-slider-response","19","21898673","0.0-15.0","8u7uf5e0k8","NaN","<div style=""width:500px;"">
                            <p style=""font-size:50px; font-weight:bold;""
                            >calm</p>
                            <div style=""width:240px; margin: auto;"">
                                <img src=""images/gray_17.png"" style= ""width:200px""alt=""img"">
                            </div>
                        </div>","180","","0","images/gray_17.png","","","","calm"
"","","","","","html-slider-response","20","21901291","0.0-16.0","8u7uf5e0k8","NaN","<div style=""width:500px;"">
                            <p style=""font-size:50px; font-weight:bold;""
                            >calm</p>
                            <div style=""width:240px; margin: auto;"">
                                <img src=""images/gray_19.png"" style= ""width:200px""alt=""img"">
                            </div>
                        </div>","-40","","0","images/gray_19.png","","","","calm"
"","","","","","html-slider-response","21","21904827","0.0-17.0","8u7uf5e0k8","NaN","<div style=""width:500px;"">
                            <p style=""font-size:50px; font-weight:bold;""
                            >calm</p>
                            <div style=""width:240px; margin: auto;"">
                                <img src=""images/gray_39.png"" style= ""width:200px""alt=""img"">
                            </div>
                        </div>","-22","","0","images/gray_39.png","","","","calm"
"","","","","","html-slider-response","22","21907167","0.0-18.0","8u7uf5e0k8","NaN","<div style=""width:500px;"">
                            <p style=""font-size:50px; font-weight:bold;""
                            >calm</p>
                            <div style=""width:240px; margin: auto;"">
                                <img src=""images/gray_27.png"" style= ""width:200px""alt=""img"">
                            </div>
                        </div>","-147","","0","images/gray_27.png","","","","calm"
"","","","","","html-slider-response","23","21909354","0.0-19.0","8u7uf5e0k8","NaN","<div style=""width:500px;"">
                            <p style=""font-size:50px; font-weight:bold;""
                            >calm</p>
                            <div style=""width:240px; margin: auto;"">
                                <img src=""images/gray_38.png"" style= ""width:200px""alt=""img"">
                            </div>
                        </div>","40","","0","images/gray_38.png","","","","calm"
"","","","","","html-slider-response","24","21912105","0.0-20.0","8u7uf5e0k8","NaN","<div style=""width:500px;"">
                            <p style=""font-size:50px; font-weight:bold;""
                            >calm</p>
                            <div style=""width:240px; margin: auto;"">
                                <img src=""images/gray_26.png"" style= ""width:200px""alt=""img"">
                            </div>
                        </div>","-63","","0","images/gray_26.png","","","","calm"
"","","","","","html-slider-response","25","21915954","0.0-21.0","8u7uf5e0k8","NaN","<div style=""width:500px;"">
                            <p style=""font-size:50px; font-weight:bold;""
                            >calm</p>
                            <div style=""width:240px; margin: auto;"">
                                <img src=""images/gray_32.png"" style= ""width:200px""alt=""img"">
                            </div>
                        </div>","36","","0","images/gray_32.png","","","","calm"
"","","","","","html-slider-response","26","21918415","0.0-22.0","8u7uf5e0k8","NaN","<div style=""width:500px;"">
                            <p style=""font-size:50px; font-weight:bold;""
                            >calm</p>
                            <div style=""width:240px; margin: auto;"">
                                <img src=""images/gray_13.png"" style= ""width:200px""alt=""img"">
                            </div>
                        </div>","-166","","0","images/gray_13.png","","","","calm"
"","","","","","html-slider-response","27","21920592","0.0-23.0","8u7uf5e0k8","NaN","<div style=""width:500px;"">
                            <p style=""font-size:50px; font-weight:bold;""
                            >calm</p>
                            <div style=""width:240px; margin: auto;"">
                                <img src=""images/gray_06.png"" style= ""width:200px""alt=""img"">
                            </div>
                        </div>","-58","","0","images/gray_06.png","","","","calm"
"","","","","","html-slider-response","28","21923613","0.0-24.0","8u7uf5e0k8","NaN","<div style=""width:500px;"">
                            <p style=""font-size:50px; font-weight:bold;""
                            >calm</p>
                            <div style=""width:240px; margin: auto;"">
                                <img src=""images/gray_15.png"" style= ""width:200px""alt=""img"">
                            </div>
                        </div>","146","","0","images/gray_15.png","","","","calm"
"","","","","","html-slider-response","29","21925589","0.0-25.0","8u7uf5e0k8","NaN","<div style=""width:500px;"">
                            <p style=""font-size:50px; font-weight:bold;""
                            >calm</p>
                            <div style=""width:240px; margin: auto;"">
                                <img src=""images/gray_02.png"" style= ""width:200px""alt=""img"">
                            </div>
                        </div>","-56","","0","images/gray_02.png","","","","calm"
"","","","","","html-slider-response","30","21927711","0.0-26.0","8u7uf5e0k8","NaN","<div style=""width:500px;"">
                            <p style=""font-size:50px; font-weight:bold;""
                            >calm</p>
                            <div style=""width:240px; margin: auto;"">
                                <img src=""images/gray_14.png"" style= ""width:200px""alt=""img"">
                            </div>
                        </div>","106","","0","images/gray_14.png","","","","calm"
"","","","","","html-slider-response","31","21932791","0.0-27.0","8u7uf5e0k8","NaN","<div style=""width:500px;"">
                            <p style=""font-size:50px; font-weight:bold;""
                            >calm</p>
                            <div style=""width:240px; margin: auto;"">
                                <img src=""images/gray_20.png"" style= ""width:200px""alt=""img"">
                            </div>
                        </div>","-38","","0","images/gray_20.png","","","","calm"
"","","","","","html-slider-response","32","21935031","0.0-28.0","8u7uf5e0k8","NaN","<div style=""width:500px;"">
                            <p style=""font-size:50px; font-weight:bold;""
                            >calm</p>
                            <div style=""width:240px; margin: auto;"">
                                <img src=""images/gray_10.png"" style= ""width:200px""alt=""img"">
                            </div>
                        </div>","-110","","0","images/gray_10.png","","","","calm"
"","","","","","html-slider-response","33","21938122","0.0-29.0","8u7uf5e0k8","NaN","<div style=""width:500px;"">
                            <p style=""font-size:50px; font-weight:bold;""
                            >calm</p>
                            <div style=""width:240px; margin: auto;"">
                                <img src=""images/gray_18.png"" style= ""width:200px""alt=""img"">
                            </div>
                        </div>","95","","0","images/gray_18.png","","","","calm"
"","","","","","html-slider-response","34","21939981","0.0-30.0","8u7uf5e0k8","NaN","<div style=""width:500px;"">
                            <p style=""font-size:50px; font-weight:bold;""
                            >calm</p>
                            <div style=""width:240px; margin: auto;"">
                                <img src=""images/gray_30.png"" style= ""width:200px""alt=""img"">
                            </div>
                        </div>","-200","","0","images/gray_30.png","","","","calm"
"","","","","","html-slider-response","35","21942300","0.0-31.0","8u7uf5e0k8","NaN","<div style=""width:500px;"">
                            <p style=""font-size:50px; font-weight:bold;""
                            >calm</p>
                            <div style=""width:240px; margin: auto;"">
                                <img src=""images/gray_16.png"" style= ""width:200px""alt=""img"">
                            </div>
                        </div>","-78","","0","images/gray_16.png","","","","calm"
"","","","","","html-slider-response","36","21945615","0.0-32.0","8u7uf5e0k8","NaN","<div style=""width:500px;"">
                            <p style=""font-size:50px; font-weight:bold;""
                            >calm</p>
                            <div style=""width:240px; margin: auto;"">
                                <img src=""images/gray_23.png"" style= ""width:200px""alt=""img"">
                            </div>
                        </div>","5","","0","images/gray_23.png","","","","calm"
"","","","","","html-slider-response","37","21948852","0.0-33.0","8u7uf5e0k8","NaN","<div style=""width:500px;"">
                            <p style=""font-size:50px; font-weight:bold;""
                            >calm</p>
                            <div style=""width:240px; margin: auto;"">
                                <img src=""images/gray_25.png"" style= ""width:200px""alt=""img"">
                            </div>
                        </div>","-62","","0","images/gray_25.png","","","","calm"
"","","","","","html-slider-response","38","21951387","0.0-34.0","8u7uf5e0k8","NaN","<div style=""width:500px;"">
                            <p style=""font-size:50px; font-weight:bold;""
                            >calm</p>
                            <div style=""width:240px; margin: auto;"">
                                <img src=""images/gray_21.png"" style= ""width:200px""alt=""img"">
                            </div>
                        </div>","135","","0","images/gray_21.png","","","","calm"
"","","","","","html-slider-response","39","21953503","0.0-35.0","8u7uf5e0k8","NaN","<div style=""width:500px;"">
                            <p style=""font-size:50px; font-weight:bold;""
                            >calm</p>
                            <div style=""width:240px; margin: auto;"">
                                <img src=""images/gray_34.png"" style= ""width:200px""alt=""img"">
                            </div>
                        </div>","-170","","0","images/gray_34.png","","","","calm"
"","","","","","html-slider-response","40","21955365","0.0-36.0","8u7uf5e0k8","NaN","<div style=""width:500px;"">
                            <p style=""font-size:50px; font-weight:bold;""
                            >calm</p>
                            <div style=""width:240px; margin: auto;"">
                                <img src=""images/gray_07.png"" style= ""width:200px""alt=""img"">
                            </div>
                        </div>","-170","","0","images/gray_07.png","","","","calm"
"","","","","","html-slider-response","41","21956977","0.0-37.0","8u7uf5e0k8","NaN","<div style=""width:500px;"">
                            <p style=""font-size:50px; font-weight:bold;""
                            >calm</p>
                            <div style=""width:240px; margin: auto;"">
                                <img src=""images/gray_42.png"" style= ""width:200px""alt=""img"">
                            </div>
                        </div>","-200","","0","images/gray_42.png","","","","calm"
"","","","","","html-slider-response","42","21958973","0.0-38.0","8u7uf5e0k8","NaN","<div style=""width:500px;"">
                            <p style=""font-size:50px; font-weight:bold;""
                            >calm</p>
                            <div style=""width:240px; margin: auto;"">
                                <img src=""images/gray_40.png"" style= ""width:200px""alt=""img"">
                            </div>
                        </div>","-129","","0","images/gray_40.png","","","","calm"
"","","","","","html-slider-response","43","21961303","0.0-39.0","8u7uf5e0k8","NaN","<div style=""width:500px;"">
                            <p style=""font-size:50px; font-weight:bold;""
                            >calm</p>
                            <div style=""width:240px; margin: auto;"">
                                <img src=""images/gray_31.png"" style= ""width:200px""alt=""img"">
                            </div>
                        </div>","74","","0","images/gray_31.png","","","","calm"
"","","","","","html-slider-response","44","21962995","0.0-40.0","8u7uf5e0k8","NaN","<div style=""width:500px;"">
                            <p style=""font-size:50px; font-weight:bold;""
                            >calm</p>
                            <div style=""width:240px; margin: auto;"">
                                <img src=""images/gray_09.png"" style= ""width:200px""alt=""img"">
                            </div>
                        </div>","-110","","0","images/gray_09.png","","","","calm"
"","","","","","html-slider-response","45","21964688","0.0-41.0","8u7uf5e0k8","NaN","<div style=""width:500px;"">
                            <p style=""font-size:50px; font-weight:bold;""
                            >calm</p>
                            <div style=""width:240px; margin: auto;"">
                                <img src=""images/gray_05.png"" style= ""width:200px""alt=""img"">
                            </div>
                        </div>","-104","","0","images/gray_05.png","","","","calm"
"","","","","","html-slider-response","46","21966558","0.0-42.0","8u7uf5e0k8","NaN","<div style=""width:500px;"">
                            <p style=""font-size:50px; font-weight:bold;""
                            >calm</p>
                            <div style=""width:240px; margin: auto;"">
                                <img src=""images/gray_37.png"" style= ""width:200px""alt=""img"">
                            </div>
                        </div>","-54","","0","images/gray_37.png","","","","calm"
"","","","","","html-slider-response","47","21968436","0.0-43.0","8u7uf5e0k8","NaN","<div style=""width:500px;"">
                            <p style=""font-size:50px; font-weight:bold;""
                            >calm</p>
                            <div style=""width:240px; margin: auto;"">
                                <img src=""images/gray_22.png"" style= ""width:200px""alt=""img"">
                            </div>
                        </div>","-154","","0","images/gray_22.png","","","","calm"
"","","","","","html-slider-response","48","21970238","0.0-44.0","8u7uf5e0k8","NaN","<div style=""width:500px;"">
                            <p style=""font-size:50px; font-weight:bold;""
                            >calm</p>
                            <div style=""width:240px; margin: auto;"">
                                <img src=""images/gray_41.png"" style= ""width:200px""alt=""img"">
                            </div>
                        </div>","-200","","0","images/gray_41.png","","","","calm"
"","","","","","html-slider-response","49","21971995","0.0-45.0","8u7uf5e0k8","NaN","<div style=""width:500px;"">
                            <p style=""font-size:50px; font-weight:bold;""
                            >calm</p>
                            <div style=""width:240px; margin: auto;"">
                                <img src=""images/gray_08.png"" style= ""width:200px""alt=""img"">
                            </div>
                        </div>","-200","","0","images/gray_08.png","","","","calm"
"","","","","","html-slider-response","50","21973864","0.0-46.0","8u7uf5e0k8","NaN","<div style=""width:500px;"">
                            <p style=""font-size:50px; font-weight:bold;""
                            >calm</p>
                            <div style=""width:240px; margin: auto;"">
                                <img src=""images/gray_35.png"" style= ""width:200px""alt=""img"">
                            </div>
                        </div>","-179","","0","images/gray_35.png","","","","calm"
"","","","","","html-slider-response","51","21975586","0.0-47.0","8u7uf5e0k8","NaN","<div style=""width:500px;"">
                            <p style=""font-size:50px; font-weight:bold;""
                            >calm</p>
                            <div style=""width:240px; margin: auto;"">
                                <img src=""images/gray_01.png"" style= ""width:200px""alt=""img"">
                            </div>
                        </div>","-200","","0","images/gray_01.png","","","","calm"
"","","","","","html-slider-response","52","21977672","0.0-48.0","8u7uf5e0k8","NaN","<div style=""width:500px;"">
                            <p style=""font-size:50px; font-weight:bold;""
                            >calm</p>
                            <div style=""width:240px; margin: auto;"">
                                <img src=""images/gray_12.png"" style= ""width:200px""alt=""img"">
                            </div>
                        </div>","-118","","0","images/gray_12.png","","","","calm"
"","","","","","html-slider-response","53","21980049","0.0-49.0","8u7uf5e0k8","NaN","<div style=""width:500px;"">
                            <p style=""font-size:50px; font-weight:bold;""
                            >calm</p>
                            <div style=""width:240px; margin: auto;"">
                                <img src=""images/gray_44.png"" style= ""width:200px""alt=""img"">
                            </div>
                        </div>","-167","","0","images/gray_44.png","","","","calm"
"","","","","","html-slider-response","54","21982071","0.0-50.0","8u7uf5e0k8","NaN","<div style=""width:500px;"">
                            <p style=""font-size:50px; font-weight:bold;""
                            >calm</p>
                            <div style=""width:240px; margin: auto;"">
                                <img src=""images/gray_43.png"" style= ""width:200px""alt=""img"">
                            </div>
                        </div>","-191","","0","images/gray_43.png","","","","calm"
"","","","","","html-slider-response","55","21984246","0.0-51.0","8u7uf5e0k8","NaN","<div style=""width:500px;"">
                            <p style=""font-size:50px; font-weight:bold;""
                            >calm</p>
                            <div style=""width:240px; margin: auto;"">
                                <img src=""images/gray_36.png"" style= ""width:200px""alt=""img"">
                            </div>
                        </div>","-134","","0","images/gray_36.png","","","","calm"
"","","","","","html-slider-response","56","21986317","0.0-52.0","8u7uf5e0k8","NaN","<div style=""width:500px;"">
                            <p style=""font-size:50px; font-weight:bold;""
                            >calm</p>
                            <div style=""width:240px; margin: auto;"">
                                <img src=""images/gray_04.png"" style= ""width:200px""alt=""img"">
                            </div>
                        </div>","-86","","0","images/gray_04.png","","","","calm"
"","","","","","html-slider-response","57","21988358","0.0-53.0","8u7uf5e0k8","NaN","<div style=""width:500px;"">
                            <p style=""font-size:50px; font-weight:bold;""
                            >calm</p>
                            <div style=""width:240px; margin: auto;"">
                                <img src=""images/gray_33.png"" style= ""width:200px""alt=""img"">
                            </div>
                        </div>","-200","","0","images/gray_33.png","","","","calm"
"","","","","","html-slider-response","58","21990184","0.0-54.0","8u7uf5e0k8","NaN","<div style=""width:500px;"">
                            <p style=""font-size:50px; font-weight:bold;""
                            >calm</p>
                            <div style=""width:240px; margin: auto;"">
                                <img src=""images/gray_03.png"" style= ""width:200px""alt=""img"">
                            </div>
                        </div>","-200","","0","images/gray_03.png","","","","calm"
"","","","","","html-slider-response","59","21992519","0.0-55.0","8u7uf5e0k8","NaN","<div style=""width:500px;"">
                            <p style=""font-size:50px; font-weight:bold;""
                            >calm</p>
                            <div style=""width:240px; margin: auto;"">
                                <img src=""images/gray_24.png"" style= ""width:200px""alt=""img"">
                            </div>
                        </div>","54","","0","images/gray_24.png","","","","calm"
"","","","","","html-slider-response","60","21994498","0.0-56.0","8u7uf5e0k8","NaN","<div style=""width:500px;"">
                            <p style=""font-size:50px; font-weight:bold;""
                            >calm</p>
                            <div style=""width:240px; margin: auto;"">
                                <img src=""images/gray_11.png"" style= ""width:200px""alt=""img"">
                            </div>
                        </div>","-200","","0","images/gray_11.png","","","","calm"
"","","","","","html-slider-response","61","21996542","0.0-57.0","8u7uf5e0k8","NaN","<div style=""width:500px;"">
                            <p style=""font-size:50px; font-weight:bold;""
                            >calm</p>
                            <div style=""width:240px; margin: auto;"">
                                <img src=""images/gray_28.png"" style= ""width:200px""alt=""img"">
                            </div>
                        </div>","-200","","0","images/gray_28.png","","","","calm"
"","","","","","html-button-response","62","21998396","0.0-58.0","8u7uf5e0k8","1351","<p>Great Job! You've finished block 1.<br></br> You have 7 block(s) left to go.<br></br></p>","0","","","","","","",""
"","","","","","html-button-response","63","21999528","0.0-59.0","8u7uf5e0k8","1131","<p>In this block of trials, you will be asked to rate how much you associate each map with:</p > <p style = 'font-size:150%; font-weight: bold'>trustworthy</p><br></br>","0","","","","","","",""
"","","","","","html-slider-response","64","22001610","0.0-60.0","8u7uf5e0k8","NaN","<div style=""width:500px;"">
                            <p style=""font-size:50px; font-weight:bold;""
                            >trustworthy</p>
                            <div style=""width:240px; margin: auto;"">
                                <img src=""images/gray_14.png"" style= ""width:200px""alt=""img"">
                            </div>
                        </div>","70","","0","images/gray_14.png","","","","trustworthy"
"","","","","","html-slider-response","65","22004050","0.0-61.0","8u7uf5e0k8","NaN","<div style=""width:500px;"">
                            <p style=""font-size:50px; font-weight:bold;""
                            >trustworthy</p>
                            <div style=""width:240px; margin: auto;"">
                                <img src=""images/gray_29.png"" style= ""width:200px""alt=""img"">
                            </div>
                        </div>","-56","","0","images/gray_29.png","","","","trustworthy"
"","","","","","html-slider-response","66","22007091","0.0-62.0","8u7uf5e0k8","NaN","<div style=""width:500px;"">
                            <p style=""font-size:50px; font-weight:bold;""
                            >trustworthy</p>
                            <div style=""width:240px; margin: auto;"">
                                <img src=""images/gray_21.png"" style= ""width:200px""alt=""img"">
                            </div>
                        </div>","109","","0","images/gray_21.png","","","","trustworthy"
"","","","","","html-slider-response","67","22009403","0.0-63.0","8u7uf5e0k8","NaN","<div style=""width:500px;"">
                            <p style=""font-size:50px; font-weight:bold;""
                            >trustworthy</p>
                            <div style=""width:240px; margin: auto;"">
                                <img src=""images/gray_24.png"" style= ""width:200px""alt=""img"">
                            </div>
                        </div>","-83","","0","images/gray_24.png","","","","trustworthy"
"","","","","","html-slider-response","68","22011210","0.0-64.0","8u7uf5e0k8","NaN","<div style=""width:500px;"">
                            <p style=""font-size:50px; font-weight:bold;""
                            >trustworthy</p>
                            <div style=""width:240px; margin: auto;"">
                                <img src=""images/gray_16.png"" style= ""width:200px""alt=""img"">
                            </div>
                        </div>","-47","","0","images/gray_16.png","","","","trustworthy"
"","","","","","html-slider-response","69","22013538","0.0-65.0","8u7uf5e0k8","NaN","<div style=""width:500px;"">
                            <p style=""font-size:50px; font-weight:bold;""
                            >trustworthy</p>
                            <div style=""width:240px; margin: auto;"">
                                <img src=""images/gray_44.png"" style= ""width:200px""alt=""img"">
                            </div>
                        </div>","-151","","0","images/gray_44.png","","","","trustworthy"
"","","","","","html-slider-response","70","22015731","0.0-66.0","8u7uf5e0k8","NaN","<div style=""width:500px;"">
                            <p style=""font-size:50px; font-weight:bold;""
                            >trustworthy</p>
                            <div style=""width:240px; margin: auto;"">
                                <img src=""images/gray_15.png"" style= ""width:200px""alt=""img"">
                            </div>
                        </div>","-128","","0","images/gray_15.png","","","","trustworthy"
"","","","","","html-slider-response","71","22017537","0.0-67.0","8u7uf5e0k8","NaN","<div style=""width:500px;"">
                            <p style=""font-size:50px; font-weight:bold;""
                            >trustworthy</p>
                            <div style=""width:240px; margin: auto;"">
                                <img src=""images/gray_23.png"" style= ""width:200px""alt=""img"">
                            </div>
                        </div>","-49","","0","images/gray_23.png","","","","trustworthy"
"","","","","","html-slider-response","72","22019571","0.0-68.0","8u7uf5e0k8","NaN","<div style=""width:500px;"">
                            <p style=""font-size:50px; font-weight:bold;""
                            >trustworthy</p>
                            <div style=""width:240px; margin: auto;"">
                                <img src=""images/gray_34.png"" style= ""width:200px""alt=""img"">
                            </div>
                        </div>","-118","","0","images/gray_34.png","","","","trustworthy"
"","","","","","html-slider-response","73","22021611","0.0-69.0","8u7uf5e0k8","NaN","<div style=""width:500px;"">
                            <p style=""font-size:50px; font-weight:bold;""
                            >trustworthy</p>
                            <div style=""width:240px; margin: auto;"">
                                <img src=""images/gray_03.png"" style= ""width:200px""alt=""img"">
                            </div>
                        </div>","-43","","0","images/gray_03.png","","","","trustworthy"
"","","","","","html-slider-response","74","22024152","0.0-70.0","8u7uf5e0k8","NaN","<div style=""width:500px;"">
                            <p style=""font-size:50px; font-weight:bold;""
                            >trustworthy</p>
                            <div style=""width:240px; margin: auto;"">
                                <img src=""images/gray_36.png"" style= ""width:200px""alt=""img"">
                            </div>
                        </div>","163","","0","images/gray_36.png","","","","trustworthy"
"","","","","","html-slider-response","75","22025805","0.0-71.0","8u7uf5e0k8","NaN","<div style=""width:500px;"">
                            <p style=""font-size:50px; font-weight:bold;""
                            >trustworthy</p>
                            <div style=""width:240px; margin: auto;"">
                                <img src=""images/gray_07.png"" style= ""width:200px""alt=""img"">
                            </div>
                        </div>","-200","","0","images/gray_07.png","","","","trustworthy"
"","","","","","html-slider-response","76","22027375","0.0-72.0","8u7uf5e0k8","NaN","<div style=""width:500px;"">
                            <p style=""font-size:50px; font-weight:bold;""
                            >trustworthy</p>
                            <div style=""width:240px; margin: auto;"">
                                <img src=""images/gray_28.png"" style= ""width:200px""alt=""img"">
                            </div>
                        </div>","-200","","0","images/gray_28.png","","","","trustworthy"
"","","","","","html-slider-response","77","22029184","0.0-73.0","8u7uf5e0k8","NaN","<div style=""width:500px;"">
                            <p style=""font-size:50px; font-weight:bold;""
                            >trustworthy</p>
                            <div style=""width:240px; margin: auto;"">
                                <img src=""images/gray_20.png"" style= ""width:200px""alt=""img"">
                            </div>
                        </div>","-111","","0","images/gray_20.png","","","","trustworthy"
"","","","","","html-slider-response","78","22030773","0.0-74.0","8u7uf5e0k8","NaN","<div style=""width:500px;"">
                            <p style=""font-size:50px; font-weight:bold;""
                            >trustworthy</p>
                            <div style=""width:240px; margin: auto;"">
                                <img src=""images/gray_32.png"" style= ""width:200px""alt=""img"">
                            </div>
                        </div>","-62","","0","images/gray_32.png","","","","trustworthy"
"","","","","","html-slider-response","79","22032381","0.0-75.0","8u7uf5e0k8","NaN","<div style=""width:500px;"">
                            <p style=""font-size:50px; font-weight:bold;""
                            >trustworthy</p>
                            <div style=""width:240px; margin: auto;"">
                                <img src=""images/gray_39.png"" style= ""width:200px""alt=""img"">
                            </div>
                        </div>","-82","","0","images/gray_39.png","","","","trustworthy"
"","","","","","html-slider-response","80","22034590","0.0-76.0","8u7uf5e0k8","NaN","<div style=""width:500px;"">
                            <p style=""font-size:50px; font-weight:bold;""
                            >trustworthy</p>
                            <div style=""width:240px; margin: auto;"">
                                <img src=""images/gray_10.png"" style= ""width:200px""alt=""img"">
                            </div>
                        </div>","-144","","0","images/gray_10.png","","","","trustworthy"
"","","","","","html-slider-response","81","22036371","0.0-77.0","8u7uf5e0k8","NaN","<div style=""width:500px;"">
                            <p style=""font-size:50px; font-weight:bold;""
                            >trustworthy</p>
                            <div style=""width:240px; margin: auto;"">
                                <img src=""images/gray_12.png"" style= ""width:200px""alt=""img"">
                            </div>
                        </div>","-117","","0","images/gray_12.png","","","","trustworthy"
"","","","","","html-slider-response","82","22038061","0.0-78.0","8u7uf5e0k8","NaN","<div style=""width:500px;"">
                            <p style=""font-size:50px; font-weight:bold;""
                            >trustworthy</p>
                            <div style=""width:240px; margin: auto;"">
                                <img src=""images/gray_40.png"" style= ""width:200px""alt=""img"">
                            </div>
                        </div>","-86","","0","images/gray_40.png","","","","trustworthy"
"","","","","","html-slider-response","83","22040338","0.0-79.0","8u7uf5e0k8","NaN","<div style=""width:500px;"">
                            <p style=""font-size:50px; font-weight:bold;""
                            >trustworthy</p>
                            <div style=""width:240px; margin: auto;"">
                                <img src=""images/gray_27.png"" style= ""width:200px""alt=""img"">
                            </div>
                        </div>","-170","","0","images/gray_27.png","","","","trustworthy"
"","","","","","html-slider-response","84","22042437","0.0-80.0","8u7uf5e0k8","NaN","<div style=""width:500px;"">
                            <p style=""font-size:50px; font-weight:bold;""
                            >trustworthy</p>
                            <div style=""width:240px; margin: auto;"">
                                <img src=""images/gray_02.png"" style= ""width:200px""alt=""img"">
                            </div>
                        </div>","-163","","0","images/gray_02.png","","","","trustworthy"
"","","","","","html-slider-response","85","22044533","0.0-81.0","8u7uf5e0k8","NaN","<div style=""width:500px;"">
                            <p style=""font-size:50px; font-weight:bold;""
                            >trustworthy</p>
                            <div style=""width:240px; margin: auto;"">
                                <img src=""images/gray_01.png"" style= ""width:200px""alt=""img"">
                            </div>
                        </div>","-152","","0","images/gray_01.png","","","","trustworthy"
"","","","","","html-slider-response","86","22046825","0.0-82.0","8u7uf5e0k8","NaN","<div style=""width:500px;"">
                            <p style=""font-size:50px; font-weight:bold;""
                            >trustworthy</p>
                            <div style=""width:240px; margin: auto;"">
                                <img src=""images/gray_33.png"" style= ""width:200px""alt=""img"">
                            </div>
                        </div>","-154","","0","images/gray_33.png","","","","trustworthy"
"","","","","","html-slider-response","87","22048713","0.0-83.0","8u7uf5e0k8","NaN","<div style=""width:500px;"">
                            <p style=""font-size:50px; font-weight:bold;""
                            >trustworthy</p>
                            <div style=""width:240px; margin: auto;"">
                                <img src=""images/gray_06.png"" style= ""width:200px""alt=""img"">
                            </div>
                        </div>","-170","","0","images/gray_06.png","","","","trustworthy"
"","","","","","html-slider-response","88","22051047","0.0-84.0","8u7uf5e0k8","NaN","<div style=""width:500px;"">
                            <p style=""font-size:50px; font-weight:bold;""
                            >trustworthy</p>
                            <div style=""width:240px; margin: auto;"">
                                <img src=""images/gray_22.png"" style= ""width:200px""alt=""img"">
                            </div>
                        </div>","-166","","0","images/gray_22.png","","","","trustworthy"
"","","","","","html-slider-response","89","22053251","0.0-85.0","8u7uf5e0k8","NaN","<div style=""width:500px;"">
                            <p style=""font-size:50px; font-weight:bold;""
                            >trustworthy</p>
                            <div style=""width:240px; margin: auto;"">
                                <img src=""images/gray_38.png"" style= ""width:200px""alt=""img"">
                            </div>
                        </div>","-151","","0","images/gray_38.png","","","","trustworthy"
"","","","","","html-slider-response","90","22055255","0.0-86.0","8u7uf5e0k8","NaN","<div style=""width:500px;"">
                            <p style=""font-size:50px; font-weight:bold;""
                            >trustworthy</p>
                            <div style=""width:240px; margin: auto;"">
                                <img src=""images/gray_09.png"" style= ""width:200px""alt=""img"">
                            </div>
                        </div>","-161","","0","images/gray_09.png","","","","trustworthy"
"","","","","","html-slider-response","91","22057780","0.0-87.0","8u7uf5e0k8","NaN","<div style=""width:500px;"">
                            <p style=""font-size:50px; font-weight:bold;""
                            >trustworthy</p>
                            <div style=""width:240px; margin: auto;"">
                                <img src=""images/gray_25.png"" style= ""width:200px""alt=""img"">
                            </div>
                        </div>","-157","","0","images/gray_25.png","","","","trustworthy"
"","","","","","html-slider-response","92","22060264","0.0-88.0","8u7uf5e0k8","NaN","<div style=""width:500px;"">
                            <p style=""font-size:50px; font-weight:bold;""
                            >trustworthy</p>
                            <div style=""width:240px; margin: auto;"">
                                <img src=""images/gray_11.png"" style= ""width:200px""alt=""img"">
                            </div>
                        </div>","-163","","0","images/gray_11.png","","","","trustworthy"
"","","","","","html-slider-response","93","22062115","0.0-89.0","8u7uf5e0k8","NaN","<div style=""width:500px;"">
                            <p style=""font-size:50px; font-weight:bold;""
                            >trustworthy</p>
                            <div style=""width:240px; margin: auto;"">
                                <img src=""images/gray_05.png"" style= ""width:200px""alt=""img"">
                            </div>
                        </div>","-154","","0","images/gray_05.png","","","","trustworthy"
"","","","","","html-slider-response","94","22064638","0.0-90.0","8u7uf5e0k8","NaN","<div style=""width:500px;"">
                            <p style=""font-size:50px; font-weight:bold;""
                            >trustworthy</p>
                            <div style=""width:240px; margin: auto;"">
                                <img src=""images/gray_26.png"" style= ""width:200px""alt=""img"">
                            </div>
                        </div>","-160","","0","images/gray_26.png","","","","trustworthy"
"","","","","","html-slider-response","95","22066949","0.0-91.0","8u7uf5e0k8","NaN","<div style=""width:500px;"">
                            <p style=""font-size:50px; font-weight:bold;""
                            >trustworthy</p>
                            <div style=""width:240px; margin: auto;"">
                                <img src=""images/gray_18.png"" style= ""width:200px""alt=""img"">
                            </div>
                        </div>","-158","","0","images/gray_18.png","","","","trustworthy"
"","","","","","html-slider-response","96","22069392","0.0-92.0","8u7uf5e0k8","NaN","<div style=""width:500px;"">
                            <p style=""font-size:50px; font-weight:bold;""
                            >trustworthy</p>
                            <div style=""width:240px; margin: auto;"">
                                <img src=""images/gray_19.png"" style= ""width:200px""alt=""img"">
                            </div>
                        </div>","-154","","0","images/gray_19.png","","","","trustworthy"
"","","","","","html-slider-response","97","22071647","0.0-93.0","8u7uf5e0k8","NaN","<div style=""width:500px;"">
                            <p style=""font-size:50px; font-weight:bold;""
                            >trustworthy</p>
                            <div style=""width:240px; margin: auto;"">
                                <img src=""images/gray_37.png"" style= ""width:200px""alt=""img"">
                            </div>
                        </div>","-139","","0","images/gray_37.png","","","","trustworthy"
"","","","","","html-slider-response","98","22073330","0.0-94.0","8u7uf5e0k8","NaN","<div style=""width:500px;"">
                            <p style=""font-size:50px; font-weight:bold;""
                            >trustworthy</p>
                            <div style=""width:240px; margin: auto;"">
                                <img src=""images/gray_04.png"" style= ""width:200px""alt=""img"">
                            </div>
                        </div>","-20","","0","images/gray_04.png","","","","trustworthy"
"","","","","","html-slider-response","99","22075249","0.0-95.0","8u7uf5e0k8","NaN","<div style=""width:500px;"">
                            <p style=""font-size:50px; font-weight:bold;""
                            >trustworthy</p>
                            <div style=""width:240px; margin: auto;"">
                                <img src=""images/gray_41.png"" style= ""width:200px""alt=""img"">
                            </div>
                        </div>","-49","","0","images/gray_41.png","","","","trustworthy"
"","","","","","html-slider-response","100","22077079","0.0-96.0","8u7uf5e0k8","NaN","<div style=""width:500px;"">
                            <p style=""font-size:50px; font-weight:bold;""
                            >trustworthy</p>
                            <div style=""width:240px; margin: auto;"">
                                <img src=""images/gray_43.png"" style= ""width:200px""alt=""img"">
                            </div>
                        </div>","-78","","0","images/gray_43.png","","","","trustworthy"
"","","","","","html-slider-response","101","22079054","0.0-97.0","8u7uf5e0k8","NaN","<div style=""width:500px;"">
                            <p style=""font-size:50px; font-weight:bold;""
                            >trustworthy</p>
                            <div style=""width:240px; margin: auto;"">
                                <img src=""images/gray_30.png"" style= ""width:200px""alt=""img"">
                            </div>
                        </div>","-182","","0","images/gray_30.png","","","","trustworthy"
"","","","","","html-slider-response","102","22081268","0.0-98.0","8u7uf5e0k8","NaN","<div style=""width:500px;"">
                            <p style=""font-size:50px; font-weight:bold;""
                            >trustworthy</p>
                            <div style=""width:240px; margin: auto;"">
                                <img src=""images/gray_17.png"" style= ""width:200px""alt=""img"">
                            </div>
                        </div>","-174","","0","images/gray_17.png","","","","trustworthy"
"","","","","","html-slider-response","103","22083216","0.0-99.0","8u7uf5e0k8","NaN","<div style=""width:500px;"">
                            <p style=""font-size:50px; font-weight:bold;""
                            >trustworthy</p>
                            <div style=""width:240px; margin: auto;"">
                                <img src=""images/gray_42.png"" style= ""width:200px""alt=""img"">
                            </div>
                        </div>","-164","","0","images/gray_42.png","","","","trustworthy"
"","","","","","html-slider-response","104","22085221","0.0-100.0","8u7uf5e0k8","NaN","<div style=""width:500px;"">
                            <p style=""font-size:50px; font-weight:bold;""
                            >trustworthy</p>
                            <div style=""width:240px; margin: auto;"">
                                <img src=""images/gray_08.png"" style= ""width:200px""alt=""img"">
                            </div>
                        </div>","-154","","0","images/gray_08.png","","","","trustworthy"
"","","","","","html-slider-response","105","22087278","0.0-101.0","8u7uf5e0k8","NaN","<div style=""width:500px;"">
                            <p style=""font-size:50px; font-weight:bold;""
                            >trustworthy</p>
                            <div style=""width:240px; margin: auto;"">
                                <img src=""images/gray_31.png"" style= ""width:200px""alt=""img"">
                            </div>
                        </div>","130","","0","images/gray_31.png","","","","trustworthy"
"","","","","","html-slider-response","106","22089591","0.0-102.0","8u7uf5e0k8","NaN","<div style=""width:500px;"">
                            <p style=""font-size:50px; font-weight:bold;""
                            >trustworthy</p>
                            <div style=""width:240px; margin: auto;"">
                                <img src=""images/gray_35.png"" style= ""width:200px""alt=""img"">
                            </div>
                        </div>","-139","","0","images/gray_35.png","","","","trustworthy"
"","","","","","html-slider-response","107","22092989","0.0-103.0","8u7uf5e0k8","NaN","<div style=""width:500px;"">
                            <p style=""font-size:50px; font-weight:bold;""
                            >trustworthy</p>
                            <div style=""width:240px; margin: auto;"">
                                <img src=""images/gray_13.png"" style= ""width:200px""alt=""img"">
                            </div>
                        </div>","-92","","0","images/gray_13.png","","","","trustworthy"
"","","","","","html-button-response","108","22094272","0.0-104.0","8u7uf5e0k8","778","<p>Great Job! You've finished block 2.<br></br> You have 6 block(s) left to go.<br></br></p>","0","","","","","","",""
"","","","","","html-button-response","109","22095198","0.0-105.0","8u7uf5e0k8","925","<p>In this block of trials, you will be asked to rate how much you associate each map with:</p > <p style = 'font-size:150%; font-weight: bold'>playful</p><br></br>","0","","","","","","",""
"","","","","","html-slider-response","110","22097240","0.0-106.0","8u7uf5e0k8","NaN","<div style=""width:500px;"">
                            <p style=""font-size:50px; font-weight:bold;""
                            >playful</p>
                            <div style=""width:240px; margin: auto;"">
                                <img src=""images/gray_23.png"" style= ""width:200px""alt=""img"">
                            </div>
                        </div>","28","","0","images/gray_23.png","","","","playful"
"","","","","","html-slider-response","111","22099682","0.0-107.0","8u7uf5e0k8","NaN","<div style=""width:500px;"">
                            <p style=""font-size:50px; font-weight:bold;""
                            >playful</p>
                            <div style=""width:240px; margin: auto;"">
                                <img src=""images/gray_39.png"" style= ""width:200px""alt=""img"">
                            </div>
                        </div>","-30","","0","images/gray_39.png","","","","playful"
"","","","","","html-slider-response","112","22101571","0.0-108.0","8u7uf5e0k8","NaN","<div style=""width:500px;"">
                            <p style=""font-size:50px; font-weight:bold;""
                            >playful</p>
                            <div style=""width:240px; margin: auto;"">
                                <img src=""images/gray_44.png"" style= ""width:200px""alt=""img"">
                            </div>
                        </div>","77","","0","images/gray_44.png","","","","playful"
"","","","","","html-slider-response","113","22103310","0.0-109.0","8u7uf5e0k8","NaN","<div style=""width:500px;"">
                            <p style=""font-size:50px; font-weight:bold;""
                            >playful</p>
                            <div style=""width:240px; margin: auto;"">
                                <img src=""images/gray_33.png"" style= ""width:200px""alt=""img"">
                            </div>
                        </div>","97","","0","images/gray_33.png","","","","playful"
"","","","","","html-slider-response","114","22104987","0.0-110.0","8u7uf5e0k8","NaN","<div style=""width:500px;"">
                            <p style=""font-size:50px; font-weight:bold;""
                            >playful</p>
                            <div style=""width:240px; margin: auto;"">
                                <img src=""images/gray_28.png"" style= ""width:200px""alt=""img"">
                            </div>
                        </div>","138","","0","images/gray_28.png","","","","playful"
"","","","","","html-slider-response","115","22106890","0.0-111.0","8u7uf5e0k8","NaN","<div style=""width:500px;"">
                            <p style=""font-size:50px; font-weight:bold;""
                            >playful</p>
                            <div style=""width:240px; margin: auto;"">
                                <img src=""images/gray_08.png"" style= ""width:200px""alt=""img"">
                            </div>
                        </div>","164","","0","images/gray_08.png","","","","playful"
"","","","","","html-slider-response","116","22108806","0.0-112.0","8u7uf5e0k8","NaN","<div style=""width:500px;"">
                            <p style=""font-size:50px; font-weight:bold;""
                            >playful</p>
                            <div style=""width:240px; margin: auto;"">
                                <img src=""images/gray_37.png"" style= ""width:200px""alt=""img"">
                            </div>
                        </div>","174","","0","images/gray_37.png","","","","playful"
"","","","","","html-slider-response","117","22110821","0.0-113.0","8u7uf5e0k8","NaN","<div style=""width:500px;"">
                            <p style=""font-size:50px; font-weight:bold;""
                            >playful</p>
                            <div style=""width:240px; margin: auto;"">
                                <img src=""images/gray_30.png"" style= ""width:200px""alt=""img"">
                            </div>
                        </div>","200","","0","images/gray_30.png","","","","playful"
"","","","","","html-slider-response","118","22112576","0.0-114.0","8u7uf5e0k8","NaN","<div style=""width:500px;"">
                            <p style=""font-size:50px; font-weight:bold;""
                            >playful</p>
                            <div style=""width:240px; margin: auto;"">
                                <img src=""images/gray_40.png"" style= ""width:200px""alt=""img"">
                            </div>
                        </div>","34","","0","images/gray_40.png","","","","playful"
"","","","","","html-slider-response","119","22114578","0.0-115.0","8u7uf5e0k8","NaN","<div style=""width:500px;"">
                            <p style=""font-size:50px; font-weight:bold;""
                            >playful</p>
                            <div style=""width:240px; margin: auto;"">
                                <img src=""images/gray_31.png"" style= ""width:200px""alt=""img"">
                            </div>
                        </div>","-169","","0","images/gray_31.png","","","","playful"
"","","","","","html-slider-response","120","22116501","0.0-116.0","8u7uf5e0k8","NaN","<div style=""width:500px;"">
                            <p style=""font-size:50px; font-weight:bold;""
                            >playful</p>
                            <div style=""width:240px; margin: auto;"">
                                <img src=""images/gray_21.png"" style= ""width:200px""alt=""img"">
                            </div>
                        </div>","-139","","0","images/gray_21.png","","","","playful"
"","","","","","html-slider-response","121","22118300","0.0-117.0","8u7uf5e0k8","NaN","<div style=""width:500px;"">
                            <p style=""font-size:50px; font-weight:bold;""
                            >playful</p>
                            <div style=""width:240px; margin: auto;"">
                                <img src=""images/gray_43.png"" style= ""width:200px""alt=""img"">
                            </div>
                        </div>","37","","0","images/gray_43.png","","","","playful"
"","","","","","html-slider-response","122","22120322","0.0-118.0","8u7uf5e0k8","NaN","<div style=""width:500px;"">
                            <p style=""font-size:50px; font-weight:bold;""
                            >playful</p>
                            <div style=""width:240px; margin: auto;"">
                                <img src=""images/gray_12.png"" style= ""width:200px""alt=""img"">
                            </div>
                        </div>","90","","0","images/gray_12.png","","","","playful"
"","","","","","html-slider-response","123","22122190","0.0-119.0","8u7uf5e0k8","NaN","<div style=""width:500px;"">
                            <p style=""font-size:50px; font-weight:bold;""
                            >playful</p>
                            <div style=""width:240px; margin: auto;"">
                                <img src=""images/gray_13.png"" style= ""width:200px""alt=""img"">
                            </div>
                        </div>","121","","0","images/gray_13.png","","","","playful"
"","","","","","html-slider-response","124","22123918","0.0-120.0","8u7uf5e0k8","NaN","<div style=""width:500px;"">
                            <p style=""font-size:50px; font-weight:bold;""
                            >playful</p>
                            <div style=""width:240px; margin: auto;"">
                                <img src=""images/gray_41.png"" style= ""width:200px""alt=""img"">
                            </div>
                        </div>","69","","0","images/gray_41.png","","","","playful"
"","","","","","html-slider-response","125","22125317","0.0-121.0","8u7uf5e0k8","NaN","<div style=""width:500px;"">
                            <p style=""font-size:50px; font-weight:bold;""
                            >playful</p>
                            <div style=""width:240px; margin: auto;"">
                                <img src=""images/gray_42.png"" style= ""width:200px""alt=""img"">
                            </div>
                        </div>","41","","0","images/gray_42.png","","","","playful"
"","","","","","html-slider-response","126","22126745","0.0-122.0","8u7uf5e0k8","NaN","<div style=""width:500px;"">
                            <p style=""font-size:50px; font-weight:bold;""
                            >playful</p>
                            <div style=""width:240px; margin: auto;"">
                                <img src=""images/gray_32.png"" style= ""width:200px""alt=""img"">
                            </div>
                        </div>","95","","0","images/gray_32.png","","","","playful"
"","","","","","html-slider-response","127","22128791","0.0-123.0","8u7uf5e0k8","NaN","<div style=""width:500px;"">
                            <p style=""font-size:50px; font-weight:bold;""
                            >playful</p>
                            <div style=""width:240px; margin: auto;"">
                                <img src=""images/gray_36.png"" style= ""width:200px""alt=""img"">
                            </div>
                        </div>","-82","","0","images/gray_36.png","","","","playful"
"","","","","","html-slider-response","128","22130205","0.0-124.0","8u7uf5e0k8","NaN","<div style=""width:500px;"">
                            <p style=""font-size:50px; font-weight:bold;""
                            >playful</p>
                            <div style=""width:240px; margin: auto;"">
                                <img src=""images/gray_15.png"" style= ""width:200px""alt=""img"">
                            </div>
                        </div>","27","","0","images/gray_15.png","","","","playful"
"","","","","","html-slider-response","129","22131988","0.0-125.0","8u7uf5e0k8","NaN","<div style=""width:500px;"">
                            <p style=""font-size:50px; font-weight:bold;""
                            >playful</p>
                            <div style=""width:240px; margin: auto;"">
                                <img src=""images/gray_26.png"" style= ""width:200px""alt=""img"">
                            </div>
                        </div>","54","","0","images/gray_26.png","","","","playful"
"","","","","","html-slider-response","130","22133698","0.0-126.0","8u7uf5e0k8","NaN","<div style=""width:500px;"">
                            <p style=""font-size:50px; font-weight:bold;""
                            >playful</p>
                            <div style=""width:240px; margin: auto;"">
                                <img src=""images/gray_25.png"" style= ""width:200px""alt=""img"">
                            </div>
                        </div>","98","","0","images/gray_25.png","","","","playful"
"","","","","","html-slider-response","131","22135322","0.0-127.0","8u7uf5e0k8","NaN","<div style=""width:500px;"">
                            <p style=""font-size:50px; font-weight:bold;""
                            >playful</p>
                            <div style=""width:240px; margin: auto;"">
                                <img src=""images/gray_34.png"" style= ""width:200px""alt=""img"">
                            </div>
                        </div>","43","","0","images/gray_34.png","","","","playful"
"","","","","","html-slider-response","132","22136983","0.0-128.0","8u7uf5e0k8","NaN","<div style=""width:500px;"">
                            <p style=""font-size:50px; font-weight:bold;""
                            >playful</p>
                            <div style=""width:240px; margin: auto;"">
                                <img src=""images/gray_02.png"" style= ""width:200px""alt=""img"">
                            </div>
                        </div>","81","","0","images/gray_02.png","","","","playful"
"","","","","","html-slider-response","133","22138517","0.0-129.0","8u7uf5e0k8","NaN","<div style=""width:500px;"">
                            <p style=""font-size:50px; font-weight:bold;""
                            >playful</p>
                            <div style=""width:240px; margin: auto;"">
                                <img src=""images/gray_09.png"" style= ""width:200px""alt=""img"">
                            </div>
                        </div>","79","","0","images/gray_09.png","","","","playful"
"","","","","","html-slider-response","134","22140189","0.0-130.0","8u7uf5e0k8","NaN","<div style=""width:500px;"">
                            <p style=""font-size:50px; font-weight:bold;""
                            >playful</p>
                            <div style=""width:240px; margin: auto;"">
                                <img src=""images/gray_05.png"" style= ""width:200px""alt=""img"">
                            </div>
                        </div>","115","","0","images/gray_05.png","","","","playful"
"","","","","","html-slider-response","135","22142030","0.0-131.0","8u7uf5e0k8","NaN","<div style=""width:500px;"">
                            <p style=""font-size:50px; font-weight:bold;""
                            >playful</p>
                            <div style=""width:240px; margin: auto;"">
                                <img src=""images/gray_24.png"" style= ""width:200px""alt=""img"">
                            </div>
                        </div>","143","","0","images/gray_24.png","","","","playful"
"","","","","","html-slider-response","136","22143556","0.0-132.0","8u7uf5e0k8","NaN","<div style=""width:500px;"">
                            <p style=""font-size:50px; font-weight:bold;""
                            >playful</p>
                            <div style=""width:240px; margin: auto;"">
                                <img src=""images/gray_04.png"" style= ""width:200px""alt=""img"">
                            </div>
                        </div>","62","","0","images/gray_04.png","","","","playful"
"","","","","","html-slider-response","137","22145224","0.0-133.0","8u7uf5e0k8","NaN","<div style=""width:500px;"">
                            <p style=""font-size:50px; font-weight:bold;""
                            >playful</p>
                            <div style=""width:240px; margin: auto;"">
                                <img src=""images/gray_18.png"" style= ""width:200px""alt=""img"">
                            </div>
                        </div>","162","","0","images/gray_18.png","","","","playful"
"","","","","","html-slider-response","138","22147066","0.0-134.0","8u7uf5e0k8","NaN","<div style=""width:500px;"">
                            <p style=""font-size:50px; font-weight:bold;""
                            >playful</p>
                            <div style=""width:240px; margin: auto;"">
                                <img src=""images/gray_17.png"" style= ""width:200px""alt=""img"">
                            </div>
                        </div>","154","","0","images/gray_17.png","","","","playful"
"","","","","","html-slider-response","139","22149343","0.0-135.0","8u7uf5e0k8","NaN","<div style=""width:500px;"">
                            <p style=""font-size:50px; font-weight:bold;""
                            >playful</p>
                            <div style=""width:240px; margin: auto;"">
                                <img src=""images/gray_29.png"" style= ""width:200px""alt=""img"">
                            </div>
                        </div>","-59","","0","images/gray_29.png","","","","playful"
"","","","","","html-slider-response","140","22154938","0.0-136.0","8u7uf5e0k8","NaN","<div style=""width:500px;"">
                            <p style=""font-size:50px; font-weight:bold;""
                            >playful</p>
                            <div style=""width:240px; margin: auto;"">
                                <img src=""images/gray_01.png"" style= ""width:200px""alt=""img"">
                            </div>
                        </div>","-58","","0","images/gray_01.png","","","","playful"
"","","","","","html-slider-response","141","22156529","0.0-137.0","8u7uf5e0k8","NaN","<div style=""width:500px;"">
                            <p style=""font-size:50px; font-weight:bold;""
                            >playful</p>
                            <div style=""width:240px; margin: auto;"">
                                <img src=""images/gray_22.png"" style= ""width:200px""alt=""img"">
                            </div>
                        </div>","-34","","0","images/gray_22.png","","","","playful"
"","","","","","html-slider-response","142","22160671","0.0-138.0","8u7uf5e0k8","NaN","<div style=""width:500px;"">
                            <p style=""font-size:50px; font-weight:bold;""
                            >playful</p>
                            <div style=""width:240px; margin: auto;"">
                                <img src=""images/gray_10.png"" style= ""width:200px""alt=""img"">
                            </div>
                        </div>","-98","","0","images/gray_10.png","","","","playful"
"","","","","","html-slider-response","143","22219771","0.0-139.0","8u7uf5e0k8","NaN","<div style=""width:500px;"">
                            <p style=""font-size:50px; font-weight:bold;""
                            >playful</p>
                            <div style=""width:240px; margin: auto;"">
                                <img src=""images/gray_38.png"" style= ""width:200px""alt=""img"">
                            </div>
                        </div>","-40","","0","images/gray_38.png","","","","playful"
"","","","","","html-slider-response","144","22276481","0.0-140.0","8u7uf5e0k8","NaN","<div style=""width:500px;"">
                            <p style=""font-size:50px; font-weight:bold;""
                            >playful</p>
                            <div style=""width:240px; margin: auto;"">
                                <img src=""images/gray_07.png"" style= ""width:200px""alt=""img"">
                            </div>
                        </div>","70","","0","images/gray_07.png","","","","playful"
"","","","","","html-slider-response","145","22279092","0.0-141.0","8u7uf5e0k8","NaN","<div style=""width:500px;"">
                            <p style=""font-size:50px; font-weight:bold;""
                            >playful</p>
                            <div style=""width:240px; margin: auto;"">
                                <img src=""images/gray_20.png"" style= ""width:200px""alt=""img"">
                            </div>
                        </div>","138","","0","images/gray_20.png","","","","playful"
"","","","","","html-slider-response","146","22284638","0.0-142.0","8u7uf5e0k8","NaN","<div style=""width:500px;"">
                            <p style=""font-size:50px; font-weight:bold;""
                            >playful</p>
                            <div style=""width:240px; margin: auto;"">
                                <img src=""images/gray_16.png"" style= ""width:200px""alt=""img"">
                            </div>
                        </div>","-30","","0","images/gray_16.png","","","","playful"
"","","","","","html-slider-response","147","22287494","0.0-143.0","8u7uf5e0k8","NaN","<div style=""width:500px;"">
                            <p style=""font-size:50px; font-weight:bold;""
                            >playful</p>
                            <div style=""width:240px; margin: auto;"">
                                <img src=""images/gray_06.png"" style= ""width:200px""alt=""img"">
                            </div>
                        </div>","-101","","0","images/gray_06.png","","","","playful"
"","","","","","html-slider-response","148","22289054","0.0-144.0","8u7uf5e0k8","NaN","<div style=""width:500px;"">
                            <p style=""font-size:50px; font-weight:bold;""
                            >playful</p>
                            <div style=""width:240px; margin: auto;"">
                                <img src=""images/gray_35.png"" style= ""width:200px""alt=""img"">
                            </div>
                        </div>","110","","0","images/gray_35.png","","","","playful"
"","","","","","html-slider-response","149","22290638","0.0-145.0","8u7uf5e0k8","NaN","<div style=""width:500px;"">
                            <p style=""font-size:50px; font-weight:bold;""
                            >playful</p>
                            <div style=""width:240px; margin: auto;"">
                                <img src=""images/gray_27.png"" style= ""width:200px""alt=""img"">
                            </div>
                        </div>","137","","0","images/gray_27.png","","","","playful"
"","","","","","html-slider-response","150","22292094","0.0-146.0","8u7uf5e0k8","NaN","<div style=""width:500px;"">
                            <p style=""font-size:50px; font-weight:bold;""
                            >playful</p>
                            <div style=""width:240px; margin: auto;"">
                                <img src=""images/gray_11.png"" style= ""width:200px""alt=""img"">
                            </div>
                        </div>","66","","0","images/gray_11.png","","","","playful"
"","","","","","html-slider-response","151","22293501","0.0-147.0","8u7uf5e0k8","NaN","<div style=""width:500px;"">
                            <p style=""font-size:50px; font-weight:bold;""
                            >playful</p>
                            <div style=""width:240px; margin: auto;"">
                                <img src=""images/gray_03.png"" style= ""width:200px""alt=""img"">
                            </div>
                        </div>","110","","0","images/gray_03.png","","","","playful"
"","","","","","html-slider-response","152","22295606","0.0-148.0","8u7uf5e0k8","NaN","<div style=""width:500px;"">
                            <p style=""font-size:50px; font-weight:bold;""
                            >playful</p>
                            <div style=""width:240px; margin: auto;"">
                                <img src=""images/gray_19.png"" style= ""width:200px""alt=""img"">
                            </div>
                        </div>","-56","","0","images/gray_19.png","","","","playful"
"","","","","","html-slider-response","153","22297627","0.0-149.0","8u7uf5e0k8","NaN","<div style=""width:500px;"">
                            <p style=""font-size:50px; font-weight:bold;""
                            >playful</p>
                            <div style=""width:240px; margin: auto;"">
                                <img src=""images/gray_14.png"" style= ""width:200px""alt=""img"">
                            </div>
                        </div>","-95","","0","images/gray_14.png","","","","playful"
"","","","","","html-button-response","154","22298995","0.0-150.0","8u7uf5e0k8","867","<p>Great Job! You've finished block 3.<br></br> You have 5 block(s) left to go.<br></br></p>","0","","","","","","",""
"","","","","","html-button-response","155","22299700","0.0-151.0","8u7uf5e0k8","704","<p>In this block of trials, you will be asked to rate how much you associate each map with:</p > <p style = 'font-size:150%; font-weight: bold'>positive</p><br></br>","0","","","","","","",""
"","","","","","html-slider-response","156","22301749","0.0-152.0","8u7uf5e0k8","NaN","<div style=""width:500px;"">
                            <p style=""font-size:50px; font-weight:bold;""
                            >positive</p>
                            <div style=""width:240px; margin: auto;"">
                                <img src=""images/gray_03.png"" style= ""width:200px""alt=""img"">
                            </div>
                        </div>","-50","","0","images/gray_03.png","","","","positive"
"","","","","","html-slider-response","157","22303433","0.0-153.0","8u7uf5e0k8","NaN","<div style=""width:500px;"">
                            <p style=""font-size:50px; font-weight:bold;""
                            >positive</p>
                            <div style=""width:240px; margin: auto;"">
                                <img src=""images/gray_12.png"" style= ""width:200px""alt=""img"">
                            </div>
                        </div>","-200","","0","images/gray_12.png","","","","positive"
"","","","","","html-slider-response","158","22305123","0.0-154.0","8u7uf5e0k8","NaN","<div style=""width:500px;"">
                            <p style=""font-size:50px; font-weight:bold;""
                            >positive</p>
                            <div style=""width:240px; margin: auto;"">
                                <img src=""images/gray_35.png"" style= ""width:200px""alt=""img"">
                            </div>
                        </div>","-106","","0","images/gray_35.png","","","","positive"
"","","","","","html-slider-response","159","22307619","0.0-155.0","8u7uf5e0k8","NaN","<div style=""width:500px;"">
                            <p style=""font-size:50px; font-weight:bold;""
                            >positive</p>
                            <div style=""width:240px; margin: auto;"">
                                <img src=""images/gray_27.png"" style= ""width:200px""alt=""img"">
                            </div>
                        </div>","-39","","0","images/gray_27.png","","","","positive"
"","","","","","html-slider-response","160","22309163","0.0-156.0","8u7uf5e0k8","NaN","<div style=""width:500px;"">
                            <p style=""font-size:50px; font-weight:bold;""
                            >positive</p>
                            <div style=""width:240px; margin: auto;"">
                                <img src=""images/gray_01.png"" style= ""width:200px""alt=""img"">
                            </div>
                        </div>","-124","","0","images/gray_01.png","","","","positive"
"","","","","","html-slider-response","161","22310667","0.0-157.0","8u7uf5e0k8","NaN","<div style=""width:500px;"">
                            <p style=""font-size:50px; font-weight:bold;""
                            >positive</p>
                            <div style=""width:240px; margin: auto;"">
                                <img src=""images/gray_36.png"" style= ""width:200px""alt=""img"">
                            </div>
                        </div>","166","","0","images/gray_36.png","","","","positive"
"","","","","","html-slider-response","162","22311952","0.0-158.0","8u7uf5e0k8","NaN","<div style=""width:500px;"">
                            <p style=""font-size:50px; font-weight:bold;""
                            >positive</p>
                            <div style=""width:240px; margin: auto;"">
                                <img src=""images/gray_42.png"" style= ""width:200px""alt=""img"">
                            </div>
                        </div>","-81","","0","images/gray_42.png","","","","positive"
"","","","","","html-slider-response","163","22313440","0.0-159.0","8u7uf5e0k8","NaN","<div style=""width:500px;"">
                            <p style=""font-size:50px; font-weight:bold;""
                            >positive</p>
                            <div style=""width:240px; margin: auto;"">
                                <img src=""images/gray_11.png"" style= ""width:200px""alt=""img"">
                            </div>
                        </div>","-77","","0","images/gray_11.png","","","","positive"
"","","","","","html-slider-response","164","22315640","0.0-160.0","8u7uf5e0k8","NaN","<div style=""width:500px;"">
                            <p style=""font-size:50px; font-weight:bold;""
                            >positive</p>
                            <div style=""width:240px; margin: auto;"">
                                <img src=""images/gray_14.png"" style= ""width:200px""alt=""img"">
                            </div>
                        </div>","119","","0","images/gray_14.png","","","","positive"
"","","","","","html-slider-response","165","22317378","0.0-161.0","8u7uf5e0k8","NaN","<div style=""width:500px;"">
                            <p style=""font-size:50px; font-weight:bold;""
                            >positive</p>
                            <div style=""width:240px; margin: auto;"">
                                <img src=""images/gray_02.png"" style= ""width:200px""alt=""img"">
                            </div>
                        </div>","-110","","0","images/gray_02.png","","","","positive"
"","","","","","html-slider-response","166","22319065","0.0-162.0","8u7uf5e0k8","NaN","<div style=""width:500px;"">
                            <p style=""font-size:50px; font-weight:bold;""
                            >positive</p>
                            <div style=""width:240px; margin: auto;"">
                                <img src=""images/gray_26.png"" style= ""width:200px""alt=""img"">
                            </div>
                        </div>","-139","","0","images/gray_26.png","","","","positive"
"","","","","","html-slider-response","167","22321178","0.0-163.0","8u7uf5e0k8","NaN","<div style=""width:500px;"">
                            <p style=""font-size:50px; font-weight:bold;""
                            >positive</p>
                            <div style=""width:240px; margin: auto;"">
                                <img src=""images/gray_34.png"" style= ""width:200px""alt=""img"">
                            </div>
                        </div>","-182","","0","images/gray_34.png","","","","positive"
"","","","","","html-slider-response","168","22322865","0.0-164.0","8u7uf5e0k8","NaN","<div style=""width:500px;"">
                            <p style=""font-size:50px; font-weight:bold;""
                            >positive</p>
                            <div style=""width:240px; margin: auto;"">
                                <img src=""images/gray_09.png"" style= ""width:200px""alt=""img"">
                            </div>
                        </div>","-133","","0","images/gray_09.png","","","","positive"
"","","","","","html-slider-response","169","22324587","0.0-165.0","8u7uf5e0k8","NaN","<div style=""width:500px;"">
                            <p style=""font-size:50px; font-weight:bold;""
                            >positive</p>
                            <div style=""width:240px; margin: auto;"">
                                <img src=""images/gray_25.png"" style= ""width:200px""alt=""img"">
                            </div>
                        </div>","-99","","0","images/gray_25.png","","","","positive"
"","","","","","html-slider-response","170","22326405","0.0-166.0","8u7uf5e0k8","NaN","<div style=""width:500px;"">
                            <p style=""font-size:50px; font-weight:bold;""
                            >positive</p>
                            <div style=""width:240px; margin: auto;"">
                                <img src=""images/gray_28.png"" style= ""width:200px""alt=""img"">
                            </div>
                        </div>","-87","","0","images/gray_28.png","","","","positive"
"","","","","","html-slider-response","171","22327874","0.0-167.0","8u7uf5e0k8","NaN","<div style=""width:500px;"">
                            <p style=""font-size:50px; font-weight:bold;""
                            >positive</p>
                            <div style=""width:240px; margin: auto;"">
                                <img src=""images/gray_08.png"" style= ""width:200px""alt=""img"">
                            </div>
                        </div>","-74","","0","images/gray_08.png","","","","positive"
"","","","","","html-slider-response","172","22329991","0.0-168.0","8u7uf5e0k8","NaN","<div style=""width:500px;"">
                            <p style=""font-size:50px; font-weight:bold;""
                            >positive</p>
                            <div style=""width:240px; margin: auto;"">
                                <img src=""images/gray_21.png"" style= ""width:200px""alt=""img"">
                            </div>
                        </div>","151","","0","images/gray_21.png","","","","positive"
"","","","","","html-slider-response","173","22331955","0.0-169.0","8u7uf5e0k8","NaN","<div style=""width:500px;"">
                            <p style=""font-size:50px; font-weight:bold;""
                            >positive</p>
                            <div style=""width:240px; margin: auto;"">
                                <img src=""images/gray_20.png"" style= ""width:200px""alt=""img"">
                            </div>
                        </div>","154","","0","images/gray_20.png","","","","positive"
"","","","","","html-slider-response","174","22333691","0.0-170.0","8u7uf5e0k8","NaN","<div style=""width:500px;"">
                            <p style=""font-size:50px; font-weight:bold;""
                            >positive</p>
                            <div style=""width:240px; margin: auto;"">
                                <img src=""images/gray_05.png"" style= ""width:200px""alt=""img"">
                            </div>
                        </div>","-152","","0","images/gray_05.png","","","","positive"
"","","","","","html-slider-response","175","22335390","0.0-171.0","8u7uf5e0k8","NaN","<div style=""width:500px;"">
                            <p style=""font-size:50px; font-weight:bold;""
                            >positive</p>
                            <div style=""width:240px; margin: auto;"">
                                <img src=""images/gray_38.png"" style= ""width:200px""alt=""img"">
                            </div>
                        </div>","-114","","0","images/gray_38.png","","","","positive"
"","","","","","html-slider-response","176","22337090","0.0-172.0","8u7uf5e0k8","NaN","<div style=""width:500px;"">
                            <p style=""font-size:50px; font-weight:bold;""
                            >positive</p>
                            <div style=""width:240px; margin: auto;"">
                                <img src=""images/gray_18.png"" style= ""width:200px""alt=""img"">
                            </div>
                        </div>","-87","","0","images/gray_18.png","","","","positive"
"","","","","","html-slider-response","177","22339027","0.0-173.0","8u7uf5e0k8","NaN","<div style=""width:500px;"">
                            <p style=""font-size:50px; font-weight:bold;""
                            >positive</p>
                            <div style=""width:240px; margin: auto;"">
                                <img src=""images/gray_22.png"" style= ""width:200px""alt=""img"">
                            </div>
                        </div>","-82","","0","images/gray_22.png","","","","positive"
"","","","","","html-slider-response","178","22340785","0.0-174.0","8u7uf5e0k8","NaN","<div style=""width:500px;"">
                            <p style=""font-size:50px; font-weight:bold;""
                            >positive</p>
                            <div style=""width:240px; margin: auto;"">
                                <img src=""images/gray_23.png"" style= ""width:200px""alt=""img"">
                            </div>
                        </div>","-141","","0","images/gray_23.png","","","","positive"
"","","","","","html-slider-response","179","22342885","0.0-175.0","8u7uf5e0k8","NaN","<div style=""width:500px;"">
                            <p style=""font-size:50px; font-weight:bold;""
                            >positive</p>
                            <div style=""width:240px; margin: auto;"">
                                <img src=""images/gray_39.png"" style= ""width:200px""alt=""img"">
                            </div>
                        </div>","99","","0","images/gray_39.png","","","","positive"
"","","","","","html-slider-response","180","22344326","0.0-176.0","8u7uf5e0k8","NaN","<div style=""width:500px;"">
                            <p style=""font-size:50px; font-weight:bold;""
                            >positive</p>
                            <div style=""width:240px; margin: auto;"">
                                <img src=""images/gray_24.png"" style= ""width:200px""alt=""img"">
                            </div>
                        </div>","118","","0","images/gray_24.png","","","","positive"
"","","","","","html-slider-response","181","22345969","0.0-177.0","8u7uf5e0k8","NaN","<div style=""width:500px;"">
                            <p style=""font-size:50px; font-weight:bold;""
                            >positive</p>
                            <div style=""width:240px; margin: auto;"">
                                <img src=""images/gray_15.png"" style= ""width:200px""alt=""img"">
                            </div>
                        </div>","55","","0","images/gray_15.png","","","","positive"
"","","","","","html-slider-response","182","22349342","0.0-178.0","8u7uf5e0k8","NaN","<div style=""width:500px;"">
                            <p style=""font-size:50px; font-weight:bold;""
                            >positive</p>
                            <div style=""width:240px; margin: auto;"">
                                <img src=""images/gray_10.png"" style= ""width:200px""alt=""img"">
                            </div>
                        </div>","-83","","0","images/gray_10.png","","","","positive"
"","","","","","html-slider-response","183","22351586","0.0-179.0","8u7uf5e0k8","NaN","<div style=""width:500px;"">
                            <p style=""font-size:50px; font-weight:bold;""
                            >positive</p>
                            <div style=""width:240px; margin: auto;"">
                                <img src=""images/gray_32.png"" style= ""width:200px""alt=""img"">
                            </div>
                        </div>","-136","","0","images/gray_32.png","","","","positive"
"","","","","","html-slider-response","184","22353442","0.0-180.0","8u7uf5e0k8","NaN","<div style=""width:500px;"">
                            <p style=""font-size:50px; font-weight:bold;""
                            >positive</p>
                            <div style=""width:240px; margin: auto;"">
                                <img src=""images/gray_31.png"" style= ""width:200px""alt=""img"">
                            </div>
                        </div>","115","","0","images/gray_31.png","","","","positive"
"","","","","","html-slider-response","185","22355446","0.0-181.0","8u7uf5e0k8","NaN","<div style=""width:500px;"">
                            <p style=""font-size:50px; font-weight:bold;""
                            >positive</p>
                            <div style=""width:240px; margin: auto;"">
                                <img src=""images/gray_41.png"" style= ""width:200px""alt=""img"">
                            </div>
                        </div>","-34","","0","images/gray_41.png","","","","positive"
"","","","","","html-slider-response","186","22357013","0.0-182.0","8u7uf5e0k8","NaN","<div style=""width:500px;"">
                            <p style=""font-size:50px; font-weight:bold;""
                            >positive</p>
                            <div style=""width:240px; margin: auto;"">
                                <img src=""images/gray_07.png"" style= ""width:200px""alt=""img"">
                            </div>
                        </div>","-158","","0","images/gray_07.png","","","","positive"
"","","","","","html-slider-response","187","22358646","0.0-183.0","8u7uf5e0k8","NaN","<div style=""width:500px;"">
                            <p style=""font-size:50px; font-weight:bold;""
                            >positive</p>
                            <div style=""width:240px; margin: auto;"">
                                <img src=""images/gray_04.png"" style= ""width:200px""alt=""img"">
                            </div>
                        </div>","-107","","0","images/gray_04.png","","","","positive"
"","","","","","html-slider-response","188","22360190","0.0-184.0","8u7uf5e0k8","NaN","<div style=""width:500px;"">
                            <p style=""font-size:50px; font-weight:bold;""
                            >positive</p>
                            <div style=""width:240px; margin: auto;"">
                                <img src=""images/gray_37.png"" style= ""width:200px""alt=""img"">
                            </div>
                        </div>","-78","","0","images/gray_37.png","","","","positive"
"","","","","","html-slider-response","189","22361821","0.0-185.0","8u7uf5e0k8","NaN","<div style=""width:500px;"">
                            <p style=""font-size:50px; font-weight:bold;""
                            >positive</p>
                            <div style=""width:240px; margin: auto;"">
                                <img src=""images/gray_33.png"" style= ""width:200px""alt=""img"">
                            </div>
                        </div>","-47","","0","images/gray_33.png","","","","positive"
"","","","","","html-slider-response","190","22363402","0.0-186.0","8u7uf5e0k8","NaN","<div style=""width:500px;"">
                            <p style=""font-size:50px; font-weight:bold;""
                            >positive</p>
                            <div style=""width:240px; margin: auto;"">
                                <img src=""images/gray_44.png"" style= ""width:200px""alt=""img"">
                            </div>
                        </div>","-113","","0","images/gray_44.png","","","","positive"
"","","","","","html-slider-response","191","22365121","0.0-187.0","8u7uf5e0k8","NaN","<div style=""width:500px;"">
                            <p style=""font-size:50px; font-weight:bold;""
                            >positive</p>
                            <div style=""width:240px; margin: auto;"">
                                <img src=""images/gray_40.png"" style= ""width:200px""alt=""img"">
                            </div>
                        </div>","-142","","0","images/gray_40.png","","","","positive"
"","","","","","html-slider-response","192","22366923","0.0-188.0","8u7uf5e0k8","NaN","<div style=""width:500px;"">
                            <p style=""font-size:50px; font-weight:bold;""
                            >positive</p>
                            <div style=""width:240px; margin: auto;"">
                                <img src=""images/gray_19.png"" style= ""width:200px""alt=""img"">
                            </div>
                        </div>","-94","","0","images/gray_19.png","","","","positive"
"","","","","","html-slider-response","193","22368621","0.0-189.0","8u7uf5e0k8","NaN","<div style=""width:500px;"">
                            <p style=""font-size:50px; font-weight:bold;""
                            >positive</p>
                            <div style=""width:240px; margin: auto;"">
                                <img src=""images/gray_30.png"" style= ""width:200px""alt=""img"">
                            </div>
                        </div>","-146","","0","images/gray_30.png","","","","positive"
"","","","","","html-slider-response","194","22370961","0.0-190.0","8u7uf5e0k8","NaN","<div style=""width:500px;"">
                            <p style=""font-size:50px; font-weight:bold;""
                            >positive</p>
                            <div style=""width:240px; margin: auto;"">
                                <img src=""images/gray_29.png"" style= ""width:200px""alt=""img"">
                            </div>
                        </div>","79","","0","images/gray_29.png","","","","positive"
"","","","","","html-slider-response","195","22372686","0.0-191.0","8u7uf5e0k8","NaN","<div style=""width:500px;"">
                            <p style=""font-size:50px; font-weight:bold;""
                            >positive</p>
                            <div style=""width:240px; margin: auto;"">
                                <img src=""images/gray_13.png"" style= ""width:200px""alt=""img"">
                            </div>
                        </div>","-114","","0","images/gray_13.png","","","","positive"
"","","","","","html-slider-response","196","22374361","0.0-192.0","8u7uf5e0k8","NaN","<div style=""width:500px;"">
                            <p style=""font-size:50px; font-weight:bold;""
                            >positive</p>
                            <div style=""width:240px; margin: auto;"">
                                <img src=""images/gray_43.png"" style= ""width:200px""alt=""img"">
                            </div>
                        </div>","-152","","0","images/gray_43.png","","","","positive"
"","","","","","html-slider-response","197","22375846","0.0-193.0","8u7uf5e0k8","NaN","<div style=""width:500px;"">
                            <p style=""font-size:50px; font-weight:bold;""
                            >positive</p>
                            <div style=""width:240px; margin: auto;"">
                                <img src=""images/gray_16.png"" style= ""width:200px""alt=""img"">
                            </div>
                        </div>","-77","","0","images/gray_16.png","","","","positive"
"","","","","","html-slider-response","198","22377210","0.0-194.0","8u7uf5e0k8","NaN","<div style=""width:500px;"">
