"success","timeout","failed_images","failed_audio","failed_video","trial_type","trial_index","time_elapsed","internal_node_id","subject_id","rt","stimulus","response","question_order","slider_start","image_path","practiceTrial","practiceTrialNum","correct","concept"
"true","false","[]","[]","[]","preload","0","1783","0.0-0.0","8uwt1zc7xu","","","","","","","","","",""
"","","","","","html-button-response","1","8568","0.0-1.0","8uwt1zc7xu","6783","Welcome to our experiment!<p>At the bottom of this screen, you will see a button that says ""Begin Experiment"".<br>Please only click that button when you are ready to complete the 25 minute experiment in one sitting.</p><p> Once you click that button, it will not be possible to restart the experiment.","0","","","","","","",""
"true","","","","","fullscreen","2","12519","0.0-2.0","8uwt1zc7xu","2947","","","","","","","","",""
"","","","","","survey-multi-select","3","31950","0.0-3.0","8uwt1zc7xu","19427","","{""Consent"":[""<strong>I consent</strong>""]}","[0]","","","","","",""
"","","","","","html-button-response","4","36515","0.0-4.0","8uwt1zc7xu","4562","Welcome! <p> This experiment involves two parts: demographic information, followed by the experimental task.<p> It will take about 25 minutes to complete both parts.","0","","","","","","",""
"","","","","","survey-text","5","60639","0.0-5.0","8uwt1zc7xu","24110","","{""Age"":""21"",""Gender"":""female"",""Race/ethnicity"":""caucasian"",""Languages"":""english, french, hungarian""}","","","","","","",""
"","","","","","html-slider-response","6","125945","0.0-6.0","8uwt1zc7xu","65304","
            <div style='text-align:left; font-size:20px; line-height:25px; width: 1200px;'>
                During this experiment you will be asked to rate how much you associate maps with    different concepts.<br> Below, you can see some examples of the maps you will be asked to rate. Next to the maps
    is the list of concepts.<br>You will be asked    to rate how much you associate each map with each concept on a scale from 'not at all' to 'very much' like the
    one below. <br><br>
    Now, please look at the list of concepts and maps. For each concept, think about the map you associate 'very
    much' with the concept.<br>     When you see that map during the experiment, please rate it near the 'very much' endpoint of the
    scale.<br>Now, please think about which map you associate 'not at all'     with each concept. When you see that map during the experiment, please rate it near the 'not at all' endpoint
    of the scale.<br>
    Please use the full range of the scale. That is, if a map is somewhat associated with the concept, you would
    click partway between the middle point and right side of the scale.    You will be asked to rate each map for a given concept before moving on to the next concept.<br><br>Press the
    'Continue' button for instructions on how to use the slider.    <br><br>
</div>

<div style=""width: 500px; margin: 0 auto;"">
    <div style=""text-align: left; width: 200px; float: left;"">
        <p style=""font-size:25px; line-height:18px;"">calm</p>
        <p style=""font-size:25px; line-height:18px;"">exciting</p>
        <p style=""font-size:25px;line-height:18px;"">positive</p>
        <p style=""font-size:25px;line-height:18px;"">negative</p>
        <p style=""font-size:25px;line-height:18px;"">serious</p>
        <p style=""font-size:25px;line-height:18px;"">playful</p>
        <p style=""font-size:25px;line-height:18px;"">trustworthy</p>
        <p style=""font-size:25px;line-height:18px;"">disturbing</p>
    </div>
    <div style=""width: 200px; float: right; padding-top:15px; padding-right:40px"">
        <br>
        <br>
        <img src=""maps_anchoring.png"" alt=""img"" style=""max-width:500px"">
    </div>
    <div style=""clear: both;""></div>
</div>
            ","10","","0","maps_anchoring.png","true","","",""
"","","","","","html-button-response","7","128944","0.0-7.0","8uwt1zc7xu","2998","<div style=""width:800px;""><p style=""text-align:left"">To move the slider, click and drag your cursor to the location of the scale where you would like to make your rating and then let go. When you let go of the slider, your response will be recorded and the next trial will begin. <br>
            We are interested in your initial impressions of each map for the given concept, so please go with your first intuition. <br>
            Before you begin the experiment, there will be four training trials for you to practice using the scale. <br>
             When you are ready to start the training trials, please click ""Continue"".</p><br></div>","0","","","","","","",""
"","","","","","html-slider-response","8","131655","0.0-8.0-0.0","8uwt1zc7xu","NaN","<div style=""width:500px;"">
                            <p style=""font-size:25px;"">Please move the slider all the way to the <br> right endpoint of the scale</p>

                            </div>
                        </div>","200","","0","","true","0","true",""
"","","","","","html-button-response","9","133128","0.0-8.0-1.0","8uwt1zc7xu","970","<p align='center'><b>Good job!</b> Click on 'Continue' to proceed.</p>","0","","","","","","",""
"","","","","","html-slider-response","10","134939","0.0-9.0-0.0","8uwt1zc7xu","NaN","<div style=""width:500px;"">
                            <p style=""font-size:25px;"">Please move the slider all the way to the <br> left endpoint of the scale</p>

                            </div>
                        </div>","-200","","0","","true","1","true",""
"","","","","","html-button-response","11","136361","0.0-9.0-1.0","8uwt1zc7xu","920","<p align='center'><b>Good job!</b> Click on 'Continue' to proceed.</p>","0","","","","","","",""
"","","","","","html-slider-response","12","146688","0.0-10.0-0.0","8uwt1zc7xu","NaN","<div style=""width:500px;"">
                            <p style=""font-size:25px;"">Please move the slider halfway between the center and right endpoint of the scale</p>

                            </div>
                        </div>","98","","0","","true","2","true",""
"","","","","","html-button-response","13","148043","0.0-10.0-1.0","8uwt1zc7xu","852","<p align='center'><b>Good job!</b> Click on 'Continue' to proceed.</p>","0","","","","","","",""
"","","","","","html-slider-response","14","150237","0.0-11.0-0.0","8uwt1zc7xu","NaN","<div style=""width:500px;"">
                            <p style=""font-size:25px;"">Please move the slider halfway between the center and left endpoint of the scale</p>

                            </div>
                        </div>","-94","","0","","true","3","true",""
"","","","","","html-button-response","15","151460","0.0-11.0-1.0","8uwt1zc7xu","720","<p align='center'><b>Good job!</b> Click on 'Continue' to proceed.</p>","0","","","","","","",""
"","","","","","html-button-response","16","152993","0.0-12.0","8uwt1zc7xu","1533","<p>Great job! You've completed the practice trials. Now you will begin the main task.</p>","0","","","","","","",""
"","","","","","html-button-response","17","156976","0.0-13.0","8uwt1zc7xu","3982","<p>In this block of trials, you will be asked to rate how much you associate each map with:</p > <p style = 'font-size:150%; font-weight: bold'>positive</p><br></br>","0","","","","","","",""
"","","","","","html-slider-response","18","164971","0.0-14.0","8uwt1zc7xu","NaN","<div style=""width:500px;"">
                            <p style=""font-size:50px; font-weight:bold;""
                            >positive</p>
                            <div style=""width:240px; margin: auto;"">
                                <img src=""images/gray_21.png"" style= ""width:200px""alt=""img"">
                            </div>
                        </div>","200","","0","images/gray_21.png","","","","positive"
"","","","","","html-slider-response","19","168504","0.0-15.0","8uwt1zc7xu","NaN","<div style=""width:500px;"">
                            <p style=""font-size:50px; font-weight:bold;""
                            >positive</p>
                            <div style=""width:240px; margin: auto;"">
                                <img src=""images/gray_17.png"" style= ""width:200px""alt=""img"">
                            </div>
                        </div>","-106","","0","images/gray_17.png","","","","positive"
"","","","","","html-slider-response","20","172470","0.0-16.0","8uwt1zc7xu","NaN","<div style=""width:500px;"">
                            <p style=""font-size:50px; font-weight:bold;""
                            >positive</p>
                            <div style=""width:240px; margin: auto;"">
                                <img src=""images/gray_15.png"" style= ""width:200px""alt=""img"">
                            </div>
                        </div>","58","","0","images/gray_15.png","","","","positive"
"","","","","","html-slider-response","21","176770","0.0-17.0","8uwt1zc7xu","NaN","<div style=""width:500px;"">
                            <p style=""font-size:50px; font-weight:bold;""
                            >positive</p>
                            <div style=""width:240px; margin: auto;"">
                                <img src=""images/gray_36.png"" style= ""width:200px""alt=""img"">
                            </div>
                        </div>","-45","","0","images/gray_36.png","","","","positive"
"","","","","","html-slider-response","22","181720","0.0-18.0","8uwt1zc7xu","NaN","<div style=""width:500px;"">
                            <p style=""font-size:50px; font-weight:bold;""
                            >positive</p>
                            <div style=""width:240px; margin: auto;"">
                                <img src=""images/gray_10.png"" style= ""width:200px""alt=""img"">
                            </div>
                        </div>","48","","0","images/gray_10.png","","","","positive"
"","","","","","html-slider-response","23","184370","0.0-19.0","8uwt1zc7xu","NaN","<div style=""width:500px;"">
                            <p style=""font-size:50px; font-weight:bold;""
                            >positive</p>
                            <div style=""width:240px; margin: auto;"">
                                <img src=""images/gray_13.png"" style= ""width:200px""alt=""img"">
                            </div>
                        </div>","-61","","0","images/gray_13.png","","","","positive"
"","","","","","html-slider-response","24","187287","0.0-20.0","8uwt1zc7xu","NaN","<div style=""width:500px;"">
                            <p style=""font-size:50px; font-weight:bold;""
                            >positive</p>
                            <div style=""width:240px; margin: auto;"">
                                <img src=""images/gray_41.png"" style= ""width:200px""alt=""img"">
                            </div>
                        </div>","-30","","0","images/gray_41.png","","","","positive"
"","","","","","html-slider-response","25","189519","0.0-21.0","8uwt1zc7xu","NaN","<div style=""width:500px;"">
                            <p style=""font-size:50px; font-weight:bold;""
                            >positive</p>
                            <div style=""width:240px; margin: auto;"">
                                <img src=""images/gray_31.png"" style= ""width:200px""alt=""img"">
                            </div>
                        </div>","30","","0","images/gray_31.png","","","","positive"
"","","","","","html-slider-response","26","191819","0.0-22.0","8uwt1zc7xu","NaN","<div style=""width:500px;"">
                            <p style=""font-size:50px; font-weight:bold;""
                            >positive</p>
                            <div style=""width:240px; margin: auto;"">
                                <img src=""images/gray_16.png"" style= ""width:200px""alt=""img"">
                            </div>
                        </div>","-11","","0","images/gray_16.png","","","","positive"
"","","","","","html-slider-response","27","196485","0.0-23.0","8uwt1zc7xu","NaN","<div style=""width:500px;"">
                            <p style=""font-size:50px; font-weight:bold;""
                            >positive</p>
                            <div style=""width:240px; margin: auto;"">
                                <img src=""images/gray_04.png"" style= ""width:200px""alt=""img"">
                            </div>
                        </div>","27","","0","images/gray_04.png","","","","positive"
"","","","","","html-slider-response","28","199335","0.0-24.0","8uwt1zc7xu","NaN","<div style=""width:500px;"">
                            <p style=""font-size:50px; font-weight:bold;""
                            >positive</p>
                            <div style=""width:240px; margin: auto;"">
                                <img src=""images/gray_07.png"" style= ""width:200px""alt=""img"">
                            </div>
                        </div>","-17","","0","images/gray_07.png","","","","positive"
"","","","","","html-slider-response","29","201419","0.0-25.0","8uwt1zc7xu","NaN","<div style=""width:500px;"">
                            <p style=""font-size:50px; font-weight:bold;""
                            >positive</p>
                            <div style=""width:240px; margin: auto;"">
                                <img src=""images/gray_35.png"" style= ""width:200px""alt=""img"">
                            </div>
                        </div>","34","","0","images/gray_35.png","","","","positive"
"","","","","","html-slider-response","30","204002","0.0-26.0","8uwt1zc7xu","NaN","<div style=""width:500px;"">
                            <p style=""font-size:50px; font-weight:bold;""
                            >positive</p>
                            <div style=""width:240px; margin: auto;"">
                                <img src=""images/gray_08.png"" style= ""width:200px""alt=""img"">
                            </div>
                        </div>","-40","","0","images/gray_08.png","","","","positive"
"","","","","","html-slider-response","31","206218","0.0-27.0","8uwt1zc7xu","NaN","<div style=""width:500px;"">
                            <p style=""font-size:50px; font-weight:bold;""
                            >positive</p>
                            <div style=""width:240px; margin: auto;"">
                                <img src=""images/gray_38.png"" style= ""width:200px""alt=""img"">
                            </div>
                        </div>","37","","0","images/gray_38.png","","","","positive"
"","","","","","html-slider-response","32","209002","0.0-28.0","8uwt1zc7xu","NaN","<div style=""width:500px;"">
                            <p style=""font-size:50px; font-weight:bold;""
                            >positive</p>
                            <div style=""width:240px; margin: auto;"">
                                <img src=""images/gray_34.png"" style= ""width:200px""alt=""img"">
                            </div>
                        </div>","-36","","0","images/gray_34.png","","","","positive"
"","","","","","html-slider-response","33","211402","0.0-29.0","8uwt1zc7xu","NaN","<div style=""width:500px;"">
                            <p style=""font-size:50px; font-weight:bold;""
                            >positive</p>
                            <div style=""width:240px; margin: auto;"">
                                <img src=""images/gray_11.png"" style= ""width:200px""alt=""img"">
                            </div>
                        </div>","-36","","0","images/gray_11.png","","","","positive"
"","","","","","html-slider-response","34","214368","0.0-30.0","8uwt1zc7xu","NaN","<div style=""width:500px;"">
                            <p style=""font-size:50px; font-weight:bold;""
                            >positive</p>
                            <div style=""width:240px; margin: auto;"">
                                <img src=""images/gray_14.png"" style= ""width:200px""alt=""img"">
                            </div>
                        </div>","53","","0","images/gray_14.png","","","","positive"
"","","","","","html-slider-response","35","216502","0.0-31.0","8uwt1zc7xu","NaN","<div style=""width:500px;"">
                            <p style=""font-size:50px; font-weight:bold;""
                            >positive</p>
                            <div style=""width:240px; margin: auto;"">
                                <img src=""images/gray_01.png"" style= ""width:200px""alt=""img"">
                            </div>
                        </div>","-33","","0","images/gray_01.png","","","","positive"
"","","","","","html-slider-response","36","218201","0.0-32.0","8uwt1zc7xu","NaN","<div style=""width:500px;"">
                            <p style=""font-size:50px; font-weight:bold;""
                            >positive</p>
                            <div style=""width:240px; margin: auto;"">
                                <img src=""images/gray_26.png"" style= ""width:200px""alt=""img"">
                            </div>
                        </div>","-36","","0","images/gray_26.png","","","","positive"
"","","","","","html-slider-response","37","219951","0.0-33.0","8uwt1zc7xu","NaN","<div style=""width:500px;"">
                            <p style=""font-size:50px; font-weight:bold;""
                            >positive</p>
                            <div style=""width:240px; margin: auto;"">
                                <img src=""images/gray_22.png"" style= ""width:200px""alt=""img"">
                            </div>
                        </div>","-41","","0","images/gray_22.png","","","","positive"
"","","","","","html-slider-response","38","221602","0.0-34.0","8uwt1zc7xu","NaN","<div style=""width:500px;"">
                            <p style=""font-size:50px; font-weight:bold;""
                            >positive</p>
                            <div style=""width:240px; margin: auto;"">
                                <img src=""images/gray_39.png"" style= ""width:200px""alt=""img"">
                            </div>
                        </div>","34","","0","images/gray_39.png","","","","positive"
"","","","","","html-slider-response","39","226018","0.0-35.0","8uwt1zc7xu","NaN","<div style=""width:500px;"">
                            <p style=""font-size:50px; font-weight:bold;""
                            >positive</p>
                            <div style=""width:240px; margin: auto;"">
                                <img src=""images/gray_30.png"" style= ""width:200px""alt=""img"">
                            </div>
                        </div>","56","","0","images/gray_30.png","","","","positive"
"","","","","","html-slider-response","40","228318","0.0-36.0","8uwt1zc7xu","NaN","<div style=""width:500px;"">
                            <p style=""font-size:50px; font-weight:bold;""
                            >positive</p>
                            <div style=""width:240px; margin: auto;"">
                                <img src=""images/gray_19.png"" style= ""width:200px""alt=""img"">
                            </div>
                        </div>","38","","0","images/gray_19.png","","","","positive"
"","","","","","html-slider-response","41","230068","0.0-37.0","8uwt1zc7xu","NaN","<div style=""width:500px;"">
                            <p style=""font-size:50px; font-weight:bold;""
                            >positive</p>
                            <div style=""width:240px; margin: auto;"">
                                <img src=""images/gray_42.png"" style= ""width:200px""alt=""img"">
                            </div>
                        </div>","-46","","0","images/gray_42.png","","","","positive"
"","","","","","html-slider-response","42","232952","0.0-38.0","8uwt1zc7xu","NaN","<div style=""width:500px;"">
                            <p style=""font-size:50px; font-weight:bold;""
                            >positive</p>
                            <div style=""width:240px; margin: auto;"">
                                <img src=""images/gray_18.png"" style= ""width:200px""alt=""img"">
                            </div>
                        </div>","101","","0","images/gray_18.png","","","","positive"
"","","","","","html-slider-response","43","235170","0.0-39.0","8uwt1zc7xu","NaN","<div style=""width:500px;"">
                            <p style=""font-size:50px; font-weight:bold;""
                            >positive</p>
                            <div style=""width:240px; margin: auto;"">
                                <img src=""images/gray_02.png"" style= ""width:200px""alt=""img"">
                            </div>
                        </div>","-70","","0","images/gray_02.png","","","","positive"
"","","","","","html-slider-response","44","238801","0.0-40.0","8uwt1zc7xu","NaN","<div style=""width:500px;"">
                            <p style=""font-size:50px; font-weight:bold;""
                            >positive</p>
                            <div style=""width:240px; margin: auto;"">
                                <img src=""images/gray_03.png"" style= ""width:200px""alt=""img"">
                            </div>
                        </div>","-42","","0","images/gray_03.png","","","","positive"
"","","","","","html-slider-response","45","242100","0.0-41.0","8uwt1zc7xu","NaN","<div style=""width:500px;"">
                            <p style=""font-size:50px; font-weight:bold;""
                            >positive</p>
                            <div style=""width:240px; margin: auto;"">
                                <img src=""images/gray_27.png"" style= ""width:200px""alt=""img"">
                            </div>
                        </div>","63","","0","images/gray_27.png","","","","positive"
"","","","","","html-slider-response","46","244017","0.0-42.0","8uwt1zc7xu","NaN","<div style=""width:500px;"">
                            <p style=""font-size:50px; font-weight:bold;""
                            >positive</p>
                            <div style=""width:240px; margin: auto;"">
                                <img src=""images/gray_28.png"" style= ""width:200px""alt=""img"">
                            </div>
                        </div>","79","","0","images/gray_28.png","","","","positive"
"","","","","","html-slider-response","47","245916","0.0-43.0","8uwt1zc7xu","NaN","<div style=""width:500px;"">
                            <p style=""font-size:50px; font-weight:bold;""
                            >positive</p>
                            <div style=""width:240px; margin: auto;"">
                                <img src=""images/gray_25.png"" style= ""width:200px""alt=""img"">
                            </div>
                        </div>","85","","0","images/gray_25.png","","","","positive"
"","","","","","html-slider-response","48","247718","0.0-44.0","8uwt1zc7xu","NaN","<div style=""width:500px;"">
                            <p style=""font-size:50px; font-weight:bold;""
                            >positive</p>
                            <div style=""width:240px; margin: auto;"">
                                <img src=""images/gray_20.png"" style= ""width:200px""alt=""img"">
                            </div>
                        </div>","72","","0","images/gray_20.png","","","","positive"
"","","","","","html-slider-response","49","249534","0.0-45.0","8uwt1zc7xu","NaN","<div style=""width:500px;"">
                            <p style=""font-size:50px; font-weight:bold;""
                            >positive</p>
                            <div style=""width:240px; margin: auto;"">
                                <img src=""images/gray_23.png"" style= ""width:200px""alt=""img"">
                            </div>
                        </div>","89","","0","images/gray_23.png","","","","positive"
"","","","","","html-slider-response","50","251350","0.0-46.0","8uwt1zc7xu","NaN","<div style=""width:500px;"">
                            <p style=""font-size:50px; font-weight:bold;""
                            >positive</p>
                            <div style=""width:240px; margin: auto;"">
                                <img src=""images/gray_33.png"" style= ""width:200px""alt=""img"">
                            </div>
                        </div>","57","","0","images/gray_33.png","","","","positive"
"","","","","","html-slider-response","51","253200","0.0-47.0","8uwt1zc7xu","NaN","<div style=""width:500px;"">
                            <p style=""font-size:50px; font-weight:bold;""
                            >positive</p>
                            <div style=""width:240px; margin: auto;"">
                                <img src=""images/gray_05.png"" style= ""width:200px""alt=""img"">
                            </div>
                        </div>","-51","","0","images/gray_05.png","","","","positive"
"","","","","","html-slider-response","52","254920","0.0-48.0","8uwt1zc7xu","NaN","<div style=""width:500px;"">
                            <p style=""font-size:50px; font-weight:bold;""
                            >positive</p>
                            <div style=""width:240px; margin: auto;"">
                                <img src=""images/gray_24.png"" style= ""width:200px""alt=""img"">
                            </div>
                        </div>","-59","","0","images/gray_24.png","","","","positive"
"","","","","","html-slider-response","53","257616","0.0-49.0","8uwt1zc7xu","NaN","<div style=""width:500px;"">
                            <p style=""font-size:50px; font-weight:bold;""
                            >positive</p>
                            <div style=""width:240px; margin: auto;"">
                                <img src=""images/gray_44.png"" style= ""width:200px""alt=""img"">
                            </div>
                        </div>","-49","","0","images/gray_44.png","","","","positive"
"","","","","","html-slider-response","54","261017","0.0-50.0","8uwt1zc7xu","NaN","<div style=""width:500px;"">
                            <p style=""font-size:50px; font-weight:bold;""
                            >positive</p>
                            <div style=""width:240px; margin: auto;"">
                                <img src=""images/gray_06.png"" style= ""width:200px""alt=""img"">
                            </div>
                        </div>","-38","","0","images/gray_06.png","","","","positive"
"","","","","","html-slider-response","55","263768","0.0-51.0","8uwt1zc7xu","NaN","<div style=""width:500px;"">
                            <p style=""font-size:50px; font-weight:bold;""
                            >positive</p>
                            <div style=""width:240px; margin: auto;"">
                                <img src=""images/gray_29.png"" style= ""width:200px""alt=""img"">
                            </div>
                        </div>","-63","","0","images/gray_29.png","","","","positive"
"","","","","","html-slider-response","56","265716","0.0-52.0","8uwt1zc7xu","NaN","<div style=""width:500px;"">
                            <p style=""font-size:50px; font-weight:bold;""
                            >positive</p>
                            <div style=""width:240px; margin: auto;"">
                                <img src=""images/gray_40.png"" style= ""width:200px""alt=""img"">
                            </div>
                        </div>","33","","0","images/gray_40.png","","","","positive"
"","","","","","html-slider-response","57","269756","0.0-53.0","8uwt1zc7xu","NaN","<div style=""width:500px;"">
                            <p style=""font-size:50px; font-weight:bold;""
                            >positive</p>
                            <div style=""width:240px; margin: auto;"">
                                <img src=""images/gray_09.png"" style= ""width:200px""alt=""img"">
                            </div>
                        </div>","39","","0","images/gray_09.png","","","","positive"
"","","","","","html-slider-response","58","272948","0.0-54.0","8uwt1zc7xu","NaN","<div style=""width:500px;"">
                            <p style=""font-size:50px; font-weight:bold;""
                            >positive</p>
                            <div style=""width:240px; margin: auto;"">
                                <img src=""images/gray_37.png"" style= ""width:200px""alt=""img"">
                            </div>
                        </div>","-74","","0","images/gray_37.png","","","","positive"
"","","","","","html-slider-response","59","275615","0.0-55.0","8uwt1zc7xu","NaN","<div style=""width:500px;"">
                            <p style=""font-size:50px; font-weight:bold;""
                            >positive</p>
                            <div style=""width:240px; margin: auto;"">
                                <img src=""images/gray_32.png"" style= ""width:200px""alt=""img"">
                            </div>
                        </div>","-95","","0","images/gray_32.png","","","","positive"
"","","","","","html-slider-response","60","278099","0.0-56.0","8uwt1zc7xu","NaN","<div style=""width:500px;"">
                            <p style=""font-size:50px; font-weight:bold;""
                            >positive</p>
                            <div style=""width:240px; margin: auto;"">
                                <img src=""images/gray_43.png"" style= ""width:200px""alt=""img"">
                            </div>
                        </div>","-94","","0","images/gray_43.png","","","","positive"
"","","","","","html-slider-response","61","280282","0.0-57.0","8uwt1zc7xu","NaN","<div style=""width:500px;"">
                            <p style=""font-size:50px; font-weight:bold;""
                            >positive</p>
                            <div style=""width:240px; margin: auto;"">
                                <img src=""images/gray_12.png"" style= ""width:200px""alt=""img"">
                            </div>
                        </div>","58","","0","images/gray_12.png","","","","positive"
"","","","","","html-button-response","62","283204","0.0-58.0","8uwt1zc7xu","2420","<p>Great Job! You've finished block 1.<br></br> You have 7 block(s) left to go.<br></br></p>","0","","","","","","",""
"","","","","","html-button-response","63","284721","0.0-59.0","8uwt1zc7xu","1516","<p>In this block of trials, you will be asked to rate how much you associate each map with:</p > <p style = 'font-size:150%; font-weight: bold'>disturbing</p><br></br>","0","","","","","","",""
"","","","","","html-slider-response","64","287066","0.0-60.0","8uwt1zc7xu","NaN","<div style=""width:500px;"">
                            <p style=""font-size:50px; font-weight:bold;""
                            >disturbing</p>
                            <div style=""width:240px; margin: auto;"">
                                <img src=""images/gray_37.png"" style= ""width:200px""alt=""img"">
                            </div>
                        </div>","42","","0","images/gray_37.png","","","","disturbing"
"","","","","","html-slider-response","65","289415","0.0-61.0","8uwt1zc7xu","NaN","<div style=""width:500px;"">
                            <p style=""font-size:50px; font-weight:bold;""
                            >disturbing</p>
                            <div style=""width:240px; margin: auto;"">
                                <img src=""images/gray_44.png"" style= ""width:200px""alt=""img"">
                            </div>
                        </div>","71","","0","images/gray_44.png","","","","disturbing"
"","","","","","html-slider-response","66","291465","0.0-62.0","8uwt1zc7xu","NaN","<div style=""width:500px;"">
                            <p style=""font-size:50px; font-weight:bold;""
                            >disturbing</p>
                            <div style=""width:240px; margin: auto;"">
                                <img src=""images/gray_41.png"" style= ""width:200px""alt=""img"">
                            </div>
                        </div>","32","","0","images/gray_41.png","","","","disturbing"
"","","","","","html-slider-response","67","294465","0.0-63.0","8uwt1zc7xu","NaN","<div style=""width:500px;"">
                            <p style=""font-size:50px; font-weight:bold;""
                            >disturbing</p>
                            <div style=""width:240px; margin: auto;"">
                                <img src=""images/gray_04.png"" style= ""width:200px""alt=""img"">
                            </div>
                        </div>","-41","","0","images/gray_04.png","","","","disturbing"
"","","","","","html-slider-response","68","296547","0.0-64.0","8uwt1zc7xu","NaN","<div style=""width:500px;"">
                            <p style=""font-size:50px; font-weight:bold;""
                            >disturbing</p>
                            <div style=""width:240px; margin: auto;"">
                                <img src=""images/gray_22.png"" style= ""width:200px""alt=""img"">
                            </div>
                        </div>","-33","","0","images/gray_22.png","","","","disturbing"
"","","","","","html-slider-response","69","298599","0.0-65.0","8uwt1zc7xu","NaN","<div style=""width:500px;"">
                            <p style=""font-size:50px; font-weight:bold;""
                            >disturbing</p>
                            <div style=""width:240px; margin: auto;"">
                                <img src=""images/gray_38.png"" style= ""width:200px""alt=""img"">
                            </div>
                        </div>","62","","0","images/gray_38.png","","","","disturbing"
"","","","","","html-slider-response","70","300598","0.0-66.0","8uwt1zc7xu","NaN","<div style=""width:500px;"">
                            <p style=""font-size:50px; font-weight:bold;""
                            >disturbing</p>
                            <div style=""width:240px; margin: auto;"">
                                <img src=""images/gray_19.png"" style= ""width:200px""alt=""img"">
                            </div>
                        </div>","75","","0","images/gray_19.png","","","","disturbing"
"","","","","","html-slider-response","71","303248","0.0-67.0","8uwt1zc7xu","NaN","<div style=""width:500px;"">
                            <p style=""font-size:50px; font-weight:bold;""
                            >disturbing</p>
                            <div style=""width:240px; margin: auto;"">
                                <img src=""images/gray_25.png"" style= ""width:200px""alt=""img"">
                            </div>
                        </div>","-22","","0","images/gray_25.png","","","","disturbing"
"","","","","","html-slider-response","72","305530","0.0-68.0","8uwt1zc7xu","NaN","<div style=""width:500px;"">
                            <p style=""font-size:50px; font-weight:bold;""
                            >disturbing</p>
                            <div style=""width:240px; margin: auto;"">
                                <img src=""images/gray_28.png"" style= ""width:200px""alt=""img"">
                            </div>
                        </div>","64","","0","images/gray_28.png","","","","disturbing"
"","","","","","html-slider-response","73","308114","0.0-69.0","8uwt1zc7xu","NaN","<div style=""width:500px;"">
                            <p style=""font-size:50px; font-weight:bold;""
                            >disturbing</p>
                            <div style=""width:240px; margin: auto;"">
                                <img src=""images/gray_32.png"" style= ""width:200px""alt=""img"">
                            </div>
                        </div>","-1","","0","images/gray_32.png","","","","disturbing"
"","","","","","html-slider-response","74","313463","0.0-70.0","8uwt1zc7xu","NaN","<div style=""width:500px;"">
                            <p style=""font-size:50px; font-weight:bold;""
                            >disturbing</p>
                            <div style=""width:240px; margin: auto;"">
                                <img src=""images/gray_09.png"" style= ""width:200px""alt=""img"">
                            </div>
                        </div>","-12","","0","images/gray_09.png","","","","disturbing"
"","","","","","html-slider-response","75","315847","0.0-71.0","8uwt1zc7xu","NaN","<div style=""width:500px;"">
                            <p style=""font-size:50px; font-weight:bold;""
                            >disturbing</p>
                            <div style=""width:240px; margin: auto;"">
                                <img src=""images/gray_18.png"" style= ""width:200px""alt=""img"">
                            </div>
                        </div>","-65","","0","images/gray_18.png","","","","disturbing"
"","","","","","html-slider-response","76","320097","0.0-72.0","8uwt1zc7xu","NaN","<div style=""width:500px;"">
                            <p style=""font-size:50px; font-weight:bold;""
                            >disturbing</p>
                            <div style=""width:240px; margin: auto;"">
                                <img src=""images/gray_21.png"" style= ""width:200px""alt=""img"">
                            </div>
                        </div>","-80","","0","images/gray_21.png","","","","disturbing"
"","","","","","html-slider-response","77","322330","0.0-73.0","8uwt1zc7xu","NaN","<div style=""width:500px;"">
                            <p style=""font-size:50px; font-weight:bold;""
                            >disturbing</p>
                            <div style=""width:240px; margin: auto;"">
                                <img src=""images/gray_08.png"" style= ""width:200px""alt=""img"">
                            </div>
                        </div>","42","","0","images/gray_08.png","","","","disturbing"
"","","","","","html-slider-response","78","325046","0.0-74.0","8uwt1zc7xu","NaN","<div style=""width:500px;"">
                            <p style=""font-size:50px; font-weight:bold;""
                            >disturbing</p>
                            <div style=""width:240px; margin: auto;"">
                                <img src=""images/gray_10.png"" style= ""width:200px""alt=""img"">
                            </div>
                        </div>","28","","0","images/gray_10.png","","","","disturbing"
"","","","","","html-slider-response","79","327863","0.0-75.0","8uwt1zc7xu","NaN","<div style=""width:500px;"">
                            <p style=""font-size:50px; font-weight:bold;""
                            >disturbing</p>
                            <div style=""width:240px; margin: auto;"">
                                <img src=""images/gray_16.png"" style= ""width:200px""alt=""img"">
                            </div>
                        </div>","79","","0","images/gray_16.png","","","","disturbing"
"","","","","","html-slider-response","80","330913","0.0-76.0","8uwt1zc7xu","NaN","<div style=""width:500px;"">
                            <p style=""font-size:50px; font-weight:bold;""
                            >disturbing</p>
                            <div style=""width:240px; margin: auto;"">
                                <img src=""images/gray_12.png"" style= ""width:200px""alt=""img"">
                            </div>
                        </div>","-150","","0","images/gray_12.png","","","","disturbing"
"","","","","","html-slider-response","81","333447","0.0-77.0","8uwt1zc7xu","NaN","<div style=""width:500px;"">
                            <p style=""font-size:50px; font-weight:bold;""
                            >disturbing</p>
                            <div style=""width:240px; margin: auto;"">
                                <img src=""images/gray_07.png"" style= ""width:200px""alt=""img"">
                            </div>
                        </div>","123","","0","images/gray_07.png","","","","disturbing"
"","","","","","html-slider-response","82","335513","0.0-78.0","8uwt1zc7xu","NaN","<div style=""width:500px;"">
                            <p style=""font-size:50px; font-weight:bold;""
                            >disturbing</p>
                            <div style=""width:240px; margin: auto;"">
                                <img src=""images/gray_02.png"" style= ""width:200px""alt=""img"">
                            </div>
                        </div>","-79","","0","images/gray_02.png","","","","disturbing"
"","","","","","html-slider-response","83","337147","0.0-79.0","8uwt1zc7xu","NaN","<div style=""width:500px;"">
                            <p style=""font-size:50px; font-weight:bold;""
                            >disturbing</p>
                            <div style=""width:240px; margin: auto;"">
                                <img src=""images/gray_31.png"" style= ""width:200px""alt=""img"">
                            </div>
                        </div>","66","","0","images/gray_31.png","","","","disturbing"
"","","","","","html-slider-response","84","339880","0.0-80.0","8uwt1zc7xu","NaN","<div style=""width:500px;"">
                            <p style=""font-size:50px; font-weight:bold;""
                            >disturbing</p>
                            <div style=""width:240px; margin: auto;"">
                                <img src=""images/gray_36.png"" style= ""width:200px""alt=""img"">
                            </div>
                        </div>","70","","0","images/gray_36.png","","","","disturbing"
"","","","","","html-slider-response","85","342495","0.0-81.0","8uwt1zc7xu","NaN","<div style=""width:500px;"">
                            <p style=""font-size:50px; font-weight:bold;""
                            >disturbing</p>
                            <div style=""width:240px; margin: auto;"">
                                <img src=""images/gray_14.png"" style= ""width:200px""alt=""img"">
                            </div>
                        </div>","-34","","0","images/gray_14.png","","","","disturbing"
"","","","","","html-slider-response","86","344063","0.0-82.0","8uwt1zc7xu","NaN","<div style=""width:500px;"">
                            <p style=""font-size:50px; font-weight:bold;""
                            >disturbing</p>
                            <div style=""width:240px; margin: auto;"">
                                <img src=""images/gray_11.png"" style= ""width:200px""alt=""img"">
                            </div>
                        </div>","38","","0","images/gray_11.png","","","","disturbing"
"","","","","","html-slider-response","87","345929","0.0-83.0","8uwt1zc7xu","NaN","<div style=""width:500px;"">
                            <p style=""font-size:50px; font-weight:bold;""
                            >disturbing</p>
                            <div style=""width:240px; margin: auto;"">
                                <img src=""images/gray_33.png"" style= ""width:200px""alt=""img"">
                            </div>
                        </div>","-63","","0","images/gray_33.png","","","","disturbing"
"","","","","","html-slider-response","88","348362","0.0-84.0","8uwt1zc7xu","NaN","<div style=""width:500px;"">
                            <p style=""font-size:50px; font-weight:bold;""
                            >disturbing</p>
                            <div style=""width:240px; margin: auto;"">
                                <img src=""images/gray_39.png"" style= ""width:200px""alt=""img"">
                            </div>
                        </div>","58","","0","images/gray_39.png","","","","disturbing"
"","","","","","html-slider-response","89","350062","0.0-85.0","8uwt1zc7xu","NaN","<div style=""width:500px;"">
                            <p style=""font-size:50px; font-weight:bold;""
                            >disturbing</p>
                            <div style=""width:240px; margin: auto;"">
                                <img src=""images/gray_05.png"" style= ""width:200px""alt=""img"">
                            </div>
                        </div>","59","","0","images/gray_05.png","","","","disturbing"
"","","","","","html-slider-response","90","351812","0.0-86.0","8uwt1zc7xu","NaN","<div style=""width:500px;"">
                            <p style=""font-size:50px; font-weight:bold;""
                            >disturbing</p>
                            <div style=""width:240px; margin: auto;"">
                                <img src=""images/gray_20.png"" style= ""width:200px""alt=""img"">
                            </div>
                        </div>","77","","0","images/gray_20.png","","","","disturbing"
"","","","","","html-slider-response","91","353679","0.0-87.0","8uwt1zc7xu","NaN","<div style=""width:500px;"">
                            <p style=""font-size:50px; font-weight:bold;""
                            >disturbing</p>
                            <div style=""width:240px; margin: auto;"">
                                <img src=""images/gray_24.png"" style= ""width:200px""alt=""img"">
                            </div>
                        </div>","89","","0","images/gray_24.png","","","","disturbing"
"","","","","","html-slider-response","92","355661","0.0-88.0","8uwt1zc7xu","NaN","<div style=""width:500px;"">
                            <p style=""font-size:50px; font-weight:bold;""
                            >disturbing</p>
                            <div style=""width:240px; margin: auto;"">
                                <img src=""images/gray_01.png"" style= ""width:200px""alt=""img"">
                            </div>
                        </div>","61","","0","images/gray_01.png","","","","disturbing"
"","","","","","html-slider-response","93","359411","0.0-89.0","8uwt1zc7xu","NaN","<div style=""width:500px;"">
                            <p style=""font-size:50px; font-weight:bold;""
                            >disturbing</p>
                            <div style=""width:240px; margin: auto;"">
                                <img src=""images/gray_34.png"" style= ""width:200px""alt=""img"">
                            </div>
                        </div>","59","","0","images/gray_34.png","","","","disturbing"
"","","","","","html-slider-response","94","361279","0.0-90.0","8uwt1zc7xu","NaN","<div style=""width:500px;"">
                            <p style=""font-size:50px; font-weight:bold;""
                            >disturbing</p>
                            <div style=""width:240px; margin: auto;"">
                                <img src=""images/gray_35.png"" style= ""width:200px""alt=""img"">
                            </div>
                        </div>","73","","0","images/gray_35.png","","","","disturbing"
"","","","","","html-slider-response","95","369129","0.0-91.0","8uwt1zc7xu","NaN","<div style=""width:500px;"">
                            <p style=""font-size:50px; font-weight:bold;""
                            >disturbing</p>
                            <div style=""width:240px; margin: auto;"">
                                <img src=""images/gray_43.png"" style= ""width:200px""alt=""img"">
                            </div>
                        </div>","-62","","0","images/gray_43.png","","","","disturbing"
"","","","","","html-slider-response","96","373845","0.0-92.0","8uwt1zc7xu","NaN","<div style=""width:500px;"">
                            <p style=""font-size:50px; font-weight:bold;""
                            >disturbing</p>
                            <div style=""width:240px; margin: auto;"">
                                <img src=""images/gray_26.png"" style= ""width:200px""alt=""img"">
                            </div>
                        </div>","-31","","0","images/gray_26.png","","","","disturbing"
"","","","","","html-slider-response","97","376428","0.0-93.0","8uwt1zc7xu","NaN","<div style=""width:500px;"">
                            <p style=""font-size:50px; font-weight:bold;""
                            >disturbing</p>
                            <div style=""width:240px; margin: auto;"">
                                <img src=""images/gray_40.png"" style= ""width:200px""alt=""img"">
                            </div>
                        </div>","10","","0","images/gray_40.png","","","","disturbing"
"","","","","","html-slider-response","98","378211","0.0-94.0","8uwt1zc7xu","NaN","<div style=""width:500px;"">
                            <p style=""font-size:50px; font-weight:bold;""
                            >disturbing</p>
                            <div style=""width:240px; margin: auto;"">
                                <img src=""images/gray_23.png"" style= ""width:200px""alt=""img"">
                            </div>
                        </div>","74","","0","images/gray_23.png","","","","disturbing"
"","","","","","html-slider-response","99","380744","0.0-95.0","8uwt1zc7xu","NaN","<div style=""width:500px;"">
                            <p style=""font-size:50px; font-weight:bold;""
                            >disturbing</p>
                            <div style=""width:240px; margin: auto;"">
                                <img src=""images/gray_03.png"" style= ""width:200px""alt=""img"">
                            </div>
                        </div>","73","","0","images/gray_03.png","","","","disturbing"
"","","","","","html-slider-response","100","382643","0.0-96.0","8uwt1zc7xu","NaN","<div style=""width:500px;"">
                            <p style=""font-size:50px; font-weight:bold;""
                            >disturbing</p>
                            <div style=""width:240px; margin: auto;"">
                                <img src=""images/gray_06.png"" style= ""width:200px""alt=""img"">
                            </div>
                        </div>","-34","","0","images/gray_06.png","","","","disturbing"
"","","","","","html-slider-response","101","384394","0.0-97.0","8uwt1zc7xu","NaN","<div style=""width:500px;"">
                            <p style=""font-size:50px; font-weight:bold;""
                            >disturbing</p>
                            <div style=""width:240px; margin: auto;"">
                                <img src=""images/gray_17.png"" style= ""width:200px""alt=""img"">
                            </div>
                        </div>","86","","0","images/gray_17.png","","","","disturbing"
"","","","","","html-slider-response","102","386210","0.0-98.0","8uwt1zc7xu","NaN","<div style=""width:500px;"">
                            <p style=""font-size:50px; font-weight:bold;""
                            >disturbing</p>
                            <div style=""width:240px; margin: auto;"">
                                <img src=""images/gray_13.png"" style= ""width:200px""alt=""img"">
                            </div>
                        </div>","38","","0","images/gray_13.png","","","","disturbing"
"","","","","","html-slider-response","103","388110","0.0-99.0","8uwt1zc7xu","NaN","<div style=""width:500px;"">
                            <p style=""font-size:50px; font-weight:bold;""
                            >disturbing</p>
                            <div style=""width:240px; margin: auto;"">
                                <img src=""images/gray_42.png"" style= ""width:200px""alt=""img"">
                            </div>
                        </div>","16","","0","images/gray_42.png","","","","disturbing"
"","","","","","html-slider-response","104","390194","0.0-100.0","8uwt1zc7xu","NaN","<div style=""width:500px;"">
                            <p style=""font-size:50px; font-weight:bold;""
                            >disturbing</p>
                            <div style=""width:240px; margin: auto;"">
                                <img src=""images/gray_30.png"" style= ""width:200px""alt=""img"">
                            </div>
                        </div>","94","","0","images/gray_30.png","","","","disturbing"
"","","","","","html-slider-response","105","393060","0.0-101.0","8uwt1zc7xu","NaN","<div style=""width:500px;"">
                            <p style=""font-size:50px; font-weight:bold;""
                            >disturbing</p>
                            <div style=""width:240px; margin: auto;"">
                                <img src=""images/gray_29.png"" style= ""width:200px""alt=""img"">
                            </div>
                        </div>","8","","0","images/gray_29.png","","","","disturbing"
"","","","","","html-slider-response","106","395245","0.0-102.0","8uwt1zc7xu","NaN","<div style=""width:500px;"">
                            <p style=""font-size:50px; font-weight:bold;""
                            >disturbing</p>
                            <div style=""width:240px; margin: auto;"">
                                <img src=""images/gray_27.png"" style= ""width:200px""alt=""img"">
                            </div>
                        </div>","122","","0","images/gray_27.png","","","","disturbing"
"","","","","","html-slider-response","107","397843","0.0-103.0","8uwt1zc7xu","NaN","<div style=""width:500px;"">
                            <p style=""font-size:50px; font-weight:bold;""
                            >disturbing</p>
                            <div style=""width:240px; margin: auto;"">
                                <img src=""images/gray_15.png"" style= ""width:200px""alt=""img"">
                            </div>
                        </div>","-9","","0","images/gray_15.png","","","","disturbing"
"","","","","","html-button-response","108","399565","0.0-104.0","8uwt1zc7xu","1220","<p>Great Job! You've finished block 2.<br></br> You have 6 block(s) left to go.<br></br></p>","0","","","","","","",""
"","","","","","html-button-response","109","400516","0.0-105.0","8uwt1zc7xu","950","<p>In this block of trials, you will be asked to rate how much you associate each map with:</p > <p style = 'font-size:150%; font-weight: bold'>playful</p><br></br>","0","","","","","","",""
"","","","","","html-slider-response","110","402876","0.0-106.0","8uwt1zc7xu","NaN","<div style=""width:500px;"">
                            <p style=""font-size:50px; font-weight:bold;""
                            >playful</p>
                            <div style=""width:240px; margin: auto;"">
                                <img src=""images/gray_18.png"" style= ""width:200px""alt=""img"">
                            </div>
                        </div>","196","","0","images/gray_18.png","","","","playful"
"","","","","","html-slider-response","111","405058","0.0-107.0","8uwt1zc7xu","NaN","<div style=""width:500px;"">
                            <p style=""font-size:50px; font-weight:bold;""
                            >playful</p>
                            <div style=""width:240px; margin: auto;"">
                                <img src=""images/gray_30.png"" style= ""width:200px""alt=""img"">
                            </div>
                        </div>","122","","0","images/gray_30.png","","","","playful"
"","","","","","html-slider-response","112","406809","0.0-108.0","8uwt1zc7xu","NaN","<div style=""width:500px;"">
                            <p style=""font-size:50px; font-weight:bold;""
                            >playful</p>
                            <div style=""width:240px; margin: auto;"">
                                <img src=""images/gray_28.png"" style= ""width:200px""alt=""img"">
                            </div>
                        </div>","79","","0","images/gray_28.png","","","","playful"
"","","","","","html-slider-response","113","408561","0.0-109.0","8uwt1zc7xu","NaN","<div style=""width:500px;"">
                            <p style=""font-size:50px; font-weight:bold;""
                            >playful</p>
                            <div style=""width:240px; margin: auto;"">
                                <img src=""images/gray_02.png"" style= ""width:200px""alt=""img"">
                            </div>
                        </div>","-75","","0","images/gray_02.png","","","","playful"
"","","","","","html-slider-response","114","410410","0.0-110.0","8uwt1zc7xu","NaN","<div style=""width:500px;"">
                            <p style=""font-size:50px; font-weight:bold;""
                            >playful</p>
                            <div style=""width:240px; margin: auto;"">
                                <img src=""images/gray_24.png"" style= ""width:200px""alt=""img"">
                            </div>
                        </div>","-96","","0","images/gray_24.png","","","","playful"
"","","","","","html-slider-response","115","413426","0.0-111.0","8uwt1zc7xu","NaN","<div style=""width:500px;"">
                            <p style=""font-size:50px; font-weight:bold;""
                            >playful</p>
                            <div style=""width:240px; margin: auto;"">
                                <img src=""images/gray_31.png"" style= ""width:200px""alt=""img"">
                            </div>
                        </div>","41","","0","images/gray_31.png","","","","playful"
"","","","","","html-slider-response","116","415658","0.0-112.0","8uwt1zc7xu","NaN","<div style=""width:500px;"">
                            <p style=""font-size:50px; font-weight:bold;""
                            >playful</p>
                            <div style=""width:240px; margin: auto;"">
                                <img src=""images/gray_38.png"" style= ""width:200px""alt=""img"">
                            </div>
                        </div>","108","","0","images/gray_38.png","","","","playful"
"","","","","","html-slider-response","117","417575","0.0-113.0","8uwt1zc7xu","NaN","<div style=""width:500px;"">
                            <p style=""font-size:50px; font-weight:bold;""
                            >playful</p>
                            <div style=""width:240px; margin: auto;"">
                                <img src=""images/gray_13.png"" style= ""width:200px""alt=""img"">
                            </div>
                        </div>","61","","0","images/gray_13.png","","","","playful"
"","","","","","html-slider-response","118","419409","0.0-114.0","8uwt1zc7xu","NaN","<div style=""width:500px;"">
                            <p style=""font-size:50px; font-weight:bold;""
                            >playful</p>
                            <div style=""width:240px; margin: auto;"">
                                <img src=""images/gray_27.png"" style= ""width:200px""alt=""img"">
                            </div>
                        </div>","130","","0","images/gray_27.png","","","","playful"
"","","","","","html-slider-response","119","421425","0.0-115.0","8uwt1zc7xu","NaN","<div style=""width:500px;"">
                            <p style=""font-size:50px; font-weight:bold;""
                            >playful</p>
                            <div style=""width:240px; margin: auto;"">
                                <img src=""images/gray_29.png"" style= ""width:200px""alt=""img"">
                            </div>
                        </div>","-128","","0","images/gray_29.png","","","","playful"
"","","","","","html-slider-response","120","422993","0.0-116.0","8uwt1zc7xu","NaN","<div style=""width:500px;"">
                            <p style=""font-size:50px; font-weight:bold;""
                            >playful</p>
                            <div style=""width:240px; margin: auto;"">
                                <img src=""images/gray_11.png"" style= ""width:200px""alt=""img"">
                            </div>
                        </div>","81","","0","images/gray_11.png","","","","playful"
"","","","","","html-slider-response","121","424875","0.0-117.0","8uwt1zc7xu","NaN","<div style=""width:500px;"">
                            <p style=""font-size:50px; font-weight:bold;""
                            >playful</p>
                            <div style=""width:240px; margin: auto;"">
                                <img src=""images/gray_16.png"" style= ""width:200px""alt=""img"">
                            </div>
                        </div>","-58","","0","images/gray_16.png","","","","playful"
"","","","","","html-slider-response","122","426408","0.0-118.0","8uwt1zc7xu","NaN","<div style=""width:500px;"">
                            <p style=""font-size:50px; font-weight:bold;""
                            >playful</p>
                            <div style=""width:240px; margin: auto;"">
                                <img src=""images/gray_44.png"" style= ""width:200px""alt=""img"">
                            </div>
                        </div>","70","","0","images/gray_44.png","","","","playful"
"","","","","","html-slider-response","123","428175","0.0-119.0","8uwt1zc7xu","NaN","<div style=""width:500px;"">
                            <p style=""font-size:50px; font-weight:bold;""
                            >playful</p>
                            <div style=""width:240px; margin: auto;"">
                                <img src=""images/gray_19.png"" style= ""width:200px""alt=""img"">
                            </div>
                        </div>","36","","0","images/gray_19.png","","","","playful"
"","","","","","html-slider-response","124","430791","0.0-120.0","8uwt1zc7xu","NaN","<div style=""width:500px;"">
                            <p style=""font-size:50px; font-weight:bold;""
                            >playful</p>
                            <div style=""width:240px; margin: auto;"">
                                <img src=""images/gray_01.png"" style= ""width:200px""alt=""img"">
                            </div>
                        </div>","-53","","0","images/gray_01.png","","","","playful"
"","","","","","html-slider-response","125","433541","0.0-121.0","8uwt1zc7xu","NaN","<div style=""width:500px;"">
                            <p style=""font-size:50px; font-weight:bold;""
                            >playful</p>
                            <div style=""width:240px; margin: auto;"">
                                <img src=""images/gray_14.png"" style= ""width:200px""alt=""img"">
                            </div>
                        </div>","-22","","0","images/gray_14.png","","","","playful"
"","","","","","html-slider-response","126","434991","0.0-122.0","8uwt1zc7xu","NaN","<div style=""width:500px;"">
                            <p style=""font-size:50px; font-weight:bold;""
                            >playful</p>
                            <div style=""width:240px; margin: auto;"">
                                <img src=""images/gray_42.png"" style= ""width:200px""alt=""img"">
                            </div>
                        </div>","-58","","0","images/gray_42.png","","","","playful"
"","","","","","html-slider-response","127","436541","0.0-123.0","8uwt1zc7xu","NaN","<div style=""width:500px;"">
                            <p style=""font-size:50px; font-weight:bold;""
                            >playful</p>
                            <div style=""width:240px; margin: auto;"">
                                <img src=""images/gray_41.png"" style= ""width:200px""alt=""img"">
                            </div>
                        </div>","-69","","0","images/gray_41.png","","","","playful"
"","","","","","html-slider-response","128","439141","0.0-124.0","8uwt1zc7xu","NaN","<div style=""width:500px;"">
                            <p style=""font-size:50px; font-weight:bold;""
                            >playful</p>
                            <div style=""width:240px; margin: auto;"">
                                <img src=""images/gray_07.png"" style= ""width:200px""alt=""img"">
                            </div>
                        </div>","66","","0","images/gray_07.png","","","","playful"
"","","","","","html-slider-response","129","441441","0.0-125.0","8uwt1zc7xu","NaN","<div style=""width:500px;"">
                            <p style=""font-size:50px; font-weight:bold;""
                            >playful</p>
                            <div style=""width:240px; margin: auto;"">
                                <img src=""images/gray_23.png"" style= ""width:200px""alt=""img"">
                            </div>
                        </div>","-86","","0","images/gray_23.png","","","","playful"
"","","","","","html-slider-response","130","457407","0.0-126.0","8uwt1zc7xu","NaN","<div style=""width:500px;"">
                            <p style=""font-size:50px; font-weight:bold;""
                            >playful</p>
                            <div style=""width:240px; margin: auto;"">
                                <img src=""images/gray_17.png"" style= ""width:200px""alt=""img"">
                            </div>
                        </div>","20","","0","images/gray_17.png","","","","playful"
"","","","","","html-slider-response","131","461091","0.0-127.0","8uwt1zc7xu","NaN","<div style=""width:500px;"">
                            <p style=""font-size:50px; font-weight:bold;""
                            >playful</p>
                            <div style=""width:240px; margin: auto;"">
                                <img src=""images/gray_32.png"" style= ""width:200px""alt=""img"">
                            </div>
                        </div>","10","","0","images/gray_32.png","","","","playful"
"","","","","","html-slider-response","132","463790","0.0-128.0","8uwt1zc7xu","NaN","<div style=""width:500px;"">
                            <p style=""font-size:50px; font-weight:bold;""
                            >playful</p>
                            <div style=""width:240px; margin: auto;"">
                                <img src=""images/gray_33.png"" style= ""width:200px""alt=""img"">
                            </div>
                        </div>","76","","0","images/gray_33.png","","","","playful"
"","","","","","html-slider-response","133","466611","0.0-129.0","8uwt1zc7xu","NaN","<div style=""width:500px;"">
                            <p style=""font-size:50px; font-weight:bold;""
                            >playful</p>
                            <div style=""width:240px; margin: auto;"">
                                <img src=""images/gray_21.png"" style= ""width:200px""alt=""img"">
                            </div>
                        </div>","158","","0","images/gray_21.png","","","","playful"
"","","","","","html-slider-response","134","469056","0.0-130.0","8uwt1zc7xu","NaN","<div style=""width:500px;"">
                            <p style=""font-size:50px; font-weight:bold;""
                            >playful</p>
                            <div style=""width:240px; margin: auto;"">
                                <img src=""images/gray_10.png"" style= ""width:200px""alt=""img"">
                            </div>
                        </div>","-27","","0","images/gray_10.png","","","","playful"
"","","","","","html-slider-response","135","471156","0.0-131.0","8uwt1zc7xu","NaN","<div style=""width:500px;"">
                            <p style=""font-size:50px; font-weight:bold;""
                            >playful</p>
                            <div style=""width:240px; margin: auto;"">
                                <img src=""images/gray_15.png"" style= ""width:200px""alt=""img"">
                            </div>
                        </div>","13","","0","images/gray_15.png","","","","playful"
"","","","","","html-slider-response","136","473757","0.0-132.0","8uwt1zc7xu","NaN","<div style=""width:500px;"">
                            <p style=""font-size:50px; font-weight:bold;""
                            >playful</p>
                            <div style=""width:240px; margin: auto;"">
                                <img src=""images/gray_03.png"" style= ""width:200px""alt=""img"">
                            </div>
                        </div>","-87","","0","images/gray_03.png","","","","playful"
"","","","","","html-slider-response","137","476539","0.0-133.0","8uwt1zc7xu","NaN","<div style=""width:500px;"">
                            <p style=""font-size:50px; font-weight:bold;""
                            >playful</p>
                            <div style=""width:240px; margin: auto;"">
                                <img src=""images/gray_39.png"" style= ""width:200px""alt=""img"">
                            </div>
                        </div>","-17","","0","images/gray_39.png","","","","playful"
"","","","","","html-slider-response","138","478640","0.0-134.0","8uwt1zc7xu","NaN","<div style=""width:500px;"">
                            <p style=""font-size:50px; font-weight:bold;""
                            >playful</p>
                            <div style=""width:240px; margin: auto;"">
                                <img src=""images/gray_22.png"" style= ""width:200px""alt=""img"">
                            </div>
                        </div>","-2","","0","images/gray_22.png","","","","playful"
"","","","","","html-slider-response","139","480724","0.0-135.0","8uwt1zc7xu","NaN","<div style=""width:500px;"">
                            <p style=""font-size:50px; font-weight:bold;""
                            >playful</p>
                            <div style=""width:240px; margin: auto;"">
                                <img src=""images/gray_26.png"" style= ""width:200px""alt=""img"">
                            </div>
                        </div>","37","","0","images/gray_26.png","","","","playful"
"","","","","","html-slider-response","140","482539","0.0-136.0","8uwt1zc7xu","NaN","<div style=""width:500px;"">
                            <p style=""font-size:50px; font-weight:bold;""
                            >playful</p>
                            <div style=""width:240px; margin: auto;"">
                                <img src=""images/gray_20.png"" style= ""width:200px""alt=""img"">
                            </div>
                        </div>","93","","0","images/gray_20.png","","","","playful"
"","","","","","html-slider-response","141","483939","0.0-137.0","8uwt1zc7xu","NaN","<div style=""width:500px;"">
                            <p style=""font-size:50px; font-weight:bold;""
                            >playful</p>
                            <div style=""width:240px; margin: auto;"">
                                <img src=""images/gray_04.png"" style= ""width:200px""alt=""img"">
                            </div>
                        </div>","30","","0","images/gray_04.png","","","","playful"
"","","","","","html-slider-response","142","485638","0.0-138.0","8uwt1zc7xu","NaN","<div style=""width:500px;"">
                            <p style=""font-size:50px; font-weight:bold;""
                            >playful</p>
                            <div style=""width:240px; margin: auto;"">
                                <img src=""images/gray_08.png"" style= ""width:200px""alt=""img"">
                            </div>
                        </div>","-44","","0","images/gray_08.png","","","","playful"
"","","","","","html-slider-response","143","487022","0.0-139.0","8uwt1zc7xu","NaN","<div style=""width:500px;"">
                            <p style=""font-size:50px; font-weight:bold;""
                            >playful</p>
                            <div style=""width:240px; margin: auto;"">
                                <img src=""images/gray_05.png"" style= ""width:200px""alt=""img"">
                            </div>
                        </div>","69","","0","images/gray_05.png","","","","playful"
"","","","","","html-slider-response","144","488322","0.0-140.0","8uwt1zc7xu","NaN","<div style=""width:500px;"">
                            <p style=""font-size:50px; font-weight:bold;""
                            >playful</p>
                            <div style=""width:240px; margin: auto;"">
                                <img src=""images/gray_25.png"" style= ""width:200px""alt=""img"">
                            </div>
                        </div>","69","","0","images/gray_25.png","","","","playful"
"","","","","","html-slider-response","145","490288","0.0-141.0","8uwt1zc7xu","NaN","<div style=""width:500px;"">
                            <p style=""font-size:50px; font-weight:bold;""
                            >playful</p>
                            <div style=""width:240px; margin: auto;"">
                                <img src=""images/gray_40.png"" style= ""width:200px""alt=""img"">
                            </div>
                        </div>","-59","","0","images/gray_40.png","","","","playful"
"","","","","","html-slider-response","146","491922","0.0-142.0","8uwt1zc7xu","NaN","<div style=""width:500px;"">
                            <p style=""font-size:50px; font-weight:bold;""
                            >playful</p>
                            <div style=""width:240px; margin: auto;"">
                                <img src=""images/gray_06.png"" style= ""width:200px""alt=""img"">
                            </div>
                        </div>","-62","","0","images/gray_06.png","","","","playful"
"","","","","","html-slider-response","147","494056","0.0-143.0","8uwt1zc7xu","NaN","<div style=""width:500px;"">
                            <p style=""font-size:50px; font-weight:bold;""
                            >playful</p>
                            <div style=""width:240px; margin: auto;"">
                                <img src=""images/gray_35.png"" style= ""width:200px""alt=""img"">
                            </div>
                        </div>","111","","0","images/gray_35.png","","","","playful"
"","","","","","html-slider-response","148","495823","0.0-144.0","8uwt1zc7xu","NaN","<div style=""width:500px;"">
                            <p style=""font-size:50px; font-weight:bold;""
                            >playful</p>
                            <div style=""width:240px; margin: auto;"">
                                <img src=""images/gray_43.png"" style= ""width:200px""alt=""img"">
                            </div>
                        </div>","48","","0","images/gray_43.png","","","","playful"
"","","","","","html-slider-response","149","498105","0.0-145.0","8uwt1zc7xu","NaN","<div style=""width:500px;"">
                            <p style=""font-size:50px; font-weight:bold;""
                            >playful</p>
                            <div style=""width:240px; margin: auto;"">
                                <img src=""images/gray_36.png"" style= ""width:200px""alt=""img"">
                            </div>
                        </div>","120","","0","images/gray_36.png","","","","playful"
"","","","","","html-slider-response","150","500355","0.0-146.0","8uwt1zc7xu","NaN","<div style=""width:500px;"">
                            <p style=""font-size:50px; font-weight:bold;""
                            >playful</p>
                            <div style=""width:240px; margin: auto;"">
                                <img src=""images/gray_12.png"" style= ""width:200px""alt=""img"">
                            </div>
                        </div>","64","","0","images/gray_12.png","","","","playful"
"","","","","","html-slider-response","151","502272","0.0-147.0","8uwt1zc7xu","NaN","<div style=""width:500px;"">
                            <p style=""font-size:50px; font-weight:bold;""
                            >playful</p>
                            <div style=""width:240px; margin: auto;"">
                                <img src=""images/gray_34.png"" style= ""width:200px""alt=""img"">
                            </div>
                        </div>","42","","0","images/gray_34.png","","","","playful"
"","","","","","html-slider-response","152","505110","0.0-148.0","8uwt1zc7xu","NaN","<div style=""width:500px;"">
                            <p style=""font-size:50px; font-weight:bold;""
                            >playful</p>
                            <div style=""width:240px; margin: auto;"">
                                <img src=""images/gray_37.png"" style= ""width:200px""alt=""img"">
                            </div>
                        </div>","-105","","0","images/gray_37.png","","","","playful"
"","","","","","html-slider-response","153","507089","0.0-149.0","8uwt1zc7xu","NaN","<div style=""width:500px;"">
                            <p style=""font-size:50px; font-weight:bold;""
                            >playful</p>
                            <div style=""width:240px; margin: auto;"">
                                <img src=""images/gray_09.png"" style= ""width:200px""alt=""img"">
                            </div>
                        </div>","28","","0","images/gray_09.png","","","","playful"
"","","","","","html-button-response","154","509177","0.0-150.0","8uwt1zc7xu","1586","<p>Great Job! You've finished block 3.<br></br> You have 5 block(s) left to go.<br></br></p>","0","","","","","","",""
"","","","","","html-button-response","155","511026","0.0-151.0","8uwt1zc7xu","1848","<p>In this block of trials, you will be asked to rate how much you associate each map with:</p > <p style = 'font-size:150%; font-weight: bold'>negative</p><br></br>","0","","","","","","",""
"","","","","","html-slider-response","156","516854","0.0-152.0","8uwt1zc7xu","NaN","<div style=""width:500px;"">
                            <p style=""font-size:50px; font-weight:bold;""
                            >negative</p>
                            <div style=""width:240px; margin: auto;"">
                                <img src=""images/gray_41.png"" style= ""width:200px""alt=""img"">
                            </div>
                        </div>","26","","0","images/gray_41.png","","","","negative"
"","","","","","html-slider-response","157","518638","0.0-153.0","8uwt1zc7xu","NaN","<div style=""width:500px;"">
                            <p style=""font-size:50px; font-weight:bold;""
                            >negative</p>
                            <div style=""width:240px; margin: auto;"">
                                <img src=""images/gray_13.png"" style= ""width:200px""alt=""img"">
                            </div>
                        </div>","-26","","0","images/gray_13.png","","","","negative"
"","","","","","html-slider-response","158","520588","0.0-154.0","8uwt1zc7xu","NaN","<div style=""width:500px;"">
                            <p style=""font-size:50px; font-weight:bold;""
                            >negative</p>
                            <div style=""width:240px; margin: auto;"">
                                <img src=""images/gray_24.png"" style= ""width:200px""alt=""img"">
                            </div>
                        </div>","22","","0","images/gray_24.png","","","","negative"
"","","","","","html-slider-response","159","522321","0.0-155.0","8uwt1zc7xu","NaN","<div style=""width:500px;"">
                            <p style=""font-size:50px; font-weight:bold;""
                            >negative</p>
                            <div style=""width:240px; margin: auto;"">
                                <img src=""images/gray_22.png"" style= ""width:200px""alt=""img"">
                            </div>
                        </div>","59","","0","images/gray_22.png","","","","negative"
"","","","","","html-slider-response","160","523854","0.0-156.0","8uwt1zc7xu","NaN","<div style=""width:500px;"">
                            <p style=""font-size:50px; font-weight:bold;""
                            >negative</p>
                            <div style=""width:240px; margin: auto;"">
                                <img src=""images/gray_35.png"" style= ""width:200px""alt=""img"">
                            </div>
                        </div>","48","","0","images/gray_35.png","","","","negative"
"","","","","","html-slider-response","161","526738","0.0-157.0","8uwt1zc7xu","NaN","<div style=""width:500px;"">
                            <p style=""font-size:50px; font-weight:bold;""
                            >negative</p>
                            <div style=""width:240px; margin: auto;"">
                                <img src=""images/gray_07.png"" style= ""width:200px""alt=""img"">
                            </div>
                        </div>","0","","0","images/gray_07.png","","","","negative"
"","","","","","html-slider-response","162","529355","0.0-158.0","8uwt1zc7xu","NaN","<div style=""width:500px;"">
                            <p style=""font-size:50px; font-weight:bold;""
                            >negative</p>
                            <div style=""width:240px; margin: auto;"">
                                <img src=""images/gray_21.png"" style= ""width:200px""alt=""img"">
                            </div>
                        </div>","52","","0","images/gray_21.png","","","","negative"
"","","","","","html-slider-response","163","531870","0.0-159.0","8uwt1zc7xu","NaN","<div style=""width:500px;"">
                            <p style=""font-size:50px; font-weight:bold;""
                            >negative</p>
                            <div style=""width:240px; margin: auto;"">
                                <img src=""images/gray_32.png"" style= ""width:200px""alt=""img"">
                            </div>
                        </div>","12","","0","images/gray_32.png","","","","negative"
"","","","","","html-slider-response","164","534104","0.0-160.0","8uwt1zc7xu","NaN","<div style=""width:500px;"">
                            <p style=""font-size:50px; font-weight:bold;""
                            >negative</p>
                            <div style=""width:240px; margin: auto;"">
                                <img src=""images/gray_01.png"" style= ""width:200px""alt=""img"">
                            </div>
                        </div>","12","","0","images/gray_01.png","","","","negative"
"","","","","","html-slider-response","165","536653","0.0-161.0","8uwt1zc7xu","NaN","<div style=""width:500px;"">
                            <p style=""font-size:50px; font-weight:bold;""
                            >negative</p>
                            <div style=""width:240px; margin: auto;"">
                                <img src=""images/gray_17.png"" style= ""width:200px""alt=""img"">
                            </div>
                        </div>","-16","","0","images/gray_17.png","","","","negative"
"","","","","","html-slider-response","166","539253","0.0-162.0","8uwt1zc7xu","NaN","<div style=""width:500px;"">
                            <p style=""font-size:50px; font-weight:bold;""
                            >negative</p>
                            <div style=""width:240px; margin: auto;"">
                                <img src=""images/gray_19.png"" style= ""width:200px""alt=""img"">
                            </div>
                        </div>","-27","","0","images/gray_19.png","","","","negative"
"","","","","","html-slider-response","167","541853","0.0-163.0","8uwt1zc7xu","NaN","<div style=""width:500px;"">
                            <p style=""font-size:50px; font-weight:bold;""
                            >negative</p>
                            <div style=""width:240px; margin: auto;"">
                                <img src=""images/gray_03.png"" style= ""width:200px""alt=""img"">
                            </div>
                        </div>","21","","0","images/gray_03.png","","","","negative"
"","","","","","html-slider-response","168","543270","0.0-164.0","8uwt1zc7xu","NaN","<div style=""width:500px;"">
                            <p style=""font-size:50px; font-weight:bold;""
                            >negative</p>
                            <div style=""width:240px; margin: auto;"">
                                <img src=""images/gray_16.png"" style= ""width:200px""alt=""img"">
                            </div>
                        </div>","22","","0","images/gray_16.png","","","","negative"
"","","","","","html-slider-response","169","544820","0.0-165.0","8uwt1zc7xu","NaN","<div style=""width:500px;"">
                            <p style=""font-size:50px; font-weight:bold;""
                            >negative</p>
                            <div style=""width:240px; margin: auto;"">
                                <img src=""images/gray_25.png"" style= ""width:200px""alt=""img"">
                            </div>
                        </div>","27","","0","images/gray_25.png","","","","negative"
"","","","","","html-slider-response","170","546086","0.0-166.0","8uwt1zc7xu","NaN","<div style=""width:500px;"">
                            <p style=""font-size:50px; font-weight:bold;""
                            >negative</p>
                            <div style=""width:240px; margin: auto;"">
                                <img src=""images/gray_09.png"" style= ""width:200px""alt=""img"">
                            </div>
                        </div>","34","","0","images/gray_09.png","","","","negative"
"","","","","","html-slider-response","171","547436","0.0-167.0","8uwt1zc7xu","NaN","<div style=""width:500px;"">
                            <p style=""font-size:50px; font-weight:bold;""
                            >negative</p>
                            <div style=""width:240px; margin: auto;"">
                                <img src=""images/gray_43.png"" style= ""width:200px""alt=""img"">
                            </div>
                        </div>","34","","0","images/gray_43.png","","","","negative"
"","","","","","html-slider-response","172","548719","0.0-168.0","8uwt1zc7xu","NaN","<div style=""width:500px;"">
                            <p style=""font-size:50px; font-weight:bold;""
                            >negative</p>
                            <div style=""width:240px; margin: auto;"">
                                <img src=""images/gray_30.png"" style= ""width:200px""alt=""img"">
                            </div>
                        </div>","26","","0","images/gray_30.png","","","","negative"
"","","","","","html-slider-response","173","551036","0.0-169.0","8uwt1zc7xu","NaN","<div style=""width:500px;"">
                            <p style=""font-size:50px; font-weight:bold;""
                            >negative</p>
                            <div style=""width:240px; margin: auto;"">
                                <img src=""images/gray_28.png"" style= ""width:200px""alt=""img"">
                            </div>
                        </div>","65","","0","images/gray_28.png","","","","negative"
"","","","","","html-slider-response","174","552671","0.0-170.0","8uwt1zc7xu","NaN","<div style=""width:500px;"">
                            <p style=""font-size:50px; font-weight:bold;""
                            >negative</p>
                            <div style=""width:240px; margin: auto;"">
                                <img src=""images/gray_18.png"" style= ""width:200px""alt=""img"">
                            </div>
                        </div>","74","","0","images/gray_18.png","","","","negative"
"","","","","","html-slider-response","175","554336","0.0-171.0","8uwt1zc7xu","NaN","<div style=""width:500px;"">
                            <p style=""font-size:50px; font-weight:bold;""
                            >negative</p>
                            <div style=""width:240px; margin: auto;"">
                                <img src=""images/gray_40.png"" style= ""width:200px""alt=""img"">
                            </div>
                        </div>","87","","0","images/gray_40.png","","","","negative"
"","","","","","html-slider-response","176","555853","0.0-172.0","8uwt1zc7xu","NaN","<div style=""width:500px;"">
                            <p style=""font-size:50px; font-weight:bold;""
                            >negative</p>
                            <div style=""width:240px; margin: auto;"">
                                <img src=""images/gray_10.png"" style= ""width:200px""alt=""img"">
                            </div>
                        </div>","95","","0","images/gray_10.png","","","","negative"
"","","","","","html-slider-response","177","557585","0.0-173.0","8uwt1zc7xu","NaN","<div style=""width:500px;"">
                            <p style=""font-size:50px; font-weight:bold;""
                            >negative</p>
                            <div style=""width:240px; margin: auto;"">
                                <img src=""images/gray_23.png"" style= ""width:200px""alt=""img"">
                            </div>
                        </div>","55","","0","images/gray_23.png","","","","negative"
"","","","","","html-slider-response","178","560319","0.0-174.0","8uwt1zc7xu","NaN","<div style=""width:500px;"">
                            <p style=""font-size:50px; font-weight:bold;""
                            >negative</p>
                            <div style=""width:240px; margin: auto;"">
                                <img src=""images/gray_14.png"" style= ""width:200px""alt=""img"">
                            </div>
                        </div>","-10","","0","images/gray_14.png","","","","negative"
"","","","","","html-slider-response","179","562003","0.0-175.0","8uwt1zc7xu","NaN","<div style=""width:500px;"">
                            <p style=""font-size:50px; font-weight:bold;""
                            >negative</p>
                            <div style=""width:240px; margin: auto;"">
                                <img src=""images/gray_08.png"" style= ""width:200px""alt=""img"">
                            </div>
                        </div>","58","","0","images/gray_08.png","","","","negative"
"","","","","","html-slider-response","180","565436","0.0-176.0","8uwt1zc7xu","NaN","<div style=""width:500px;"">
                            <p style=""font-size:50px; font-weight:bold;""
                            >negative</p>
                            <div style=""width:240px; margin: auto;"">
                                <img src=""images/gray_29.png"" style= ""width:200px""alt=""img"">
                            </div>
                        </div>","15","","0","images/gray_29.png","","","","negative"
"","","","","","html-slider-response","181","568720","0.0-177.0","8uwt1zc7xu","NaN","<div style=""width:500px;"">
                            <p style=""font-size:50px; font-weight:bold;""
                            >negative</p>
                            <div style=""width:240px; margin: auto;"">
                                <img src=""images/gray_31.png"" style= ""width:200px""alt=""img"">
                            </div>
                        </div>","-86","","0","images/gray_31.png","","","","negative"
"","","","","","html-slider-response","182","573552","0.0-178.0","8uwt1zc7xu","NaN","<div style=""width:500px;"">
                            <p style=""font-size:50px; font-weight:bold;""
                            >negative</p>
                            <div style=""width:240px; margin: auto;"">
                                <img src=""images/gray_34.png"" style= ""width:200px""alt=""img"">
                            </div>
                        </div>","-76","","0","images/gray_34.png","","","","negative"
"","","","","","html-slider-response","183","575301","0.0-179.0","8uwt1zc7xu","NaN","<div style=""width:500px;"">
                            <p style=""font-size:50px; font-weight:bold;""
                            >negative</p>
                            <div style=""width:240px; margin: auto;"">
                                <img src=""images/gray_37.png"" style= ""width:200px""alt=""img"">
                            </div>
                        </div>","-16","","0","images/gray_37.png","","","","negative"
"","","","","","html-slider-response","184","578034","0.0-180.0","8uwt1zc7xu","NaN","<div style=""width:500px;"">
                            <p style=""font-size:50px; font-weight:bold;""
                            >negative</p>
                            <div style=""width:240px; margin: auto;"">
                                <img src=""images/gray_12.png"" style= ""width:200px""alt=""img"">
                            </div>
                        </div>","-18","","0","images/gray_12.png","","","","negative"
"","","","","","html-slider-response","185","579351","0.0-181.0","8uwt1zc7xu","NaN","<div style=""width:500px;"">
                            <p style=""font-size:50px; font-weight:bold;""
                            >negative</p>
                            <div style=""width:240px; margin: auto;"">
                                <img src=""images/gray_42.png"" style= ""width:200px""alt=""img"">
                            </div>
                        </div>","-18","","0","images/gray_42.png","","","","negative"
"","","","","","html-slider-response","186","580418","0.0-182.0","8uwt1zc7xu","NaN","<div style=""width:500px;"">
                            <p style=""font-size:50px; font-weight:bold;""
                            >negative</p>
                            <div style=""width:240px; margin: auto;"">
                                <img src=""images/gray_39.png"" style= ""width:200px""alt=""img"">
                            </div>
                        </div>","-34","","0","images/gray_39.png","","","","negative"
"","","","","","html-slider-response","187","582468","0.0-183.0","8uwt1zc7xu","NaN","<div style=""width:500px;"">
                            <p style=""font-size:50px; font-weight:bold;""
                            >negative</p>
                            <div style=""width:240px; margin: auto;"">
                                <img src=""images/gray_11.png"" style= ""width:200px""alt=""img"">
                            </div>
                        </div>","55","","0","images/gray_11.png","","","","negative"
"","","","","","html-slider-response","188","583668","0.0-184.0","8uwt1zc7xu","NaN","<div style=""width:500px;"">
                            <p style=""font-size:50px; font-weight:bold;""
                            >negative</p>
                            <div style=""width:240px; margin: auto;"">
                                <img src=""images/gray_44.png"" style= ""width:200px""alt=""img"">
                            </div>
                        </div>","62","","0","images/gray_44.png","","","","negative"
"","","","","","html-slider-response","189","584984","0.0-185.0","8uwt1zc7xu","NaN","<div style=""width:500px;"">
                            <p style=""font-size:50px; font-weight:bold;""
                            >negative</p>
                            <div style=""width:240px; margin: auto;"">
                                <img src=""images/gray_04.png"" style= ""width:200px""alt=""img"">
                            </div>
                        </div>","60","","0","images/gray_04.png","","","","negative"
"","","","","","html-slider-response","190","587667","0.0-186.0","8uwt1zc7xu","NaN","<div style=""width:500px;"">
                            <p style=""font-size:50px; font-weight:bold;""
                            >negative</p>
                            <div style=""width:240px; margin: auto;"">
                                <img src=""images/gray_20.png"" style= ""width:200px""alt=""img"">
                            </div>
                        </div>","159","","0","images/gray_20.png","","","","negative"
"","","","","","html-slider-response","191","589517","0.0-187.0","8uwt1zc7xu","NaN","<div style=""width:500px;"">
                            <p style=""font-size:50px; font-weight:bold;""
                            >negative</p>
                            <div style=""width:240px; margin: auto;"">
                                <img src=""images/gray_38.png"" style= ""width:200px""alt=""img"">
                            </div>
                        </div>","66","","0","images/gray_38.png","","","","negative"
"","","","","","html-slider-response","192","591218","0.0-188.0","8uwt1zc7xu","NaN","<div style=""width:500px;"">
                            <p style=""font-size:50px; font-weight:bold;""
                            >negative</p>
                            <div style=""width:240px; margin: auto;"">
                                <img src=""images/gray_05.png"" style= ""width:200px""alt=""img"">
                            </div>
                        </div>","52","","0","images/gray_05.png","","","","negative"
"","","","","","html-slider-response","193","592887","0.0-189.0","8uwt1zc7xu","NaN","<div style=""width:500px;"">
                            <p style=""font-size:50px; font-weight:bold;""
                            >negative</p>
                            <div style=""width:240px; margin: auto;"">
                                <img src=""images/gray_06.png"" style= ""width:200px""alt=""img"">
                            </div>
                        </div>","56","","0","images/gray_06.png","","","","negative"
"","","","","","html-slider-response","194","594900","0.0-190.0","8uwt1zc7xu","NaN","<div style=""width:500px;"">
                            <p style=""font-size:50px; font-weight:bold;""
                            >negative</p>
                            <div style=""width:240px; margin: auto;"">
                                <img src=""images/gray_02.png"" style= ""width:200px""alt=""img"">
                            </div>
                        </div>","-90","","0","images/gray_02.png","","","","negative"
"","","","","","html-slider-response","195","596384","0.0-191.0","8uwt1zc7xu","NaN","<div style=""width:500px;"">
                            <p style=""font-size:50px; font-weight:bold;""
                            >negative</p>
                            <div style=""width:240px; margin: auto;"">
                                <img src=""images/gray_15.png"" style= ""width:200px""alt=""img"">
                            </div>
                        </div>","-101","","0","images/gray_15.png","","","","negative"
"","","","","","html-slider-response","196","598384","0.0-192.0","8uwt1zc7xu","NaN","<div style=""width:500px;"">
                            <p style=""font-size:50px; font-weight:bold;""
                            >negative</p>
                            <div style=""width:240px; margin: auto;"">
                                <img src=""images/gray_36.png"" style= ""width:200px""alt=""img"">
                            </div>
                        </div>","107","","0","images/gray_36.png","","","","negative"
"","","","","","html-slider-response","197","599834","0.0-193.0","8uwt1zc7xu","NaN","<div style=""width:500px;"">
                            <p style=""font-size:50px; font-weight:bold;""
                            >negative</p>
                            <div style=""width:240px; margin: auto;"">
                                <img src=""images/gray_33.png"" style= ""width:200px""alt=""img"">
                            </div>
                        </div>","121","","0","images/gray_33.png","","","","negative"
"","","","","","html-slider-response","198","602934","0.0-194.0","8uwt1zc7xu","NaN","<div style=""width:500px;"">
                            <p style=""font-size:50px; font-weight:bold;""
                            >negative</p>
                            <div style=""width:240px; margin: auto;"">
