"success","timeout","failed_images","failed_audio","failed_video","trial_type","trial_index","time_elapsed","internal_node_id","subject_id","rt","stimulus","response","question_order","slider_start","image_path","practiceTrial","practiceTrialNum","correct","concept"
"true","false","[]","[]","[]","preload","0","359","0.0-0.0","8w74r8lyle","","","","","","","","","",""
"","","","","","html-button-response","1","2987","0.0-1.0","8w74r8lyle","2627","Welcome to our experiment!<p>At the bottom of this screen, you will see a button that says ""Begin Experiment"".<br>Please only click that button when you are ready to complete the 25 minute experiment in one sitting.</p><p> Once you click that button, it will not be possible to restart the experiment.","0","","","","","","",""
"true","","","","","fullscreen","2","4965","0.0-2.0","8w74r8lyle","974","","","","","","","","",""
"","","","","","survey-multi-select","3","13724","0.0-3.0","8w74r8lyle","8754","","{""Consent"":[""<strong>I consent</strong>""]}","[0]","","","","","",""
"","","","","","html-button-response","4","17411","0.0-4.0","8w74r8lyle","3682","Welcome! <p> This experiment involves two parts: demographic information, followed by the experimental task.<p> It will take about 25 minutes to complete both parts.","0","","","","","","",""
"","","","","","survey-text","5","43853","0.0-5.0","8w74r8lyle","26428","","{""Age"":""21"",""Gender"":""Female"",""Race/ethnicity"":""White"",""Languages"":""English""}","","","","","","",""
"","","","","","html-slider-response","6","55535","0.0-6.0","8w74r8lyle","11679","
            <div style='text-align:left; font-size:20px; line-height:25px; width: 1200px;'>
                During this experiment you will be asked to rate how much you associate maps with    different concepts.<br> Below, you can see some examples of the maps you will be asked to rate. Next to the maps
    is the list of concepts.<br>You will be asked    to rate how much you associate each map with each concept on a scale from 'not at all' to 'very much' like the
    one below. <br><br>
    Now, please look at the list of concepts and maps. For each concept, think about the map you associate 'very
    much' with the concept.<br>     When you see that map during the experiment, please rate it near the 'very much' endpoint of the
    scale.<br>Now, please think about which map you associate 'not at all'     with each concept. When you see that map during the experiment, please rate it near the 'not at all' endpoint
    of the scale.<br>
    Please use the full range of the scale. That is, if a map is somewhat associated with the concept, you would
    click partway between the middle point and right side of the scale.    You will be asked to rate each map for a given concept before moving on to the next concept.<br><br>Press the
    'Continue' button for instructions on how to use the slider.    <br><br>
</div>

<div style=""width: 500px; margin: 0 auto;"">
    <div style=""text-align: left; width: 200px; float: left;"">
        <p style=""font-size:25px; line-height:18px;"">calm</p>
        <p style=""font-size:25px; line-height:18px;"">exciting</p>
        <p style=""font-size:25px;line-height:18px;"">positive</p>
        <p style=""font-size:25px;line-height:18px;"">negative</p>
        <p style=""font-size:25px;line-height:18px;"">serious</p>
        <p style=""font-size:25px;line-height:18px;"">playful</p>
        <p style=""font-size:25px;line-height:18px;"">trustworthy</p>
        <p style=""font-size:25px;line-height:18px;"">disturbing</p>
    </div>
    <div style=""width: 200px; float: right; padding-top:15px; padding-right:40px"">
        <br>
        <br>
        <img src=""maps_anchoring.png"" alt=""img"" style=""max-width:500px"">
    </div>
    <div style=""clear: both;""></div>
</div>
            ","39","","0","maps_anchoring.png","true","","",""
"","","","","","html-button-response","7","58287","0.0-7.0","8w74r8lyle","2750","<div style=""width:800px;""><p style=""text-align:left"">To move the slider, click and drag your cursor to the location of the scale where you would like to make your rating and then let go. When you let go of the slider, your response will be recorded and the next trial will begin. <br>
            We are interested in your initial impressions of each map for the given concept, so please go with your first intuition. <br>
            Before you begin the experiment, there will be four training trials for you to practice using the scale. <br>
             When you are ready to start the training trials, please click ""Continue"".</p><br></div>","0","","","","","","",""
"","","","","","html-slider-response","8","61777","0.0-8.0-0.0","8w74r8lyle","NaN","<div style=""width:500px;"">
                            <p style=""font-size:25px;"">Please move the slider all the way to the <br> right endpoint of the scale</p>

                            </div>
                        </div>","200","","0","","true","0","true",""
"","","","","","html-button-response","9","63207","0.0-8.0-1.0","8w74r8lyle","927","<p align='center'><b>Good job!</b> Click on 'Continue' to proceed.</p>","0","","","","","","",""
"","","","","","html-slider-response","10","65341","0.0-9.0-0.0","8w74r8lyle","NaN","<div style=""width:500px;"">
                            <p style=""font-size:25px;"">Please move the slider all the way to the <br> left endpoint of the scale</p>

                            </div>
                        </div>","-200","","0","","true","1","true",""
"","","","","","html-button-response","11","67164","0.0-9.0-1.0","8w74r8lyle","1320","<p align='center'><b>Good job!</b> Click on 'Continue' to proceed.</p>","0","","","","","","",""
"","","","","","html-slider-response","12","72902","0.0-10.0-0.0","8w74r8lyle","NaN","<div style=""width:500px;"">
                            <p style=""font-size:25px;"">Please move the slider halfway between the center and right endpoint of the scale</p>

                            </div>
                        </div>","94","","0","","true","2","true",""
"","","","","","html-button-response","13","74126","0.0-10.0-1.0","8w74r8lyle","720","<p align='center'><b>Good job!</b> Click on 'Continue' to proceed.</p>","0","","","","","","",""
"","","","","","html-slider-response","14","75920","0.0-11.0-0.0","8w74r8lyle","NaN","<div style=""width:500px;"">
                            <p style=""font-size:25px;"">Please move the slider halfway between the center and left endpoint of the scale</p>

                            </div>
                        </div>","-107","","0","","true","3","true",""
"","","","","","html-button-response","15","77146","0.0-11.0-1.0","8w74r8lyle","723","<p align='center'><b>Good job!</b> Click on 'Continue' to proceed.</p>","0","","","","","","",""
"","","","","","html-button-response","16","78018","0.0-12.0","8w74r8lyle","870","<p>Great job! You've completed the practice trials. Now you will begin the main task.</p>","0","","","","","","",""
"","","","","","html-button-response","17","81991","0.0-13.0","8w74r8lyle","3972","<p>In this block of trials, you will be asked to rate how much you associate each map with:</p > <p style = 'font-size:150%; font-weight: bold'>disturbing</p><br></br>","0","","","","","","",""
"","","","","","html-slider-response","18","86424","0.0-14.0","8w74r8lyle","NaN","<div style=""width:500px;"">
                            <p style=""font-size:50px; font-weight:bold;""
                            >disturbing</p>
                            <div style=""width:240px; margin: auto;"">
                                <img src=""images/gray_20.png"" style= ""width:200px""alt=""img"">
                            </div>
                        </div>","-99","","0","images/gray_20.png","","","","disturbing"
"","","","","","html-slider-response","19","89517","0.0-15.0","8w74r8lyle","NaN","<div style=""width:500px;"">
                            <p style=""font-size:50px; font-weight:bold;""
                            >disturbing</p>
                            <div style=""width:240px; margin: auto;"">
                                <img src=""images/gray_17.png"" style= ""width:200px""alt=""img"">
                            </div>
                        </div>","-57","","0","images/gray_17.png","","","","disturbing"
"","","","","","html-slider-response","20","91735","0.0-16.0","8w74r8lyle","NaN","<div style=""width:500px;"">
                            <p style=""font-size:50px; font-weight:bold;""
                            >disturbing</p>
                            <div style=""width:240px; margin: auto;"">
                                <img src=""images/gray_23.png"" style= ""width:200px""alt=""img"">
                            </div>
                        </div>","-90","","0","images/gray_23.png","","","","disturbing"
"","","","","","html-slider-response","21","95054","0.0-17.0","8w74r8lyle","NaN","<div style=""width:500px;"">
                            <p style=""font-size:50px; font-weight:bold;""
                            >disturbing</p>
                            <div style=""width:240px; margin: auto;"">
                                <img src=""images/gray_02.png"" style= ""width:200px""alt=""img"">
                            </div>
                        </div>","-127","","0","images/gray_02.png","","","","disturbing"
"","","","","","html-slider-response","22","97302","0.0-18.0","8w74r8lyle","NaN","<div style=""width:500px;"">
                            <p style=""font-size:50px; font-weight:bold;""
                            >disturbing</p>
                            <div style=""width:240px; margin: auto;"">
                                <img src=""images/gray_27.png"" style= ""width:200px""alt=""img"">
                            </div>
                        </div>","-142","","0","images/gray_27.png","","","","disturbing"
"","","","","","html-slider-response","23","100787","0.0-19.0","8w74r8lyle","NaN","<div style=""width:500px;"">
                            <p style=""font-size:50px; font-weight:bold;""
                            >disturbing</p>
                            <div style=""width:240px; margin: auto;"">
                                <img src=""images/gray_40.png"" style= ""width:200px""alt=""img"">
                            </div>
                        </div>","-150","","0","images/gray_40.png","","","","disturbing"
"","","","","","html-slider-response","24","103538","0.0-20.0","8w74r8lyle","NaN","<div style=""width:500px;"">
                            <p style=""font-size:50px; font-weight:bold;""
                            >disturbing</p>
                            <div style=""width:240px; margin: auto;"">
                                <img src=""images/gray_16.png"" style= ""width:200px""alt=""img"">
                            </div>
                        </div>","-145","","0","images/gray_16.png","","","","disturbing"
"","","","","","html-slider-response","25","105949","0.0-21.0","8w74r8lyle","NaN","<div style=""width:500px;"">
                            <p style=""font-size:50px; font-weight:bold;""
                            >disturbing</p>
                            <div style=""width:240px; margin: auto;"">
                                <img src=""images/gray_36.png"" style= ""width:200px""alt=""img"">
                            </div>
                        </div>","-154","","0","images/gray_36.png","","","","disturbing"
"","","","","","html-slider-response","26","110011","0.0-22.0","8w74r8lyle","NaN","<div style=""width:500px;"">
                            <p style=""font-size:50px; font-weight:bold;""
                            >disturbing</p>
                            <div style=""width:240px; margin: auto;"">
                                <img src=""images/gray_11.png"" style= ""width:200px""alt=""img"">
                            </div>
                        </div>","-143","","0","images/gray_11.png","","","","disturbing"
"","","","","","html-slider-response","27","116135","0.0-23.0","8w74r8lyle","NaN","<div style=""width:500px;"">
                            <p style=""font-size:50px; font-weight:bold;""
                            >disturbing</p>
                            <div style=""width:240px; margin: auto;"">
                                <img src=""images/gray_28.png"" style= ""width:200px""alt=""img"">
                            </div>
                        </div>","-82","","0","images/gray_28.png","","","","disturbing"
"","","","","","html-slider-response","28","118872","0.0-24.0","8w74r8lyle","NaN","<div style=""width:500px;"">
                            <p style=""font-size:50px; font-weight:bold;""
                            >disturbing</p>
                            <div style=""width:240px; margin: auto;"">
                                <img src=""images/gray_07.png"" style= ""width:200px""alt=""img"">
                            </div>
                        </div>","-157","","0","images/gray_07.png","","","","disturbing"
"","","","","","html-slider-response","29","120565","0.0-25.0","8w74r8lyle","NaN","<div style=""width:500px;"">
                            <p style=""font-size:50px; font-weight:bold;""
                            >disturbing</p>
                            <div style=""width:240px; margin: auto;"">
                                <img src=""images/gray_06.png"" style= ""width:200px""alt=""img"">
                            </div>
                        </div>","-29","","0","images/gray_06.png","","","","disturbing"
"","","","","","html-slider-response","30","123292","0.0-26.0","8w74r8lyle","NaN","<div style=""width:500px;"">
                            <p style=""font-size:50px; font-weight:bold;""
                            >disturbing</p>
                            <div style=""width:240px; margin: auto;"">
                                <img src=""images/gray_31.png"" style= ""width:200px""alt=""img"">
                            </div>
                        </div>","-163","","0","images/gray_31.png","","","","disturbing"
"","","","","","html-slider-response","31","126525","0.0-27.0","8w74r8lyle","NaN","<div style=""width:500px;"">
                            <p style=""font-size:50px; font-weight:bold;""
                            >disturbing</p>
                            <div style=""width:240px; margin: auto;"">
                                <img src=""images/gray_10.png"" style= ""width:200px""alt=""img"">
                            </div>
                        </div>","-34","","0","images/gray_10.png","","","","disturbing"
"","","","","","html-slider-response","32","128374","0.0-28.0","8w74r8lyle","NaN","<div style=""width:500px;"">
                            <p style=""font-size:50px; font-weight:bold;""
                            >disturbing</p>
                            <div style=""width:240px; margin: auto;"">
                                <img src=""images/gray_33.png"" style= ""width:200px""alt=""img"">
                            </div>
                        </div>","-25","","0","images/gray_33.png","","","","disturbing"
"","","","","","html-slider-response","33","131688","0.0-29.0","8w74r8lyle","NaN","<div style=""width:500px;"">
                            <p style=""font-size:50px; font-weight:bold;""
                            >disturbing</p>
                            <div style=""width:240px; margin: auto;"">
                                <img src=""images/gray_15.png"" style= ""width:200px""alt=""img"">
                            </div>
                        </div>","-169","","0","images/gray_15.png","","","","disturbing"
"","","","","","html-slider-response","34","135122","0.0-30.0","8w74r8lyle","NaN","<div style=""width:500px;"">
                            <p style=""font-size:50px; font-weight:bold;""
                            >disturbing</p>
                            <div style=""width:240px; margin: auto;"">
                                <img src=""images/gray_44.png"" style= ""width:200px""alt=""img"">
                            </div>
                        </div>","-143","","0","images/gray_44.png","","","","disturbing"
"","","","","","html-slider-response","35","137452","0.0-31.0","8w74r8lyle","NaN","<div style=""width:500px;"">
                            <p style=""font-size:50px; font-weight:bold;""
                            >disturbing</p>
                            <div style=""width:240px; margin: auto;"">
                                <img src=""images/gray_30.png"" style= ""width:200px""alt=""img"">
                            </div>
                        </div>","-138","","0","images/gray_30.png","","","","disturbing"
"","","","","","html-slider-response","36","139953","0.0-32.0","8w74r8lyle","NaN","<div style=""width:500px;"">
                            <p style=""font-size:50px; font-weight:bold;""
                            >disturbing</p>
                            <div style=""width:240px; margin: auto;"">
                                <img src=""images/gray_03.png"" style= ""width:200px""alt=""img"">
                            </div>
                        </div>","-134","","0","images/gray_03.png","","","","disturbing"
"","","","","","html-slider-response","37","141898","0.0-33.0","8w74r8lyle","NaN","<div style=""width:500px;"">
                            <p style=""font-size:50px; font-weight:bold;""
                            >disturbing</p>
                            <div style=""width:240px; margin: auto;"">
                                <img src=""images/gray_39.png"" style= ""width:200px""alt=""img"">
                            </div>
                        </div>","-166","","0","images/gray_39.png","","","","disturbing"
"","","","","","html-slider-response","38","143869","0.0-34.0","8w74r8lyle","NaN","<div style=""width:500px;"">
                            <p style=""font-size:50px; font-weight:bold;""
                            >disturbing</p>
                            <div style=""width:240px; margin: auto;"">
                                <img src=""images/gray_05.png"" style= ""width:200px""alt=""img"">
                            </div>
                        </div>","-157","","0","images/gray_05.png","","","","disturbing"
"","","","","","html-slider-response","39","145798","0.0-35.0","8w74r8lyle","NaN","<div style=""width:500px;"">
                            <p style=""font-size:50px; font-weight:bold;""
                            >disturbing</p>
                            <div style=""width:240px; margin: auto;"">
                                <img src=""images/gray_38.png"" style= ""width:200px""alt=""img"">
                            </div>
                        </div>","-147","","0","images/gray_38.png","","","","disturbing"
"","","","","","html-slider-response","40","148021","0.0-36.0","8w74r8lyle","NaN","<div style=""width:500px;"">
                            <p style=""font-size:50px; font-weight:bold;""
                            >disturbing</p>
                            <div style=""width:240px; margin: auto;"">
                                <img src=""images/gray_12.png"" style= ""width:200px""alt=""img"">
                            </div>
                        </div>","-162","","0","images/gray_12.png","","","","disturbing"
"","","","","","html-slider-response","41","150008","0.0-37.0","8w74r8lyle","NaN","<div style=""width:500px;"">
                            <p style=""font-size:50px; font-weight:bold;""
                            >disturbing</p>
                            <div style=""width:240px; margin: auto;"">
                                <img src=""images/gray_09.png"" style= ""width:200px""alt=""img"">
                            </div>
                        </div>","-158","","0","images/gray_09.png","","","","disturbing"
"","","","","","html-slider-response","42","151099","0.0-38.0","8w74r8lyle","NaN","<div style=""width:500px;"">
                            <p style=""font-size:50px; font-weight:bold;""
                            >disturbing</p>
                            <div style=""width:240px; margin: auto;"">
                                <img src=""images/gray_35.png"" style= ""width:200px""alt=""img"">
                            </div>
                        </div>","-158","","0","images/gray_35.png","","","","disturbing"
"","","","","","html-slider-response","43","153176","0.0-39.0","8w74r8lyle","NaN","<div style=""width:500px;"">
                            <p style=""font-size:50px; font-weight:bold;""
                            >disturbing</p>
                            <div style=""width:240px; margin: auto;"">
                                <img src=""images/gray_42.png"" style= ""width:200px""alt=""img"">
                            </div>
                        </div>","-156","","0","images/gray_42.png","","","","disturbing"
"","","","","","html-slider-response","44","155399","0.0-40.0","8w74r8lyle","NaN","<div style=""width:500px;"">
                            <p style=""font-size:50px; font-weight:bold;""
                            >disturbing</p>
                            <div style=""width:240px; margin: auto;"">
                                <img src=""images/gray_13.png"" style= ""width:200px""alt=""img"">
                            </div>
                        </div>","-134","","0","images/gray_13.png","","","","disturbing"
"","","","","","html-slider-response","45","157459","0.0-41.0","8w74r8lyle","NaN","<div style=""width:500px;"">
                            <p style=""font-size:50px; font-weight:bold;""
                            >disturbing</p>
                            <div style=""width:240px; margin: auto;"">
                                <img src=""images/gray_37.png"" style= ""width:200px""alt=""img"">
                            </div>
                        </div>","-127","","0","images/gray_37.png","","","","disturbing"
"","","","","","html-slider-response","46","158800","0.0-42.0","8w74r8lyle","NaN","<div style=""width:500px;"">
                            <p style=""font-size:50px; font-weight:bold;""
                            >disturbing</p>
                            <div style=""width:240px; margin: auto;"">
                                <img src=""images/gray_22.png"" style= ""width:200px""alt=""img"">
                            </div>
                        </div>","-111","","0","images/gray_22.png","","","","disturbing"
"","","","","","html-slider-response","47","160984","0.0-43.0","8w74r8lyle","NaN","<div style=""width:500px;"">
                            <p style=""font-size:50px; font-weight:bold;""
                            >disturbing</p>
                            <div style=""width:240px; margin: auto;"">
                                <img src=""images/gray_21.png"" style= ""width:200px""alt=""img"">
                            </div>
                        </div>","-138","","0","images/gray_21.png","","","","disturbing"
"","","","","","html-slider-response","48","162295","0.0-44.0","8w74r8lyle","NaN","<div style=""width:500px;"">
                            <p style=""font-size:50px; font-weight:bold;""
                            >disturbing</p>
                            <div style=""width:240px; margin: auto;"">
                                <img src=""images/gray_26.png"" style= ""width:200px""alt=""img"">
                            </div>
                        </div>","-138","","0","images/gray_26.png","","","","disturbing"
"","","","","","html-slider-response","49","164355","0.0-45.0","8w74r8lyle","NaN","<div style=""width:500px;"">
                            <p style=""font-size:50px; font-weight:bold;""
                            >disturbing</p>
                            <div style=""width:240px; margin: auto;"">
                                <img src=""images/gray_34.png"" style= ""width:200px""alt=""img"">
                            </div>
                        </div>","-138","","0","images/gray_34.png","","","","disturbing"
"","","","","","html-slider-response","50","166350","0.0-46.0","8w74r8lyle","NaN","<div style=""width:500px;"">
                            <p style=""font-size:50px; font-weight:bold;""
                            >disturbing</p>
                            <div style=""width:240px; margin: auto;"">
                                <img src=""images/gray_01.png"" style= ""width:200px""alt=""img"">
                            </div>
                        </div>","-138","","0","images/gray_01.png","","","","disturbing"
"","","","","","html-slider-response","51","168646","0.0-47.0","8w74r8lyle","NaN","<div style=""width:500px;"">
                            <p style=""font-size:50px; font-weight:bold;""
                            >disturbing</p>
                            <div style=""width:240px; margin: auto;"">
                                <img src=""images/gray_08.png"" style= ""width:200px""alt=""img"">
                            </div>
                        </div>","-134","","0","images/gray_08.png","","","","disturbing"
"","","","","","html-slider-response","52","171105","0.0-48.0","8w74r8lyle","NaN","<div style=""width:500px;"">
                            <p style=""font-size:50px; font-weight:bold;""
                            >disturbing</p>
                            <div style=""width:240px; margin: auto;"">
                                <img src=""images/gray_18.png"" style= ""width:200px""alt=""img"">
                            </div>
                        </div>","-126","","0","images/gray_18.png","","","","disturbing"
"","","","","","html-slider-response","53","175338","0.0-49.0","8w74r8lyle","NaN","<div style=""width:500px;"">
                            <p style=""font-size:50px; font-weight:bold;""
                            >disturbing</p>
                            <div style=""width:240px; margin: auto;"">
                                <img src=""images/gray_14.png"" style= ""width:200px""alt=""img"">
                            </div>
                        </div>","-22","","0","images/gray_14.png","","","","disturbing"
"","","","","","html-slider-response","54","178995","0.0-50.0","8w74r8lyle","NaN","<div style=""width:500px;"">
                            <p style=""font-size:50px; font-weight:bold;""
                            >disturbing</p>
                            <div style=""width:240px; margin: auto;"">
                                <img src=""images/gray_24.png"" style= ""width:200px""alt=""img"">
                            </div>
                        </div>","-108","","0","images/gray_24.png","","","","disturbing"
"","","","","","html-slider-response","55","180516","0.0-51.0","8w74r8lyle","NaN","<div style=""width:500px;"">
                            <p style=""font-size:50px; font-weight:bold;""
                            >disturbing</p>
                            <div style=""width:240px; margin: auto;"">
                                <img src=""images/gray_04.png"" style= ""width:200px""alt=""img"">
                            </div>
                        </div>","-119","","0","images/gray_04.png","","","","disturbing"
"","","","","","html-slider-response","56","182373","0.0-52.0","8w74r8lyle","NaN","<div style=""width:500px;"">
                            <p style=""font-size:50px; font-weight:bold;""
                            >disturbing</p>
                            <div style=""width:240px; margin: auto;"">
                                <img src=""images/gray_32.png"" style= ""width:200px""alt=""img"">
                            </div>
                        </div>","-98","","0","images/gray_32.png","","","","disturbing"
"","","","","","html-slider-response","57","184978","0.0-53.0","8w74r8lyle","NaN","<div style=""width:500px;"">
                            <p style=""font-size:50px; font-weight:bold;""
                            >disturbing</p>
                            <div style=""width:240px; margin: auto;"">
                                <img src=""images/gray_25.png"" style= ""width:200px""alt=""img"">
                            </div>
                        </div>","-158","","0","images/gray_25.png","","","","disturbing"
"","","","","","html-slider-response","58","187079","0.0-54.0","8w74r8lyle","NaN","<div style=""width:500px;"">
                            <p style=""font-size:50px; font-weight:bold;""
                            >disturbing</p>
                            <div style=""width:240px; margin: auto;"">
                                <img src=""images/gray_29.png"" style= ""width:200px""alt=""img"">
                            </div>
                        </div>","-162","","0","images/gray_29.png","","","","disturbing"
"","","","","","html-slider-response","59","188854","0.0-55.0","8w74r8lyle","NaN","<div style=""width:500px;"">
                            <p style=""font-size:50px; font-weight:bold;""
                            >disturbing</p>
                            <div style=""width:240px; margin: auto;"">
                                <img src=""images/gray_43.png"" style= ""width:200px""alt=""img"">
                            </div>
                        </div>","-162","","0","images/gray_43.png","","","","disturbing"
"","","","","","html-slider-response","60","191450","0.0-56.0","8w74r8lyle","NaN","<div style=""width:500px;"">
                            <p style=""font-size:50px; font-weight:bold;""
                            >disturbing</p>
                            <div style=""width:240px; margin: auto;"">
                                <img src=""images/gray_41.png"" style= ""width:200px""alt=""img"">
                            </div>
                        </div>","-158","","0","images/gray_41.png","","","","disturbing"
"","","","","","html-slider-response","61","194628","0.0-57.0","8w74r8lyle","NaN","<div style=""width:500px;"">
                            <p style=""font-size:50px; font-weight:bold;""
                            >disturbing</p>
                            <div style=""width:240px; margin: auto;"">
                                <img src=""images/gray_19.png"" style= ""width:200px""alt=""img"">
                            </div>
                        </div>","-52","","0","images/gray_19.png","","","","disturbing"
"","","","","","html-button-response","62","197294","0.0-58.0","8w74r8lyle","2164","<p>Great Job! You've finished block 1.<br></br> You have 7 block(s) left to go.<br></br></p>","0","","","","","","",""
"","","","","","html-button-response","63","198442","0.0-59.0","8w74r8lyle","1146","<p>In this block of trials, you will be asked to rate how much you associate each map with:</p > <p style = 'font-size:150%; font-weight: bold'>trustworthy</p><br></br>","0","","","","","","",""
"","","","","","html-slider-response","64","201685","0.0-60.0","8w74r8lyle","NaN","<div style=""width:500px;"">
                            <p style=""font-size:50px; font-weight:bold;""
                            >trustworthy</p>
                            <div style=""width:240px; margin: auto;"">
                                <img src=""images/gray_30.png"" style= ""width:200px""alt=""img"">
                            </div>
                        </div>","-194","","0","images/gray_30.png","","","","trustworthy"
"","","","","","html-slider-response","65","202671","0.0-61.0","8w74r8lyle","NaN","<div style=""width:500px;"">
                            <p style=""font-size:50px; font-weight:bold;""
                            >trustworthy</p>
                            <div style=""width:240px; margin: auto;"">
                                <img src=""images/gray_35.png"" style= ""width:200px""alt=""img"">
                            </div>
                        </div>","-194","","0","images/gray_35.png","","","","trustworthy"
"","","","","","html-slider-response","66","203874","0.0-62.0","8w74r8lyle","NaN","<div style=""width:500px;"">
                            <p style=""font-size:50px; font-weight:bold;""
                            >trustworthy</p>
                            <div style=""width:240px; margin: auto;"">
                                <img src=""images/gray_27.png"" style= ""width:200px""alt=""img"">
                            </div>
                        </div>","-194","","0","images/gray_27.png","","","","trustworthy"
"","","","","","html-slider-response","67","205040","0.0-63.0","8w74r8lyle","NaN","<div style=""width:500px;"">
                            <p style=""font-size:50px; font-weight:bold;""
                            >trustworthy</p>
                            <div style=""width:240px; margin: auto;"">
                                <img src=""images/gray_09.png"" style= ""width:200px""alt=""img"">
                            </div>
                        </div>","-194","","0","images/gray_09.png","","","","trustworthy"
"","","","","","html-slider-response","68","206040","0.0-64.0","8w74r8lyle","NaN","<div style=""width:500px;"">
                            <p style=""font-size:50px; font-weight:bold;""
                            >trustworthy</p>
                            <div style=""width:240px; margin: auto;"">
                                <img src=""images/gray_10.png"" style= ""width:200px""alt=""img"">
                            </div>
                        </div>","-195","","0","images/gray_10.png","","","","trustworthy"
"","","","","","html-slider-response","69","207261","0.0-65.0","8w74r8lyle","NaN","<div style=""width:500px;"">
                            <p style=""font-size:50px; font-weight:bold;""
                            >trustworthy</p>
                            <div style=""width:240px; margin: auto;"">
                                <img src=""images/gray_26.png"" style= ""width:200px""alt=""img"">
                            </div>
                        </div>","-195","","0","images/gray_26.png","","","","trustworthy"
"","","","","","html-slider-response","70","208791","0.0-66.0","8w74r8lyle","NaN","<div style=""width:500px;"">
                            <p style=""font-size:50px; font-weight:bold;""
                            >trustworthy</p>
                            <div style=""width:240px; margin: auto;"">
                                <img src=""images/gray_16.png"" style= ""width:200px""alt=""img"">
                            </div>
                        </div>","-195","","0","images/gray_16.png","","","","trustworthy"
"","","","","","html-slider-response","71","210347","0.0-67.0","8w74r8lyle","NaN","<div style=""width:500px;"">
                            <p style=""font-size:50px; font-weight:bold;""
                            >trustworthy</p>
                            <div style=""width:240px; margin: auto;"">
                                <img src=""images/gray_37.png"" style= ""width:200px""alt=""img"">
                            </div>
                        </div>","-195","","0","images/gray_37.png","","","","trustworthy"
"","","","","","html-slider-response","72","211438","0.0-68.0","8w74r8lyle","NaN","<div style=""width:500px;"">
                            <p style=""font-size:50px; font-weight:bold;""
                            >trustworthy</p>
                            <div style=""width:240px; margin: auto;"">
                                <img src=""images/gray_19.png"" style= ""width:200px""alt=""img"">
                            </div>
                        </div>","-195","","0","images/gray_19.png","","","","trustworthy"
"","","","","","html-slider-response","73","212448","0.0-69.0","8w74r8lyle","NaN","<div style=""width:500px;"">
                            <p style=""font-size:50px; font-weight:bold;""
                            >trustworthy</p>
                            <div style=""width:240px; margin: auto;"">
                                <img src=""images/gray_28.png"" style= ""width:200px""alt=""img"">
                            </div>
                        </div>","-195","","0","images/gray_28.png","","","","trustworthy"
"","","","","","html-slider-response","74","213588","0.0-70.0","8w74r8lyle","NaN","<div style=""width:500px;"">
                            <p style=""font-size:50px; font-weight:bold;""
                            >trustworthy</p>
                            <div style=""width:240px; margin: auto;"">
                                <img src=""images/gray_06.png"" style= ""width:200px""alt=""img"">
                            </div>
                        </div>","-195","","0","images/gray_06.png","","","","trustworthy"
"","","","","","html-slider-response","75","214638","0.0-71.0","8w74r8lyle","NaN","<div style=""width:500px;"">
                            <p style=""font-size:50px; font-weight:bold;""
                            >trustworthy</p>
                            <div style=""width:240px; margin: auto;"">
                                <img src=""images/gray_17.png"" style= ""width:200px""alt=""img"">
                            </div>
                        </div>","-195","","0","images/gray_17.png","","","","trustworthy"
"","","","","","html-slider-response","76","215559","0.0-72.0","8w74r8lyle","NaN","<div style=""width:500px;"">
                            <p style=""font-size:50px; font-weight:bold;""
                            >trustworthy</p>
                            <div style=""width:240px; margin: auto;"">
                                <img src=""images/gray_02.png"" style= ""width:200px""alt=""img"">
                            </div>
                        </div>","-195","","0","images/gray_02.png","","","","trustworthy"
"","","","","","html-slider-response","77","216722","0.0-73.0","8w74r8lyle","NaN","<div style=""width:500px;"">
                            <p style=""font-size:50px; font-weight:bold;""
                            >trustworthy</p>
                            <div style=""width:240px; margin: auto;"">
                                <img src=""images/gray_20.png"" style= ""width:200px""alt=""img"">
                            </div>
                        </div>","-195","","0","images/gray_20.png","","","","trustworthy"
"","","","","","html-slider-response","78","217585","0.0-74.0","8w74r8lyle","NaN","<div style=""width:500px;"">
                            <p style=""font-size:50px; font-weight:bold;""
                            >trustworthy</p>
                            <div style=""width:240px; margin: auto;"">
                                <img src=""images/gray_07.png"" style= ""width:200px""alt=""img"">
                            </div>
                        </div>","-195","","0","images/gray_07.png","","","","trustworthy"
"","","","","","html-slider-response","79","218766","0.0-75.0","8w74r8lyle","NaN","<div style=""width:500px;"">
                            <p style=""font-size:50px; font-weight:bold;""
                            >trustworthy</p>
                            <div style=""width:240px; margin: auto;"">
                                <img src=""images/gray_33.png"" style= ""width:200px""alt=""img"">
                            </div>
                        </div>","-196","","0","images/gray_33.png","","","","trustworthy"
"","","","","","html-slider-response","80","219613","0.0-76.0","8w74r8lyle","NaN","<div style=""width:500px;"">
                            <p style=""font-size:50px; font-weight:bold;""
                            >trustworthy</p>
                            <div style=""width:240px; margin: auto;"">
                                <img src=""images/gray_15.png"" style= ""width:200px""alt=""img"">
                            </div>
                        </div>","-196","","0","images/gray_15.png","","","","trustworthy"
"","","","","","html-slider-response","81","220679","0.0-77.0","8w74r8lyle","NaN","<div style=""width:500px;"">
                            <p style=""font-size:50px; font-weight:bold;""
                            >trustworthy</p>
                            <div style=""width:240px; margin: auto;"">
                                <img src=""images/gray_14.png"" style= ""width:200px""alt=""img"">
                            </div>
                        </div>","-196","","0","images/gray_14.png","","","","trustworthy"
"","","","","","html-slider-response","82","221655","0.0-78.0","8w74r8lyle","NaN","<div style=""width:500px;"">
                            <p style=""font-size:50px; font-weight:bold;""
                            >trustworthy</p>
                            <div style=""width:240px; margin: auto;"">
                                <img src=""images/gray_41.png"" style= ""width:200px""alt=""img"">
                            </div>
                        </div>","-196","","0","images/gray_41.png","","","","trustworthy"
"","","","","","html-slider-response","83","222624","0.0-79.0","8w74r8lyle","NaN","<div style=""width:500px;"">
                            <p style=""font-size:50px; font-weight:bold;""
                            >trustworthy</p>
                            <div style=""width:240px; margin: auto;"">
                                <img src=""images/gray_25.png"" style= ""width:200px""alt=""img"">
                            </div>
                        </div>","-195","","0","images/gray_25.png","","","","trustworthy"
"","","","","","html-slider-response","84","223545","0.0-80.0","8w74r8lyle","NaN","<div style=""width:500px;"">
                            <p style=""font-size:50px; font-weight:bold;""
                            >trustworthy</p>
                            <div style=""width:240px; margin: auto;"">
                                <img src=""images/gray_43.png"" style= ""width:200px""alt=""img"">
                            </div>
                        </div>","-195","","0","images/gray_43.png","","","","trustworthy"
"","","","","","html-slider-response","85","224368","0.0-81.0","8w74r8lyle","NaN","<div style=""width:500px;"">
                            <p style=""font-size:50px; font-weight:bold;""
                            >trustworthy</p>
                            <div style=""width:240px; margin: auto;"">
                                <img src=""images/gray_32.png"" style= ""width:200px""alt=""img"">
                            </div>
                        </div>","-195","","0","images/gray_32.png","","","","trustworthy"
"","","","","","html-slider-response","86","225955","0.0-82.0","8w74r8lyle","NaN","<div style=""width:500px;"">
                            <p style=""font-size:50px; font-weight:bold;""
                            >trustworthy</p>
                            <div style=""width:240px; margin: auto;"">
                                <img src=""images/gray_23.png"" style= ""width:200px""alt=""img"">
                            </div>
                        </div>","-194","","0","images/gray_23.png","","","","trustworthy"
"","","","","","html-slider-response","87","226897","0.0-83.0","8w74r8lyle","NaN","<div style=""width:500px;"">
                            <p style=""font-size:50px; font-weight:bold;""
                            >trustworthy</p>
                            <div style=""width:240px; margin: auto;"">
                                <img src=""images/gray_22.png"" style= ""width:200px""alt=""img"">
                            </div>
                        </div>","-194","","0","images/gray_22.png","","","","trustworthy"
"","","","","","html-slider-response","88","231467","0.0-84.0","8w74r8lyle","NaN","<div style=""width:500px;"">
                            <p style=""font-size:50px; font-weight:bold;""
                            >trustworthy</p>
                            <div style=""width:240px; margin: auto;"">
                                <img src=""images/gray_24.png"" style= ""width:200px""alt=""img"">
                            </div>
                        </div>","-194","","0","images/gray_24.png","","","","trustworthy"
"","","","","","html-slider-response","89","232989","0.0-85.0","8w74r8lyle","NaN","<div style=""width:500px;"">
                            <p style=""font-size:50px; font-weight:bold;""
                            >trustworthy</p>
                            <div style=""width:240px; margin: auto;"">
                                <img src=""images/gray_13.png"" style= ""width:200px""alt=""img"">
                            </div>
                        </div>","-194","","0","images/gray_13.png","","","","trustworthy"
"","","","","","html-slider-response","90","234414","0.0-86.0","8w74r8lyle","NaN","<div style=""width:500px;"">
                            <p style=""font-size:50px; font-weight:bold;""
                            >trustworthy</p>
                            <div style=""width:240px; margin: auto;"">
                                <img src=""images/gray_39.png"" style= ""width:200px""alt=""img"">
                            </div>
                        </div>","-190","","0","images/gray_39.png","","","","trustworthy"
"","","","","","html-slider-response","91","236954","0.0-87.0","8w74r8lyle","NaN","<div style=""width:500px;"">
                            <p style=""font-size:50px; font-weight:bold;""
                            >trustworthy</p>
                            <div style=""width:240px; margin: auto;"">
                                <img src=""images/gray_31.png"" style= ""width:200px""alt=""img"">
                            </div>
                        </div>","-190","","0","images/gray_31.png","","","","trustworthy"
"","","","","","html-slider-response","92","240130","0.0-88.0","8w74r8lyle","NaN","<div style=""width:500px;"">
                            <p style=""font-size:50px; font-weight:bold;""
                            >trustworthy</p>
                            <div style=""width:240px; margin: auto;"">
                                <img src=""images/gray_08.png"" style= ""width:200px""alt=""img"">
                            </div>
                        </div>","-190","","0","images/gray_08.png","","","","trustworthy"
"","","","","","html-slider-response","93","243444","0.0-89.0","8w74r8lyle","NaN","<div style=""width:500px;"">
                            <p style=""font-size:50px; font-weight:bold;""
                            >trustworthy</p>
                            <div style=""width:240px; margin: auto;"">
                                <img src=""images/gray_05.png"" style= ""width:200px""alt=""img"">
                            </div>
                        </div>","-150","","0","images/gray_05.png","","","","trustworthy"
"","","","","","html-slider-response","94","245658","0.0-90.0","8w74r8lyle","NaN","<div style=""width:500px;"">
                            <p style=""font-size:50px; font-weight:bold;""
                            >trustworthy</p>
                            <div style=""width:240px; margin: auto;"">
                                <img src=""images/gray_01.png"" style= ""width:200px""alt=""img"">
                            </div>
                        </div>","-117","","0","images/gray_01.png","","","","trustworthy"
"","","","","","html-slider-response","95","248214","0.0-91.0","8w74r8lyle","NaN","<div style=""width:500px;"">
                            <p style=""font-size:50px; font-weight:bold;""
                            >trustworthy</p>
                            <div style=""width:240px; margin: auto;"">
                                <img src=""images/gray_40.png"" style= ""width:200px""alt=""img"">
                            </div>
                        </div>","-103","","0","images/gray_40.png","","","","trustworthy"
"","","","","","html-slider-response","96","249973","0.0-92.0","8w74r8lyle","NaN","<div style=""width:500px;"">
                            <p style=""font-size:50px; font-weight:bold;""
                            >trustworthy</p>
                            <div style=""width:240px; margin: auto;"">
                                <img src=""images/gray_44.png"" style= ""width:200px""alt=""img"">
                            </div>
                        </div>","-124","","0","images/gray_44.png","","","","trustworthy"
"","","","","","html-slider-response","97","252749","0.0-93.0","8w74r8lyle","NaN","<div style=""width:500px;"">
                            <p style=""font-size:50px; font-weight:bold;""
                            >trustworthy</p>
                            <div style=""width:240px; margin: auto;"">
                                <img src=""images/gray_04.png"" style= ""width:200px""alt=""img"">
                            </div>
                        </div>","-75","","0","images/gray_04.png","","","","trustworthy"
"","","","","","html-slider-response","98","254247","0.0-94.0","8w74r8lyle","NaN","<div style=""width:500px;"">
                            <p style=""font-size:50px; font-weight:bold;""
                            >trustworthy</p>
                            <div style=""width:240px; margin: auto;"">
                                <img src=""images/gray_38.png"" style= ""width:200px""alt=""img"">
                            </div>
                        </div>","-170","","0","images/gray_38.png","","","","trustworthy"
"","","","","","html-slider-response","99","257455","0.0-95.0","8w74r8lyle","NaN","<div style=""width:500px;"">
                            <p style=""font-size:50px; font-weight:bold;""
                            >trustworthy</p>
                            <div style=""width:240px; margin: auto;"">
                                <img src=""images/gray_21.png"" style= ""width:200px""alt=""img"">
                            </div>
                        </div>","-30","","0","images/gray_21.png","","","","trustworthy"
"","","","","","html-slider-response","100","259360","0.0-96.0","8w74r8lyle","NaN","<div style=""width:500px;"">
                            <p style=""font-size:50px; font-weight:bold;""
                            >trustworthy</p>
                            <div style=""width:240px; margin: auto;"">
                                <img src=""images/gray_36.png"" style= ""width:200px""alt=""img"">
                            </div>
                        </div>","-46","","0","images/gray_36.png","","","","trustworthy"
"","","","","","html-slider-response","101","261321","0.0-97.0","8w74r8lyle","NaN","<div style=""width:500px;"">
                            <p style=""font-size:50px; font-weight:bold;""
                            >trustworthy</p>
                            <div style=""width:240px; margin: auto;"">
                                <img src=""images/gray_03.png"" style= ""width:200px""alt=""img"">
                            </div>
                        </div>","-156","","0","images/gray_03.png","","","","trustworthy"
"","","","","","html-slider-response","102","263405","0.0-98.0","8w74r8lyle","NaN","<div style=""width:500px;"">
                            <p style=""font-size:50px; font-weight:bold;""
                            >trustworthy</p>
                            <div style=""width:240px; margin: auto;"">
                                <img src=""images/gray_29.png"" style= ""width:200px""alt=""img"">
                            </div>
                        </div>","-162","","0","images/gray_29.png","","","","trustworthy"
"","","","","","html-slider-response","103","265523","0.0-99.0","8w74r8lyle","NaN","<div style=""width:500px;"">
                            <p style=""font-size:50px; font-weight:bold;""
                            >trustworthy</p>
                            <div style=""width:240px; margin: auto;"">
                                <img src=""images/gray_18.png"" style= ""width:200px""alt=""img"">
                            </div>
                        </div>","-115","","0","images/gray_18.png","","","","trustworthy"
"","","","","","html-slider-response","104","269333","0.0-100.0","8w74r8lyle","NaN","<div style=""width:500px;"">
                            <p style=""font-size:50px; font-weight:bold;""
                            >trustworthy</p>
                            <div style=""width:240px; margin: auto;"">
                                <img src=""images/gray_34.png"" style= ""width:200px""alt=""img"">
                            </div>
                        </div>","-193","","0","images/gray_34.png","","","","trustworthy"
"","","","","","html-slider-response","105","270611","0.0-101.0","8w74r8lyle","NaN","<div style=""width:500px;"">
                            <p style=""font-size:50px; font-weight:bold;""
                            >trustworthy</p>
                            <div style=""width:240px; margin: auto;"">
                                <img src=""images/gray_42.png"" style= ""width:200px""alt=""img"">
                            </div>
                        </div>","-188","","0","images/gray_42.png","","","","trustworthy"
"","","","","","html-slider-response","106","271735","0.0-102.0","8w74r8lyle","NaN","<div style=""width:500px;"">
                            <p style=""font-size:50px; font-weight:bold;""
                            >trustworthy</p>
                            <div style=""width:240px; margin: auto;"">
                                <img src=""images/gray_12.png"" style= ""width:200px""alt=""img"">
                            </div>
                        </div>","-188","","0","images/gray_12.png","","","","trustworthy"
"","","","","","html-slider-response","107","272882","0.0-103.0","8w74r8lyle","NaN","<div style=""width:500px;"">
                            <p style=""font-size:50px; font-weight:bold;""
                            >trustworthy</p>
                            <div style=""width:240px; margin: auto;"">
                                <img src=""images/gray_11.png"" style= ""width:200px""alt=""img"">
                            </div>
                        </div>","-185","","0","images/gray_11.png","","","","trustworthy"
"","","","","","html-button-response","108","274622","0.0-104.0","8w74r8lyle","1236","<p>Great Job! You've finished block 2.<br></br> You have 6 block(s) left to go.<br></br></p>","0","","","","","","",""
"","","","","","html-button-response","109","275443","0.0-105.0","8w74r8lyle","820","<p>In this block of trials, you will be asked to rate how much you associate each map with:</p > <p style = 'font-size:150%; font-weight: bold'>exciting</p><br></br>","0","","","","","","",""
"","","","","","html-slider-response","110","277238","0.0-106.0","8w74r8lyle","NaN","<div style=""width:500px;"">
                            <p style=""font-size:50px; font-weight:bold;""
                            >exciting</p>
                            <div style=""width:240px; margin: auto;"">
                                <img src=""images/gray_30.png"" style= ""width:200px""alt=""img"">
                            </div>
                        </div>","126","","0","images/gray_30.png","","","","exciting"
"","","","","","html-slider-response","111","279860","0.0-107.0","8w74r8lyle","NaN","<div style=""width:500px;"">
                            <p style=""font-size:50px; font-weight:bold;""
                            >exciting</p>
                            <div style=""width:240px; margin: auto;"">
                                <img src=""images/gray_16.png"" style= ""width:200px""alt=""img"">
                            </div>
                        </div>","134","","0","images/gray_16.png","","","","exciting"
"","","","","","html-slider-response","112","283180","0.0-108.0","8w74r8lyle","NaN","<div style=""width:500px;"">
                            <p style=""font-size:50px; font-weight:bold;""
                            >exciting</p>
                            <div style=""width:240px; margin: auto;"">
                                <img src=""images/gray_13.png"" style= ""width:200px""alt=""img"">
                            </div>
                        </div>","99","","0","images/gray_13.png","","","","exciting"
"","","","","","html-slider-response","113","287366","0.0-109.0","8w74r8lyle","NaN","<div style=""width:500px;"">
                            <p style=""font-size:50px; font-weight:bold;""
                            >exciting</p>
                            <div style=""width:240px; margin: auto;"">
                                <img src=""images/gray_04.png"" style= ""width:200px""alt=""img"">
                            </div>
                        </div>","-95","","0","images/gray_04.png","","","","exciting"
"","","","","","html-slider-response","114","290388","0.0-110.0","8w74r8lyle","NaN","<div style=""width:500px;"">
                            <p style=""font-size:50px; font-weight:bold;""
                            >exciting</p>
                            <div style=""width:240px; margin: auto;"">
                                <img src=""images/gray_38.png"" style= ""width:200px""alt=""img"">
                            </div>
                        </div>","-86","","0","images/gray_38.png","","","","exciting"
"","","","","","html-slider-response","115","292839","0.0-111.0","8w74r8lyle","NaN","<div style=""width:500px;"">
                            <p style=""font-size:50px; font-weight:bold;""
                            >exciting</p>
                            <div style=""width:240px; margin: auto;"">
                                <img src=""images/gray_07.png"" style= ""width:200px""alt=""img"">
                            </div>
                        </div>","108","","0","images/gray_07.png","","","","exciting"
"","","","","","html-slider-response","116","294181","0.0-112.0","8w74r8lyle","NaN","<div style=""width:500px;"">
                            <p style=""font-size:50px; font-weight:bold;""
                            >exciting</p>
                            <div style=""width:240px; margin: auto;"">
                                <img src=""images/gray_06.png"" style= ""width:200px""alt=""img"">
                            </div>
                        </div>","107","","0","images/gray_06.png","","","","exciting"
"","","","","","html-slider-response","117","296487","0.0-113.0","8w74r8lyle","NaN","<div style=""width:500px;"">
                            <p style=""font-size:50px; font-weight:bold;""
                            >exciting</p>
                            <div style=""width:240px; margin: auto;"">
                                <img src=""images/gray_17.png"" style= ""width:200px""alt=""img"">
                            </div>
                        </div>","112","","0","images/gray_17.png","","","","exciting"
"","","","","","html-slider-response","118","298807","0.0-114.0","8w74r8lyle","NaN","<div style=""width:500px;"">
                            <p style=""font-size:50px; font-weight:bold;""
                            >exciting</p>
                            <div style=""width:240px; margin: auto;"">
                                <img src=""images/gray_40.png"" style= ""width:200px""alt=""img"">
                            </div>
                        </div>","134","","0","images/gray_40.png","","","","exciting"
"","","","","","html-slider-response","119","300940","0.0-115.0","8w74r8lyle","NaN","<div style=""width:500px;"">
                            <p style=""font-size:50px; font-weight:bold;""
                            >exciting</p>
                            <div style=""width:240px; margin: auto;"">
                                <img src=""images/gray_21.png"" style= ""width:200px""alt=""img"">
                            </div>
                        </div>","-98","","0","images/gray_21.png","","","","exciting"
"","","","","","html-slider-response","120","302364","0.0-116.0","8w74r8lyle","NaN","<div style=""width:500px;"">
                            <p style=""font-size:50px; font-weight:bold;""
                            >exciting</p>
                            <div style=""width:240px; margin: auto;"">
                                <img src=""images/gray_02.png"" style= ""width:200px""alt=""img"">
                            </div>
                        </div>","121","","0","images/gray_02.png","","","","exciting"
"","","","","","html-slider-response","121","303635","0.0-117.0","8w74r8lyle","NaN","<div style=""width:500px;"">
                            <p style=""font-size:50px; font-weight:bold;""
                            >exciting</p>
                            <div style=""width:240px; margin: auto;"">
                                <img src=""images/gray_43.png"" style= ""width:200px""alt=""img"">
                            </div>
                        </div>","121","","0","images/gray_43.png","","","","exciting"
"","","","","","html-slider-response","122","304864","0.0-118.0","8w74r8lyle","NaN","<div style=""width:500px;"">
                            <p style=""font-size:50px; font-weight:bold;""
                            >exciting</p>
                            <div style=""width:240px; margin: auto;"">
                                <img src=""images/gray_22.png"" style= ""width:200px""alt=""img"">
                            </div>
                        </div>","121","","0","images/gray_22.png","","","","exciting"
"","","","","","html-slider-response","123","306158","0.0-119.0","8w74r8lyle","NaN","<div style=""width:500px;"">
                            <p style=""font-size:50px; font-weight:bold;""
                            >exciting</p>
                            <div style=""width:240px; margin: auto;"">
                                <img src=""images/gray_36.png"" style= ""width:200px""alt=""img"">
                            </div>
                        </div>","121","","0","images/gray_36.png","","","","exciting"
"","","","","","html-slider-response","124","308349","0.0-120.0","8w74r8lyle","NaN","<div style=""width:500px;"">
                            <p style=""font-size:50px; font-weight:bold;""
                            >exciting</p>
                            <div style=""width:240px; margin: auto;"">
                                <img src=""images/gray_29.png"" style= ""width:200px""alt=""img"">
                            </div>
                        </div>","-73","","0","images/gray_29.png","","","","exciting"
"","","","","","html-slider-response","125","309684","0.0-121.0","8w74r8lyle","NaN","<div style=""width:500px;"">
                            <p style=""font-size:50px; font-weight:bold;""
                            >exciting</p>
                            <div style=""width:240px; margin: auto;"">
                                <img src=""images/gray_44.png"" style= ""width:200px""alt=""img"">
                            </div>
                        </div>","98","","0","images/gray_44.png","","","","exciting"
"","","","","","html-slider-response","126","311045","0.0-122.0","8w74r8lyle","NaN","<div style=""width:500px;"">
                            <p style=""font-size:50px; font-weight:bold;""
                            >exciting</p>
                            <div style=""width:240px; margin: auto;"">
                                <img src=""images/gray_23.png"" style= ""width:200px""alt=""img"">
                            </div>
                        </div>","98","","0","images/gray_23.png","","","","exciting"
"","","","","","html-slider-response","127","312323","0.0-123.0","8w74r8lyle","NaN","<div style=""width:500px;"">
                            <p style=""font-size:50px; font-weight:bold;""
                            >exciting</p>
                            <div style=""width:240px; margin: auto;"">
                                <img src=""images/gray_28.png"" style= ""width:200px""alt=""img"">
                            </div>
                        </div>","98","","0","images/gray_28.png","","","","exciting"
"","","","","","html-slider-response","128","316124","0.0-124.0","8w74r8lyle","NaN","<div style=""width:500px;"">
                            <p style=""font-size:50px; font-weight:bold;""
                            >exciting</p>
                            <div style=""width:240px; margin: auto;"">
                                <img src=""images/gray_34.png"" style= ""width:200px""alt=""img"">
                            </div>
                        </div>","-4","","0","images/gray_34.png","","","","exciting"
"","","","","","html-slider-response","129","318827","0.0-125.0","8w74r8lyle","NaN","<div style=""width:500px;"">
                            <p style=""font-size:50px; font-weight:bold;""
                            >exciting</p>
                            <div style=""width:240px; margin: auto;"">
                                <img src=""images/gray_41.png"" style= ""width:200px""alt=""img"">
                            </div>
                        </div>","23","","0","images/gray_41.png","","","","exciting"
"","","","","","html-slider-response","130","321587","0.0-126.0","8w74r8lyle","NaN","<div style=""width:500px;"">
                            <p style=""font-size:50px; font-weight:bold;""
                            >exciting</p>
                            <div style=""width:240px; margin: auto;"">
                                <img src=""images/gray_19.png"" style= ""width:200px""alt=""img"">
                            </div>
                        </div>","107","","0","images/gray_19.png","","","","exciting"
"","","","","","html-slider-response","131","323078","0.0-127.0","8w74r8lyle","NaN","<div style=""width:500px;"">
                            <p style=""font-size:50px; font-weight:bold;""
                            >exciting</p>
                            <div style=""width:240px; margin: auto;"">
                                <img src=""images/gray_33.png"" style= ""width:200px""alt=""img"">
                            </div>
                        </div>","107","","0","images/gray_33.png","","","","exciting"
"","","","","","html-slider-response","132","324502","0.0-128.0","8w74r8lyle","NaN","<div style=""width:500px;"">
                            <p style=""font-size:50px; font-weight:bold;""
                            >exciting</p>
                            <div style=""width:240px; margin: auto;"">
                                <img src=""images/gray_42.png"" style= ""width:200px""alt=""img"">
                            </div>
                        </div>","107","","0","images/gray_42.png","","","","exciting"
"","","","","","html-slider-response","133","326382","0.0-129.0","8w74r8lyle","NaN","<div style=""width:500px;"">
                            <p style=""font-size:50px; font-weight:bold;""
                            >exciting</p>
                            <div style=""width:240px; margin: auto;"">
                                <img src=""images/gray_24.png"" style= ""width:200px""alt=""img"">
                            </div>
                        </div>","58","","0","images/gray_24.png","","","","exciting"
"","","","","","html-slider-response","134","327824","0.0-130.0","8w74r8lyle","NaN","<div style=""width:500px;"">
                            <p style=""font-size:50px; font-weight:bold;""
                            >exciting</p>
                            <div style=""width:240px; margin: auto;"">
                                <img src=""images/gray_15.png"" style= ""width:200px""alt=""img"">
                            </div>
                        </div>","58","","0","images/gray_15.png","","","","exciting"
"","","","","","html-slider-response","135","329240","0.0-131.0","8w74r8lyle","NaN","<div style=""width:500px;"">
                            <p style=""font-size:50px; font-weight:bold;""
                            >exciting</p>
                            <div style=""width:240px; margin: auto;"">
                                <img src=""images/gray_25.png"" style= ""width:200px""alt=""img"">
                            </div>
                        </div>","58","","0","images/gray_25.png","","","","exciting"
"","","","","","html-slider-response","136","331317","0.0-132.0","8w74r8lyle","NaN","<div style=""width:500px;"">
                            <p style=""font-size:50px; font-weight:bold;""
                            >exciting</p>
                            <div style=""width:240px; margin: auto;"">
                                <img src=""images/gray_35.png"" style= ""width:200px""alt=""img"">
                            </div>
                        </div>","98","","0","images/gray_35.png","","","","exciting"
"","","","","","html-slider-response","137","334109","0.0-133.0","8w74r8lyle","NaN","<div style=""width:500px;"">
                            <p style=""font-size:50px; font-weight:bold;""
                            >exciting</p>
                            <div style=""width:240px; margin: auto;"">
                                <img src=""images/gray_39.png"" style= ""width:200px""alt=""img"">
                            </div>
                        </div>","43","","0","images/gray_39.png","","","","exciting"
"","","","","","html-slider-response","138","335631","0.0-134.0","8w74r8lyle","NaN","<div style=""width:500px;"">
                            <p style=""font-size:50px; font-weight:bold;""
                            >exciting</p>
                            <div style=""width:240px; margin: auto;"">
                                <img src=""images/gray_12.png"" style= ""width:200px""alt=""img"">
                            </div>
                        </div>","44","","0","images/gray_12.png","","","","exciting"
"","","","","","html-slider-response","139","337683","0.0-135.0","8w74r8lyle","NaN","<div style=""width:500px;"">
                            <p style=""font-size:50px; font-weight:bold;""
                            >exciting</p>
                            <div style=""width:240px; margin: auto;"">
                                <img src=""images/gray_05.png"" style= ""width:200px""alt=""img"">
                            </div>
                        </div>","44","","0","images/gray_05.png","","","","exciting"
"","","","","","html-slider-response","140","339897","0.0-136.0","8w74r8lyle","NaN","<div style=""width:500px;"">
                            <p style=""font-size:50px; font-weight:bold;""
                            >exciting</p>
                            <div style=""width:240px; margin: auto;"">
                                <img src=""images/gray_31.png"" style= ""width:200px""alt=""img"">
                            </div>
                        </div>","-17","","0","images/gray_31.png","","","","exciting"
"","","","","","html-slider-response","141","341957","0.0-137.0","8w74r8lyle","NaN","<div style=""width:500px;"">
                            <p style=""font-size:50px; font-weight:bold;""
                            >exciting</p>
                            <div style=""width:240px; margin: auto;"">
                                <img src=""images/gray_09.png"" style= ""width:200px""alt=""img"">
                            </div>
                        </div>","109","","0","images/gray_09.png","","","","exciting"
"","","","","","html-slider-response","142","343585","0.0-138.0","8w74r8lyle","NaN","<div style=""width:500px;"">
                            <p style=""font-size:50px; font-weight:bold;""
                            >exciting</p>
                            <div style=""width:240px; margin: auto;"">
                                <img src=""images/gray_01.png"" style= ""width:200px""alt=""img"">
                            </div>
                        </div>","109","","0","images/gray_01.png","","","","exciting"
"","","","","","html-slider-response","143","346656","0.0-139.0","8w74r8lyle","NaN","<div style=""width:500px;"">
                            <p style=""font-size:50px; font-weight:bold;""
                            >exciting</p>
                            <div style=""width:240px; margin: auto;"">
                                <img src=""images/gray_27.png"" style= ""width:200px""alt=""img"">
                            </div>
                        </div>","88","","0","images/gray_27.png","","","","exciting"
"","","","","","html-slider-response","144","348105","0.0-140.0","8w74r8lyle","NaN","<div style=""width:500px;"">
                            <p style=""font-size:50px; font-weight:bold;""
                            >exciting</p>
                            <div style=""width:240px; margin: auto;"">
                                <img src=""images/gray_14.png"" style= ""width:200px""alt=""img"">
                            </div>
                        </div>","88","","0","images/gray_14.png","","","","exciting"
"","","","","","html-slider-response","145","350409","0.0-141.0","8w74r8lyle","NaN","<div style=""width:500px;"">
                            <p style=""font-size:50px; font-weight:bold;""
                            >exciting</p>
                            <div style=""width:240px; margin: auto;"">
                                <img src=""images/gray_18.png"" style= ""width:200px""alt=""img"">
                            </div>
                        </div>","-40","","0","images/gray_18.png","","","","exciting"
"","","","","","html-slider-response","146","352589","0.0-142.0","8w74r8lyle","NaN","<div style=""width:500px;"">
                            <p style=""font-size:50px; font-weight:bold;""
                            >exciting</p>
                            <div style=""width:240px; margin: auto;"">
                                <img src=""images/gray_10.png"" style= ""width:200px""alt=""img"">
                            </div>
                        </div>","103","","0","images/gray_10.png","","","","exciting"
"","","","","","html-slider-response","147","354007","0.0-143.0","8w74r8lyle","NaN","<div style=""width:500px;"">
                            <p style=""font-size:50px; font-weight:bold;""
                            >exciting</p>
                            <div style=""width:240px; margin: auto;"">
                                <img src=""images/gray_03.png"" style= ""width:200px""alt=""img"">
                            </div>
                        </div>","103","","0","images/gray_03.png","","","","exciting"
"","","","","","html-slider-response","148","355326","0.0-144.0","8w74r8lyle","NaN","<div style=""width:500px;"">
                            <p style=""font-size:50px; font-weight:bold;""
                            >exciting</p>
                            <div style=""width:240px; margin: auto;"">
                                <img src=""images/gray_11.png"" style= ""width:200px""alt=""img"">
                            </div>
                        </div>","103","","0","images/gray_11.png","","","","exciting"
"","","","","","html-slider-response","149","357061","0.0-145.0","8w74r8lyle","NaN","<div style=""width:500px;"">
                            <p style=""font-size:50px; font-weight:bold;""
                            >exciting</p>
                            <div style=""width:240px; margin: auto;"">
                                <img src=""images/gray_20.png"" style= ""width:200px""alt=""img"">
                            </div>
                        </div>","117","","0","images/gray_20.png","","","","exciting"
"","","","","","html-slider-response","150","358598","0.0-146.0","8w74r8lyle","NaN","<div style=""width:500px;"">
                            <p style=""font-size:50px; font-weight:bold;""
                            >exciting</p>
                            <div style=""width:240px; margin: auto;"">
                                <img src=""images/gray_26.png"" style= ""width:200px""alt=""img"">
                            </div>
                        </div>","117","","0","images/gray_26.png","","","","exciting"
"","","","","","html-slider-response","151","360553","0.0-147.0","8w74r8lyle","NaN","<div style=""width:500px;"">
                            <p style=""font-size:50px; font-weight:bold;""
                            >exciting</p>
                            <div style=""width:240px; margin: auto;"">
                                <img src=""images/gray_32.png"" style= ""width:200px""alt=""img"">
                            </div>
                        </div>","117","","0","images/gray_32.png","","","","exciting"
"","","","","","html-slider-response","152","361960","0.0-148.0","8w74r8lyle","NaN","<div style=""width:500px;"">
                            <p style=""font-size:50px; font-weight:bold;""
                            >exciting</p>
                            <div style=""width:240px; margin: auto;"">
                                <img src=""images/gray_37.png"" style= ""width:200px""alt=""img"">
                            </div>
                        </div>","81","","0","images/gray_37.png","","","","exciting"
"","","","","","html-slider-response","153","364005","0.0-149.0","8w74r8lyle","NaN","<div style=""width:500px;"">
                            <p style=""font-size:50px; font-weight:bold;""
                            >exciting</p>
                            <div style=""width:240px; margin: auto;"">
                                <img src=""images/gray_08.png"" style= ""width:200px""alt=""img"">
                            </div>
                        </div>","132","","0","images/gray_08.png","","","","exciting"
"","","","","","html-button-response","154","365702","0.0-150.0","8w74r8lyle","1193","<p>Great Job! You've finished block 3.<br></br> You have 5 block(s) left to go.<br></br></p>","0","","","","","","",""
"","","","","","html-button-response","155","366371","0.0-151.0","8w74r8lyle","667","<p>In this block of trials, you will be asked to rate how much you associate each map with:</p > <p style = 'font-size:150%; font-weight: bold'>playful</p><br></br>","0","","","","","","",""
"","","","","","html-slider-response","156","369580","0.0-152.0","8w74r8lyle","NaN","<div style=""width:500px;"">
                            <p style=""font-size:50px; font-weight:bold;""
                            >playful</p>
                            <div style=""width:240px; margin: auto;"">
                                <img src=""images/gray_12.png"" style= ""width:200px""alt=""img"">
                            </div>
                        </div>","50","","0","images/gray_12.png","","","","playful"
"","","","","","html-slider-response","157","372024","0.0-153.0","8w74r8lyle","NaN","<div style=""width:500px;"">
                            <p style=""font-size:50px; font-weight:bold;""
                            >playful</p>
                            <div style=""width:240px; margin: auto;"">
                                <img src=""images/gray_38.png"" style= ""width:200px""alt=""img"">
                            </div>
                        </div>","46","","0","images/gray_38.png","","","","playful"
"","","","","","html-slider-response","158","374955","0.0-154.0","8w74r8lyle","NaN","<div style=""width:500px;"">
                            <p style=""font-size:50px; font-weight:bold;""
                            >playful</p>
                            <div style=""width:240px; margin: auto;"">
                                <img src=""images/gray_27.png"" style= ""width:200px""alt=""img"">
                            </div>
                        </div>","14","","0","images/gray_27.png","","","","playful"
"","","","","","html-slider-response","159","376478","0.0-155.0","8w74r8lyle","NaN","<div style=""width:500px;"">
                            <p style=""font-size:50px; font-weight:bold;""
                            >playful</p>
                            <div style=""width:240px; margin: auto;"">
                                <img src=""images/gray_02.png"" style= ""width:200px""alt=""img"">
                            </div>
                        </div>","25","","0","images/gray_02.png","","","","playful"
"","","","","","html-slider-response","160","378895","0.0-156.0","8w74r8lyle","NaN","<div style=""width:500px;"">
                            <p style=""font-size:50px; font-weight:bold;""
                            >playful</p>
                            <div style=""width:240px; margin: auto;"">
                                <img src=""images/gray_33.png"" style= ""width:200px""alt=""img"">
                            </div>
                        </div>","54","","0","images/gray_33.png","","","","playful"
"","","","","","html-slider-response","161","381646","0.0-157.0","8w74r8lyle","NaN","<div style=""width:500px;"">
                            <p style=""font-size:50px; font-weight:bold;""
                            >playful</p>
                            <div style=""width:240px; margin: auto;"">
                                <img src=""images/gray_06.png"" style= ""width:200px""alt=""img"">
                            </div>
                        </div>","-51","","0","images/gray_06.png","","","","playful"
"","","","","","html-slider-response","162","384024","0.0-158.0","8w74r8lyle","NaN","<div style=""width:500px;"">
                            <p style=""font-size:50px; font-weight:bold;""
                            >playful</p>
                            <div style=""width:240px; margin: auto;"">
                                <img src=""images/gray_43.png"" style= ""width:200px""alt=""img"">
                            </div>
                        </div>","18","","0","images/gray_43.png","","","","playful"
"","","","","","html-slider-response","163","386336","0.0-159.0","8w74r8lyle","NaN","<div style=""width:500px;"">
                            <p style=""font-size:50px; font-weight:bold;""
                            >playful</p>
                            <div style=""width:240px; margin: auto;"">
                                <img src=""images/gray_41.png"" style= ""width:200px""alt=""img"">
                            </div>
                        </div>","28","","0","images/gray_41.png","","","","playful"
"","","","","","html-slider-response","164","387859","0.0-160.0","8w74r8lyle","NaN","<div style=""width:500px;"">
                            <p style=""font-size:50px; font-weight:bold;""
                            >playful</p>
                            <div style=""width:240px; margin: auto;"">
                                <img src=""images/gray_15.png"" style= ""width:200px""alt=""img"">
                            </div>
                        </div>","23","","0","images/gray_15.png","","","","playful"
"","","","","","html-slider-response","165","389983","0.0-161.0","8w74r8lyle","NaN","<div style=""width:500px;"">
                            <p style=""font-size:50px; font-weight:bold;""
                            >playful</p>
                            <div style=""width:240px; margin: auto;"">
                                <img src=""images/gray_29.png"" style= ""width:200px""alt=""img"">
                            </div>
                        </div>","-80","","0","images/gray_29.png","","","","playful"
"","","","","","html-slider-response","166","391416","0.0-162.0","8w74r8lyle","NaN","<div style=""width:500px;"">
                            <p style=""font-size:50px; font-weight:bold;""
                            >playful</p>
                            <div style=""width:240px; margin: auto;"">
                                <img src=""images/gray_24.png"" style= ""width:200px""alt=""img"">
                            </div>
                        </div>","-70","","0","images/gray_24.png","","","","playful"
"","","","","","html-slider-response","167","393443","0.0-163.0","8w74r8lyle","NaN","<div style=""width:500px;"">
                            <p style=""font-size:50px; font-weight:bold;""
                            >playful</p>
                            <div style=""width:240px; margin: auto;"">
                                <img src=""images/gray_31.png"" style= ""width:200px""alt=""img"">
                            </div>
                        </div>","-70","","0","images/gray_31.png","","","","playful"
"","","","","","html-slider-response","168","395991","0.0-164.0","8w74r8lyle","NaN","<div style=""width:500px;"">
                            <p style=""font-size:50px; font-weight:bold;""
                            >playful</p>
                            <div style=""width:240px; margin: auto;"">
                                <img src=""images/gray_32.png"" style= ""width:200px""alt=""img"">
                            </div>
                        </div>","34","","0","images/gray_32.png","","","","playful"
"","","","","","html-slider-response","169","399630","0.0-165.0","8w74r8lyle","NaN","<div style=""width:500px;"">
                            <p style=""font-size:50px; font-weight:bold;""
                            >playful</p>
                            <div style=""width:240px; margin: auto;"">
                                <img src=""images/gray_25.png"" style= ""width:200px""alt=""img"">
                            </div>
                        </div>","-54","","0","images/gray_25.png","","","","playful"
"","","","","","html-slider-response","170","402302","0.0-166.0","8w74r8lyle","NaN","<div style=""width:500px;"">
                            <p style=""font-size:50px; font-weight:bold;""
                            >playful</p>
                            <div style=""width:240px; margin: auto;"">
                                <img src=""images/gray_17.png"" style= ""width:200px""alt=""img"">
                            </div>
                        </div>","14","","0","images/gray_17.png","","","","playful"
"","","","","","html-slider-response","171","406217","0.0-167.0","8w74r8lyle","NaN","<div style=""width:500px;"">
                            <p style=""font-size:50px; font-weight:bold;""
                            >playful</p>
                            <div style=""width:240px; margin: auto;"">
                                <img src=""images/gray_19.png"" style= ""width:200px""alt=""img"">
                            </div>
                        </div>","-63","","0","images/gray_19.png","","","","playful"
"","","","","","html-slider-response","172","408301","0.0-168.0","8w74r8lyle","NaN","<div style=""width:500px;"">
                            <p style=""font-size:50px; font-weight:bold;""
                            >playful</p>
                            <div style=""width:240px; margin: auto;"">
                                <img src=""images/gray_08.png"" style= ""width:200px""alt=""img"">
                            </div>
                        </div>","-63","","0","images/gray_08.png","","","","playful"
"","","","","","html-slider-response","173","410229","0.0-169.0","8w74r8lyle","NaN","<div style=""width:500px;"">
                            <p style=""font-size:50px; font-weight:bold;""
                            >playful</p>
                            <div style=""width:240px; margin: auto;"">
                                <img src=""images/gray_21.png"" style= ""width:200px""alt=""img"">
                            </div>
                        </div>","-56","","0","images/gray_21.png","","","","playful"
"","","","","","html-slider-response","174","413177","0.0-170.0","8w74r8lyle","NaN","<div style=""width:500px;"">
                            <p style=""font-size:50px; font-weight:bold;""
                            >playful</p>
                            <div style=""width:240px; margin: auto;"">
                                <img src=""images/gray_23.png"" style= ""width:200px""alt=""img"">
                            </div>
                        </div>","-56","","0","images/gray_23.png","","","","playful"
"","","","","","html-slider-response","175","416411","0.0-171.0","8w74r8lyle","NaN","<div style=""width:500px;"">
                            <p style=""font-size:50px; font-weight:bold;""
                            >playful</p>
                            <div style=""width:240px; margin: auto;"">
                                <img src=""images/gray_18.png"" style= ""width:200px""alt=""img"">
                            </div>
                        </div>","34","","0","images/gray_18.png","","","","playful"
"","","","","","html-slider-response","176","419562","0.0-172.0","8w74r8lyle","NaN","<div style=""width:500px;"">
                            <p style=""font-size:50px; font-weight:bold;""
                            >playful</p>
                            <div style=""width:240px; margin: auto;"">
                                <img src=""images/gray_09.png"" style= ""width:200px""alt=""img"">
                            </div>
                        </div>","22","","0","images/gray_09.png","","","","playful"
"","","","","","html-slider-response","177","423086","0.0-173.0","8w74r8lyle","NaN","<div style=""width:500px;"">
                            <p style=""font-size:50px; font-weight:bold;""
                            >playful</p>
                            <div style=""width:240px; margin: auto;"">
                                <img src=""images/gray_07.png"" style= ""width:200px""alt=""img"">
                            </div>
                        </div>","38","","0","images/gray_07.png","","","","playful"
"","","","","","html-slider-response","178","425341","0.0-174.0","8w74r8lyle","NaN","<div style=""width:500px;"">
                            <p style=""font-size:50px; font-weight:bold;""
                            >playful</p>
                            <div style=""width:240px; margin: auto;"">
                                <img src=""images/gray_20.png"" style= ""width:200px""alt=""img"">
                            </div>
                        </div>","-62","","0","images/gray_20.png","","","","playful"
"","","","","","html-slider-response","179","427752","0.0-175.0","8w74r8lyle","NaN","<div style=""width:500px;"">
                            <p style=""font-size:50px; font-weight:bold;""
                            >playful</p>
                            <div style=""width:240px; margin: auto;"">
                                <img src=""images/gray_36.png"" style= ""width:200px""alt=""img"">
                            </div>
                        </div>","-52","","0","images/gray_36.png","","","","playful"
"","","","","","html-slider-response","180","429428","0.0-176.0","8w74r8lyle","NaN","<div style=""width:500px;"">
                            <p style=""font-size:50px; font-weight:bold;""
                            >playful</p>
                            <div style=""width:240px; margin: auto;"">
                                <img src=""images/gray_28.png"" style= ""width:200px""alt=""img"">
                            </div>
                        </div>","-52","","0","images/gray_28.png","","","","playful"
"","","","","","html-slider-response","181","430837","0.0-177.0","8w74r8lyle","NaN","<div style=""width:500px;"">
                            <p style=""font-size:50px; font-weight:bold;""
                            >playful</p>
                            <div style=""width:240px; margin: auto;"">
                                <img src=""images/gray_05.png"" style= ""width:200px""alt=""img"">
                            </div>
                        </div>","-52","","0","images/gray_05.png","","","","playful"
"","","","","","html-slider-response","182","432896","0.0-178.0","8w74r8lyle","NaN","<div style=""width:500px;"">
                            <p style=""font-size:50px; font-weight:bold;""
                            >playful</p>
                            <div style=""width:240px; margin: auto;"">
                                <img src=""images/gray_42.png"" style= ""width:200px""alt=""img"">
                            </div>
                        </div>","-52","","0","images/gray_42.png","","","","playful"
"","","","","","html-slider-response","183","434826","0.0-179.0","8w74r8lyle","NaN","<div style=""width:500px;"">
                            <p style=""font-size:50px; font-weight:bold;""
                            >playful</p>
                            <div style=""width:240px; margin: auto;"">
                                <img src=""images/gray_10.png"" style= ""width:200px""alt=""img"">
                            </div>
                        </div>","-52","","0","images/gray_10.png","","","","playful"
"","","","","","html-slider-response","184","436909","0.0-180.0","8w74r8lyle","NaN","<div style=""width:500px;"">
                            <p style=""font-size:50px; font-weight:bold;""
                            >playful</p>
                            <div style=""width:240px; margin: auto;"">
                                <img src=""images/gray_34.png"" style= ""width:200px""alt=""img"">
                            </div>
                        </div>","-98","","0","images/gray_34.png","","","","playful"
"","","","","","html-slider-response","185","438430","0.0-181.0","8w74r8lyle","NaN","<div style=""width:500px;"">
                            <p style=""font-size:50px; font-weight:bold;""
                            >playful</p>
                            <div style=""width:240px; margin: auto;"">
                                <img src=""images/gray_04.png"" style= ""width:200px""alt=""img"">
                            </div>
                        </div>","-100","","0","images/gray_04.png","","","","playful"
"","","","","","html-slider-response","186","439864","0.0-182.0","8w74r8lyle","NaN","<div style=""width:500px;"">
                            <p style=""font-size:50px; font-weight:bold;""
                            >playful</p>
                            <div style=""width:240px; margin: auto;"">
                                <img src=""images/gray_03.png"" style= ""width:200px""alt=""img"">
                            </div>
                        </div>","-100","","0","images/gray_03.png","","","","playful"
"","","","","","html-slider-response","187","442250","0.0-183.0","8w74r8lyle","NaN","<div style=""width:500px;"">
                            <p style=""font-size:50px; font-weight:bold;""
                            >playful</p>
                            <div style=""width:240px; margin: auto;"">
                                <img src=""images/gray_35.png"" style= ""width:200px""alt=""img"">
                            </div>
                        </div>","-123","","0","images/gray_35.png","","","","playful"
"","","","","","html-slider-response","188","443984","0.0-184.0","8w74r8lyle","NaN","<div style=""width:500px;"">
                            <p style=""font-size:50px; font-weight:bold;""
                            >playful</p>
                            <div style=""width:240px; margin: auto;"">
                                <img src=""images/gray_11.png"" style= ""width:200px""alt=""img"">
                            </div>
                        </div>","-123","","0","images/gray_11.png","","","","playful"
"","","","","","html-slider-response","189","445702","0.0-185.0","8w74r8lyle","NaN","<div style=""width:500px;"">
                            <p style=""font-size:50px; font-weight:bold;""
                            >playful</p>
                            <div style=""width:240px; margin: auto;"">
                                <img src=""images/gray_01.png"" style= ""width:200px""alt=""img"">
                            </div>
                        </div>","-123","","0","images/gray_01.png","","","","playful"
"","","","","","html-slider-response","190","446980","0.0-186.0","8w74r8lyle","NaN","<div style=""width:500px;"">
                            <p style=""font-size:50px; font-weight:bold;""
                            >playful</p>
                            <div style=""width:240px; margin: auto;"">
                                <img src=""images/gray_16.png"" style= ""width:200px""alt=""img"">
                            </div>
                        </div>","-123","","0","images/gray_16.png","","","","playful"
"","","","","","html-slider-response","191","448331","0.0-187.0","8w74r8lyle","NaN","<div style=""width:500px;"">
                            <p style=""font-size:50px; font-weight:bold;""
                            >playful</p>
                            <div style=""width:240px; margin: auto;"">
                                <img src=""images/gray_13.png"" style= ""width:200px""alt=""img"">
                            </div>
                        </div>","-123","","0","images/gray_13.png","","","","playful"
"","","","","","html-slider-response","192","453060","0.0-188.0","8w74r8lyle","NaN","<div style=""width:500px;"">
                            <p style=""font-size:50px; font-weight:bold;""
                            >playful</p>
                            <div style=""width:240px; margin: auto;"">
                                <img src=""images/gray_30.png"" style= ""width:200px""alt=""img"">
                            </div>
                        </div>","57","","0","images/gray_30.png","","","","playful"
"","","","","","html-slider-response","193","455347","0.0-189.0","8w74r8lyle","NaN","<div style=""width:500px;"">
                            <p style=""font-size:50px; font-weight:bold;""
                            >playful</p>
                            <div style=""width:240px; margin: auto;"">
                                <img src=""images/gray_22.png"" style= ""width:200px""alt=""img"">
                            </div>
                        </div>","-98","","0","images/gray_22.png","","","","playful"
"","","","","","html-slider-response","194","460691","0.0-190.0","8w74r8lyle","NaN","<div style=""width:500px;"">
                            <p style=""font-size:50px; font-weight:bold;""
                            >playful</p>
                            <div style=""width:240px; margin: auto;"">
                                <img src=""images/gray_37.png"" style= ""width:200px""alt=""img"">
                            </div>
                        </div>","-65","","0","images/gray_37.png","","","","playful"
"","","","","","html-slider-response","195","462187","0.0-191.0","8w74r8lyle","NaN","<div style=""width:500px;"">
                            <p style=""font-size:50px; font-weight:bold;""
                            >playful</p>
                            <div style=""width:240px; margin: auto;"">
                                <img src=""images/gray_26.png"" style= ""width:200px""alt=""img"">
                            </div>
                        </div>","-65","","0","images/gray_26.png","","","","playful"
"","","","","","html-slider-response","196","463996","0.0-192.0","8w74r8lyle","NaN","<div style=""width:500px;"">
                            <p style=""font-size:50px; font-weight:bold;""
                            >playful</p>
                            <div style=""width:240px; margin: auto;"">
                                <img src=""images/gray_44.png"" style= ""width:200px""alt=""img"">
                            </div>
                        </div>","-65","","0","images/gray_44.png","","","","playful"
"","","","","","html-slider-response","197","465609","0.0-193.0","8w74r8lyle","NaN","<div style=""width:500px;"">
                            <p style=""font-size:50px; font-weight:bold;""
                            >playful</p>
                            <div style=""width:240px; margin: auto;"">
                                <img src=""images/gray_39.png"" style= ""width:200px""alt=""img"">
                            </div>
                        </div>","-65","","0","images/gray_39.png","","","","playful"
