"success","timeout","failed_images","failed_audio","failed_video","trial_type","trial_index","time_elapsed","internal_node_id","subject_id","rt","stimulus","response","question_order","slider_start","image_path","practiceTrial","practiceTrialNum","correct","concept"
"true","false","[]","[]","[]","preload","0","931","0.0-0.0","91jn5sk0st","","","","","","","","","",""
"","","","","","html-button-response","1","12380","0.0-1.0","91jn5sk0st","11446","Welcome to our experiment!<p>At the bottom of this screen, you will see a button that says ""Begin Experiment"".<br>Please only click that button when you are ready to complete the 25 minute experiment in one sitting.</p><p> Once you click that button, it will not be possible to restart the experiment.","0","","","","","","",""
"true","","","","","fullscreen","2","14986","0.0-2.0","91jn5sk0st","1597","","","","","","","","",""
"","","","","","survey-multi-select","3","37849","0.0-3.0","91jn5sk0st","22851","","{""Consent"":[""<strong>I consent</strong>""]}","[0]","","","","","",""
"","","","","","html-button-response","4","52172","0.0-4.0","91jn5sk0st","14312","Welcome! <p> This experiment involves two parts: demographic information, followed by the experimental task.<p> It will take about 25 minutes to complete both parts.","0","","","","","","",""
"","","","","","survey-text","5","67611","0.0-5.0","91jn5sk0st","15409","","{""Age"":""19"",""Gender"":""Female"",""Race/ethnicity"":""White"",""Languages"":""English, Spanish""}","","","","","","",""
"","","","","","html-slider-response","6","351231","0.0-6.0","91jn5sk0st","283611","
            <div style='text-align:left; font-size:20px; line-height:25px; width: 1200px;'>
                During this experiment you will be asked to rate how much you associate maps with    different concepts.<br> Below, you can see some examples of the maps you will be asked to rate. Next to the maps
    is the list of concepts.<br>You will be asked    to rate how much you associate each map with each concept on a scale from 'not at all' to 'very much' like the
    one below. <br><br>
    Now, please look at the list of concepts and maps. For each concept, think about the map you associate 'very
    much' with the concept.<br>     When you see that map during the experiment, please rate it near the 'very much' endpoint of the
    scale.<br>Now, please think about which map you associate 'not at all'     with each concept. When you see that map during the experiment, please rate it near the 'not at all' endpoint
    of the scale.<br>
    Please use the full range of the scale. That is, if a map is somewhat associated with the concept, you would
    click partway between the middle point and right side of the scale.    You will be asked to rate each map for a given concept before moving on to the next concept.<br><br>Press the
    'Continue' button for instructions on how to use the slider.    <br><br>
</div>

<div style=""width: 500px; margin: 0 auto;"">
    <div style=""text-align: left; width: 200px; float: left;"">
        <p style=""font-size:25px; line-height:18px;"">calm</p>
        <p style=""font-size:25px; line-height:18px;"">exciting</p>
        <p style=""font-size:25px;line-height:18px;"">positive</p>
        <p style=""font-size:25px;line-height:18px;"">negative</p>
        <p style=""font-size:25px;line-height:18px;"">serious</p>
        <p style=""font-size:25px;line-height:18px;"">playful</p>
        <p style=""font-size:25px;line-height:18px;"">trustworthy</p>
        <p style=""font-size:25px;line-height:18px;"">disturbing</p>
    </div>
    <div style=""width: 200px; float: right; padding-top:15px; padding-right:40px"">
        <br>
        <br>
        <img src=""maps_anchoring.png"" alt=""img"" style=""max-width:500px"">
    </div>
    <div style=""clear: both;""></div>
</div>
            ","-152","","0","maps_anchoring.png","true","","",""
"","","","","","html-button-response","7","355618","0.0-7.0","91jn5sk0st","4383","<div style=""width:800px;""><p style=""text-align:left"">To move the slider, click and drag your cursor to the location of the scale where you would like to make your rating and then let go. When you let go of the slider, your response will be recorded and the next trial will begin. <br>
            We are interested in your initial impressions of each map for the given concept, so please go with your first intuition. <br>
            Before you begin the experiment, there will be four training trials for you to practice using the scale. <br>
             When you are ready to start the training trials, please click ""Continue"".</p><br></div>","0","","","","","","",""
"","","","","","html-slider-response","8","359110","0.0-8.0-0.0","91jn5sk0st","NaN","<div style=""width:500px;"">
                            <p style=""font-size:25px;"">Please move the slider all the way to the <br> right endpoint of the scale</p>

                            </div>
                        </div>","200","","0","","true","0","true",""
"","","","","","html-button-response","9","360601","0.0-8.0-1.0","91jn5sk0st","986","<p align='center'><b>Good job!</b> Click on 'Continue' to proceed.</p>","0","","","","","","",""
"","","","","","html-slider-response","10","361707","0.0-9.0-0.0","91jn5sk0st","NaN","<div style=""width:500px;"">
                            <p style=""font-size:25px;"">Please move the slider all the way to the <br> left endpoint of the scale</p>

                            </div>
                        </div>","-200","","0","","true","1","true",""
"","","","","","html-button-response","11","362952","0.0-9.0-1.0","91jn5sk0st","742","<p align='center'><b>Good job!</b> Click on 'Continue' to proceed.</p>","0","","","","","","",""
"","","","","","html-slider-response","12","367492","0.0-10.0-0.0","91jn5sk0st","NaN","<div style=""width:500px;"">
                            <p style=""font-size:25px;"">Please move the slider halfway between the center and right endpoint of the scale</p>

                            </div>
                        </div>","100","","0","","true","2","true",""
"","","","","","html-button-response","13","369255","0.0-10.0-1.0","91jn5sk0st","1248","<p align='center'><b>Good job!</b> Click on 'Continue' to proceed.</p>","0","","","","","","",""
"","","","","","html-slider-response","14","372097","0.0-11.0-0.0","91jn5sk0st","NaN","<div style=""width:500px;"">
                            <p style=""font-size:25px;"">Please move the slider halfway between the center and left endpoint of the scale</p>

                            </div>
                        </div>","-103","","0","","true","3","true",""
"","","","","","html-button-response","15","373321","0.0-11.0-1.0","91jn5sk0st","709","<p align='center'><b>Good job!</b> Click on 'Continue' to proceed.</p>","0","","","","","","",""
"","","","","","html-button-response","16","374856","0.0-12.0","91jn5sk0st","1532","<p>Great job! You've completed the practice trials. Now you will begin the main task.</p>","0","","","","","","",""
"","","","","","html-button-response","17","377998","0.0-13.0","91jn5sk0st","3141","<p>In this block of trials, you will be asked to rate how much you associate each map with:</p > <p style = 'font-size:150%; font-weight: bold'>serious</p><br></br>","0","","","","","","",""
"","","","","","html-slider-response","18","383643","0.0-14.0","91jn5sk0st","NaN","<div style=""width:500px;"">
                            <p style=""font-size:50px; font-weight:bold;""
                            >serious</p>
                            <div style=""width:240px; margin: auto;"">
                                <img src=""images/gray_19.png"" style= ""width:200px""alt=""img"">
                            </div>
                        </div>","64","","0","images/gray_19.png","","","","serious"
"","","","","","html-slider-response","19","388249","0.0-15.0","91jn5sk0st","NaN","<div style=""width:500px;"">
                            <p style=""font-size:50px; font-weight:bold;""
                            >serious</p>
                            <div style=""width:240px; margin: auto;"">
                                <img src=""images/gray_12.png"" style= ""width:200px""alt=""img"">
                            </div>
                        </div>","141","","0","images/gray_12.png","","","","serious"
"","","","","","html-slider-response","20","396131","0.0-16.0","91jn5sk0st","NaN","<div style=""width:500px;"">
                            <p style=""font-size:50px; font-weight:bold;""
                            >serious</p>
                            <div style=""width:240px; margin: auto;"">
                                <img src=""images/gray_35.png"" style= ""width:200px""alt=""img"">
                            </div>
                        </div>","31","","0","images/gray_35.png","","","","serious"
"","","","","","html-slider-response","21","399245","0.0-17.0","91jn5sk0st","NaN","<div style=""width:500px;"">
                            <p style=""font-size:50px; font-weight:bold;""
                            >serious</p>
                            <div style=""width:240px; margin: auto;"">
                                <img src=""images/gray_42.png"" style= ""width:200px""alt=""img"">
                            </div>
                        </div>","-84","","0","images/gray_42.png","","","","serious"
"","","","","","html-slider-response","22","403712","0.0-18.0","91jn5sk0st","NaN","<div style=""width:500px;"">
                            <p style=""font-size:50px; font-weight:bold;""
                            >serious</p>
                            <div style=""width:240px; margin: auto;"">
                                <img src=""images/gray_44.png"" style= ""width:200px""alt=""img"">
                            </div>
                        </div>","30","","0","images/gray_44.png","","","","serious"
"","","","","","html-slider-response","23","408937","0.0-19.0","91jn5sk0st","NaN","<div style=""width:500px;"">
                            <p style=""font-size:50px; font-weight:bold;""
                            >serious</p>
                            <div style=""width:240px; margin: auto;"">
                                <img src=""images/gray_09.png"" style= ""width:200px""alt=""img"">
                            </div>
                        </div>","-49","","0","images/gray_09.png","","","","serious"
"","","","","","html-slider-response","24","414099","0.0-20.0","91jn5sk0st","NaN","<div style=""width:500px;"">
                            <p style=""font-size:50px; font-weight:bold;""
                            >serious</p>
                            <div style=""width:240px; margin: auto;"">
                                <img src=""images/gray_05.png"" style= ""width:200px""alt=""img"">
                            </div>
                        </div>","64","","0","images/gray_05.png","","","","serious"
"","","","","","html-slider-response","25","417742","0.0-21.0","91jn5sk0st","NaN","<div style=""width:500px;"">
                            <p style=""font-size:50px; font-weight:bold;""
                            >serious</p>
                            <div style=""width:240px; margin: auto;"">
                                <img src=""images/gray_20.png"" style= ""width:200px""alt=""img"">
                            </div>
                        </div>","-43","","0","images/gray_20.png","","","","serious"
"","","","","","html-slider-response","26","448252","0.0-22.0","91jn5sk0st","NaN","<div style=""width:500px;"">
                            <p style=""font-size:50px; font-weight:bold;""
                            >serious</p>
                            <div style=""width:240px; margin: auto;"">
                                <img src=""images/gray_13.png"" style= ""width:200px""alt=""img"">
                            </div>
                        </div>","60","","0","images/gray_13.png","","","","serious"
"","","","","","html-slider-response","27","452823","0.0-23.0","91jn5sk0st","NaN","<div style=""width:500px;"">
                            <p style=""font-size:50px; font-weight:bold;""
                            >serious</p>
                            <div style=""width:240px; margin: auto;"">
                                <img src=""images/gray_07.png"" style= ""width:200px""alt=""img"">
                            </div>
                        </div>","98","","0","images/gray_07.png","","","","serious"
"","","","","","html-slider-response","28","457246","0.0-24.0","91jn5sk0st","NaN","<div style=""width:500px;"">
                            <p style=""font-size:50px; font-weight:bold;""
                            >serious</p>
                            <div style=""width:240px; margin: auto;"">
                                <img src=""images/gray_02.png"" style= ""width:200px""alt=""img"">
                            </div>
                        </div>","77","","0","images/gray_02.png","","","","serious"
"","","","","","html-slider-response","29","460691","0.0-25.0","91jn5sk0st","NaN","<div style=""width:500px;"">
                            <p style=""font-size:50px; font-weight:bold;""
                            >serious</p>
                            <div style=""width:240px; margin: auto;"">
                                <img src=""images/gray_22.png"" style= ""width:200px""alt=""img"">
                            </div>
                        </div>","-49","","0","images/gray_22.png","","","","serious"
"","","","","","html-slider-response","30","462955","0.0-26.0","91jn5sk0st","NaN","<div style=""width:500px;"">
                            <p style=""font-size:50px; font-weight:bold;""
                            >serious</p>
                            <div style=""width:240px; margin: auto;"">
                                <img src=""images/gray_18.png"" style= ""width:200px""alt=""img"">
                            </div>
                        </div>","-134","","0","images/gray_18.png","","","","serious"
"","","","","","html-slider-response","31","465620","0.0-27.0","91jn5sk0st","NaN","<div style=""width:500px;"">
                            <p style=""font-size:50px; font-weight:bold;""
                            >serious</p>
                            <div style=""width:240px; margin: auto;"">
                                <img src=""images/gray_14.png"" style= ""width:200px""alt=""img"">
                            </div>
                        </div>","84","","0","images/gray_14.png","","","","serious"
"","","","","","html-slider-response","32","470236","0.0-28.0","91jn5sk0st","NaN","<div style=""width:500px;"">
                            <p style=""font-size:50px; font-weight:bold;""
                            >serious</p>
                            <div style=""width:240px; margin: auto;"">
                                <img src=""images/gray_27.png"" style= ""width:200px""alt=""img"">
                            </div>
                        </div>","144","","0","images/gray_27.png","","","","serious"
"","","","","","html-slider-response","33","472341","0.0-29.0","91jn5sk0st","NaN","<div style=""width:500px;"">
                            <p style=""font-size:50px; font-weight:bold;""
                            >serious</p>
                            <div style=""width:240px; margin: auto;"">
                                <img src=""images/gray_39.png"" style= ""width:200px""alt=""img"">
                            </div>
                        </div>","-51","","0","images/gray_39.png","","","","serious"
"","","","","","html-slider-response","34","475229","0.0-30.0","91jn5sk0st","NaN","<div style=""width:500px;"">
                            <p style=""font-size:50px; font-weight:bold;""
                            >serious</p>
                            <div style=""width:240px; margin: auto;"">
                                <img src=""images/gray_30.png"" style= ""width:200px""alt=""img"">
                            </div>
                        </div>","125","","0","images/gray_30.png","","","","serious"
"","","","","","html-slider-response","35","478321","0.0-31.0","91jn5sk0st","NaN","<div style=""width:500px;"">
                            <p style=""font-size:50px; font-weight:bold;""
                            >serious</p>
                            <div style=""width:240px; margin: auto;"">
                                <img src=""images/gray_29.png"" style= ""width:200px""alt=""img"">
                            </div>
                        </div>","-107","","0","images/gray_29.png","","","","serious"
"","","","","","html-slider-response","36","481671","0.0-32.0","91jn5sk0st","NaN","<div style=""width:500px;"">
                            <p style=""font-size:50px; font-weight:bold;""
                            >serious</p>
                            <div style=""width:240px; margin: auto;"">
                                <img src=""images/gray_01.png"" style= ""width:200px""alt=""img"">
                            </div>
                        </div>","77","","0","images/gray_01.png","","","","serious"
"","","","","","html-slider-response","37","484652","0.0-33.0","91jn5sk0st","NaN","<div style=""width:500px;"">
                            <p style=""font-size:50px; font-weight:bold;""
                            >serious</p>
                            <div style=""width:240px; margin: auto;"">
                                <img src=""images/gray_03.png"" style= ""width:200px""alt=""img"">
                            </div>
                        </div>","54","","0","images/gray_03.png","","","","serious"
"","","","","","html-slider-response","38","487645","0.0-34.0","91jn5sk0st","NaN","<div style=""width:500px;"">
                            <p style=""font-size:50px; font-weight:bold;""
                            >serious</p>
                            <div style=""width:240px; margin: auto;"">
                                <img src=""images/gray_21.png"" style= ""width:200px""alt=""img"">
                            </div>
                        </div>","-85","","0","images/gray_21.png","","","","serious"
"","","","","","html-slider-response","39","490046","0.0-35.0","91jn5sk0st","NaN","<div style=""width:500px;"">
                            <p style=""font-size:50px; font-weight:bold;""
                            >serious</p>
                            <div style=""width:240px; margin: auto;"">
                                <img src=""images/gray_37.png"" style= ""width:200px""alt=""img"">
                            </div>
                        </div>","61","","0","images/gray_37.png","","","","serious"
"","","","","","html-slider-response","40","493011","0.0-36.0","91jn5sk0st","NaN","<div style=""width:500px;"">
                            <p style=""font-size:50px; font-weight:bold;""
                            >serious</p>
                            <div style=""width:240px; margin: auto;"">
                                <img src=""images/gray_25.png"" style= ""width:200px""alt=""img"">
                            </div>
                        </div>","38","","0","images/gray_25.png","","","","serious"
"","","","","","html-slider-response","41","496711","0.0-37.0","91jn5sk0st","NaN","<div style=""width:500px;"">
                            <p style=""font-size:50px; font-weight:bold;""
                            >serious</p>
                            <div style=""width:240px; margin: auto;"">
                                <img src=""images/gray_40.png"" style= ""width:200px""alt=""img"">
                            </div>
                        </div>","98","","0","images/gray_40.png","","","","serious"
"","","","","","html-slider-response","42","500968","0.0-38.0","91jn5sk0st","NaN","<div style=""width:500px;"">
                            <p style=""font-size:50px; font-weight:bold;""
                            >serious</p>
                            <div style=""width:240px; margin: auto;"">
                                <img src=""images/gray_41.png"" style= ""width:200px""alt=""img"">
                            </div>
                        </div>","102","","0","images/gray_41.png","","","","serious"
"","","","","","html-slider-response","43","504038","0.0-39.0","91jn5sk0st","NaN","<div style=""width:500px;"">
                            <p style=""font-size:50px; font-weight:bold;""
                            >serious</p>
                            <div style=""width:240px; margin: auto;"">
                                <img src=""images/gray_34.png"" style= ""width:200px""alt=""img"">
                            </div>
                        </div>","-102","","0","images/gray_34.png","","","","serious"
"","","","","","html-slider-response","44","506468","0.0-40.0","91jn5sk0st","NaN","<div style=""width:500px;"">
                            <p style=""font-size:50px; font-weight:bold;""
                            >serious</p>
                            <div style=""width:240px; margin: auto;"">
                                <img src=""images/gray_04.png"" style= ""width:200px""alt=""img"">
                            </div>
                        </div>","60","","0","images/gray_04.png","","","","serious"
"","","","","","html-slider-response","45","508919","0.0-41.0","91jn5sk0st","NaN","<div style=""width:500px;"">
                            <p style=""font-size:50px; font-weight:bold;""
                            >serious</p>
                            <div style=""width:240px; margin: auto;"">
                                <img src=""images/gray_36.png"" style= ""width:200px""alt=""img"">
                            </div>
                        </div>","147","","0","images/gray_36.png","","","","serious"
"","","","","","html-slider-response","46","512180","0.0-42.0","91jn5sk0st","NaN","<div style=""width:500px;"">
                            <p style=""font-size:50px; font-weight:bold;""
                            >serious</p>
                            <div style=""width:240px; margin: auto;"">
                                <img src=""images/gray_11.png"" style= ""width:200px""alt=""img"">
                            </div>
                        </div>","118","","0","images/gray_11.png","","","","serious"
"","","","","","html-slider-response","47","514396","0.0-43.0","91jn5sk0st","NaN","<div style=""width:500px;"">
                            <p style=""font-size:50px; font-weight:bold;""
                            >serious</p>
                            <div style=""width:240px; margin: auto;"">
                                <img src=""images/gray_15.png"" style= ""width:200px""alt=""img"">
                            </div>
                        </div>","90","","0","images/gray_15.png","","","","serious"
"","","","","","html-slider-response","48","525493","0.0-44.0","91jn5sk0st","NaN","<div style=""width:500px;"">
                            <p style=""font-size:50px; font-weight:bold;""
                            >serious</p>
                            <div style=""width:240px; margin: auto;"">
                                <img src=""images/gray_10.png"" style= ""width:200px""alt=""img"">
                            </div>
                        </div>","50","","0","images/gray_10.png","","","","serious"
"","","","","","html-slider-response","49","600995","0.0-45.0","91jn5sk0st","NaN","<div style=""width:500px;"">
                            <p style=""font-size:50px; font-weight:bold;""
                            >serious</p>
                            <div style=""width:240px; margin: auto;"">
                                <img src=""images/gray_24.png"" style= ""width:200px""alt=""img"">
                            </div>
                        </div>","29","","0","images/gray_24.png","","","","serious"
"","","","","","html-slider-response","50","603978","0.0-46.0","91jn5sk0st","NaN","<div style=""width:500px;"">
                            <p style=""font-size:50px; font-weight:bold;""
                            >serious</p>
                            <div style=""width:240px; margin: auto;"">
                                <img src=""images/gray_16.png"" style= ""width:200px""alt=""img"">
                            </div>
                        </div>","44","","0","images/gray_16.png","","","","serious"
"","","","","","html-slider-response","51","606391","0.0-47.0","91jn5sk0st","NaN","<div style=""width:500px;"">
                            <p style=""font-size:50px; font-weight:bold;""
                            >serious</p>
                            <div style=""width:240px; margin: auto;"">
                                <img src=""images/gray_26.png"" style= ""width:200px""alt=""img"">
                            </div>
                        </div>","106","","0","images/gray_26.png","","","","serious"
"","","","","","html-slider-response","52","609906","0.0-48.0","91jn5sk0st","NaN","<div style=""width:500px;"">
                            <p style=""font-size:50px; font-weight:bold;""
                            >serious</p>
                            <div style=""width:240px; margin: auto;"">
                                <img src=""images/gray_23.png"" style= ""width:200px""alt=""img"">
                            </div>
                        </div>","64","","0","images/gray_23.png","","","","serious"
"","","","","","html-slider-response","53","612532","0.0-49.0","91jn5sk0st","NaN","<div style=""width:500px;"">
                            <p style=""font-size:50px; font-weight:bold;""
                            >serious</p>
                            <div style=""width:240px; margin: auto;"">
                                <img src=""images/gray_28.png"" style= ""width:200px""alt=""img"">
                            </div>
                        </div>","-48","","0","images/gray_28.png","","","","serious"
"","","","","","html-slider-response","54","614563","0.0-50.0","91jn5sk0st","NaN","<div style=""width:500px;"">
                            <p style=""font-size:50px; font-weight:bold;""
                            >serious</p>
                            <div style=""width:240px; margin: auto;"">
                                <img src=""images/gray_38.png"" style= ""width:200px""alt=""img"">
                            </div>
                        </div>","51","","0","images/gray_38.png","","","","serious"
"","","","","","html-slider-response","55","616549","0.0-51.0","91jn5sk0st","NaN","<div style=""width:500px;"">
                            <p style=""font-size:50px; font-weight:bold;""
                            >serious</p>
                            <div style=""width:240px; margin: auto;"">
                                <img src=""images/gray_32.png"" style= ""width:200px""alt=""img"">
                            </div>
                        </div>","99","","0","images/gray_32.png","","","","serious"
"","","","","","html-slider-response","56","618928","0.0-52.0","91jn5sk0st","NaN","<div style=""width:500px;"">
                            <p style=""font-size:50px; font-weight:bold;""
                            >serious</p>
                            <div style=""width:240px; margin: auto;"">
                                <img src=""images/gray_31.png"" style= ""width:200px""alt=""img"">
                            </div>
                        </div>","-146","","0","images/gray_31.png","","","","serious"
"","","","","","html-slider-response","57","620976","0.0-53.0","91jn5sk0st","NaN","<div style=""width:500px;"">
                            <p style=""font-size:50px; font-weight:bold;""
                            >serious</p>
                            <div style=""width:240px; margin: auto;"">
                                <img src=""images/gray_33.png"" style= ""width:200px""alt=""img"">
                            </div>
                        </div>","-42","","0","images/gray_33.png","","","","serious"
"","","","","","html-slider-response","58","625508","0.0-54.0","91jn5sk0st","NaN","<div style=""width:500px;"">
                            <p style=""font-size:50px; font-weight:bold;""
                            >serious</p>
                            <div style=""width:240px; margin: auto;"">
                                <img src=""images/gray_17.png"" style= ""width:200px""alt=""img"">
                            </div>
                        </div>","-27","","0","images/gray_17.png","","","","serious"
"","","","","","html-slider-response","59","628203","0.0-55.0","91jn5sk0st","NaN","<div style=""width:500px;"">
                            <p style=""font-size:50px; font-weight:bold;""
                            >serious</p>
                            <div style=""width:240px; margin: auto;"">
                                <img src=""images/gray_08.png"" style= ""width:200px""alt=""img"">
                            </div>
                        </div>","99","","0","images/gray_08.png","","","","serious"
"","","","","","html-slider-response","60","630889","0.0-56.0","91jn5sk0st","NaN","<div style=""width:500px;"">
                            <p style=""font-size:50px; font-weight:bold;""
                            >serious</p>
                            <div style=""width:240px; margin: auto;"">
                                <img src=""images/gray_06.png"" style= ""width:200px""alt=""img"">
                            </div>
                        </div>","-93","","0","images/gray_06.png","","","","serious"
"","","","","","html-slider-response","61","645213","0.0-57.0","91jn5sk0st","NaN","<div style=""width:500px;"">
                            <p style=""font-size:50px; font-weight:bold;""
                            >serious</p>
                            <div style=""width:240px; margin: auto;"">
                                <img src=""images/gray_43.png"" style= ""width:200px""alt=""img"">
                            </div>
                        </div>","43","","0","images/gray_43.png","","","","serious"
"","","","","","html-button-response","62","647092","0.0-58.0","91jn5sk0st","1364","<p>Great Job! You've finished block 1.<br></br> You have 7 block(s) left to go.<br></br></p>","0","","","","","","",""
"","","","","","html-button-response","63","648263","0.0-59.0","91jn5sk0st","1168","<p>In this block of trials, you will be asked to rate how much you associate each map with:</p > <p style = 'font-size:150%; font-weight: bold'>trustworthy</p><br></br>","0","","","","","","",""
"","","","","","html-slider-response","64","652376","0.0-60.0","91jn5sk0st","NaN","<div style=""width:500px;"">
                            <p style=""font-size:50px; font-weight:bold;""
                            >trustworthy</p>
                            <div style=""width:240px; margin: auto;"">
                                <img src=""images/gray_33.png"" style= ""width:200px""alt=""img"">
                            </div>
                        </div>","-83","","0","images/gray_33.png","","","","trustworthy"
"","","","","","html-slider-response","65","658730","0.0-61.0","91jn5sk0st","NaN","<div style=""width:500px;"">
                            <p style=""font-size:50px; font-weight:bold;""
                            >trustworthy</p>
                            <div style=""width:240px; margin: auto;"">
                                <img src=""images/gray_18.png"" style= ""width:200px""alt=""img"">
                            </div>
                        </div>","-200","","0","images/gray_18.png","","","","trustworthy"
"","","","","","html-slider-response","66","662129","0.0-62.0","91jn5sk0st","NaN","<div style=""width:500px;"">
                            <p style=""font-size:50px; font-weight:bold;""
                            >trustworthy</p>
                            <div style=""width:240px; margin: auto;"">
                                <img src=""images/gray_36.png"" style= ""width:200px""alt=""img"">
                            </div>
                        </div>","-77","","0","images/gray_36.png","","","","trustworthy"
"","","","","","html-slider-response","67","665679","0.0-63.0","91jn5sk0st","NaN","<div style=""width:500px;"">
                            <p style=""font-size:50px; font-weight:bold;""
                            >trustworthy</p>
                            <div style=""width:240px; margin: auto;"">
                                <img src=""images/gray_20.png"" style= ""width:200px""alt=""img"">
                            </div>
                        </div>","-141","","0","images/gray_20.png","","","","trustworthy"
"","","","","","html-slider-response","68","669925","0.0-64.0","91jn5sk0st","NaN","<div style=""width:500px;"">
                            <p style=""font-size:50px; font-weight:bold;""
                            >trustworthy</p>
                            <div style=""width:240px; margin: auto;"">
                                <img src=""images/gray_10.png"" style= ""width:200px""alt=""img"">
                            </div>
                        </div>","-200","","0","images/gray_10.png","","","","trustworthy"
"","","","","","html-slider-response","69","675521","0.0-65.0","91jn5sk0st","NaN","<div style=""width:500px;"">
                            <p style=""font-size:50px; font-weight:bold;""
                            >trustworthy</p>
                            <div style=""width:240px; margin: auto;"">
                                <img src=""images/gray_02.png"" style= ""width:200px""alt=""img"">
                            </div>
                        </div>","-80","","0","images/gray_02.png","","","","trustworthy"
"","","","","","html-slider-response","70","678119","0.0-66.0","91jn5sk0st","NaN","<div style=""width:500px;"">
                            <p style=""font-size:50px; font-weight:bold;""
                            >trustworthy</p>
                            <div style=""width:240px; margin: auto;"">
                                <img src=""images/gray_38.png"" style= ""width:200px""alt=""img"">
                            </div>
                        </div>","-54","","0","images/gray_38.png","","","","trustworthy"
"","","","","","html-slider-response","71","680952","0.0-67.0","91jn5sk0st","NaN","<div style=""width:500px;"">
                            <p style=""font-size:50px; font-weight:bold;""
                            >trustworthy</p>
                            <div style=""width:240px; margin: auto;"">
                                <img src=""images/gray_43.png"" style= ""width:200px""alt=""img"">
                            </div>
                        </div>","-106","","0","images/gray_43.png","","","","trustworthy"
"","","","","","html-slider-response","72","683264","0.0-68.0","91jn5sk0st","NaN","<div style=""width:500px;"">
                            <p style=""font-size:50px; font-weight:bold;""
                            >trustworthy</p>
                            <div style=""width:240px; margin: auto;"">
                                <img src=""images/gray_44.png"" style= ""width:200px""alt=""img"">
                            </div>
                        </div>","-189","","0","images/gray_44.png","","","","trustworthy"
"","","","","","html-slider-response","73","687691","0.0-69.0","91jn5sk0st","NaN","<div style=""width:500px;"">
                            <p style=""font-size:50px; font-weight:bold;""
                            >trustworthy</p>
                            <div style=""width:240px; margin: auto;"">
                                <img src=""images/gray_29.png"" style= ""width:200px""alt=""img"">
                            </div>
                        </div>","51","","0","images/gray_29.png","","","","trustworthy"
"","","","","","html-slider-response","74","691153","0.0-70.0","91jn5sk0st","NaN","<div style=""width:500px;"">
                            <p style=""font-size:50px; font-weight:bold;""
                            >trustworthy</p>
                            <div style=""width:240px; margin: auto;"">
                                <img src=""images/gray_08.png"" style= ""width:200px""alt=""img"">
                            </div>
                        </div>","-111","","0","images/gray_08.png","","","","trustworthy"
"","","","","","html-slider-response","75","762906","0.0-71.0","91jn5sk0st","NaN","<div style=""width:500px;"">
                            <p style=""font-size:50px; font-weight:bold;""
                            >trustworthy</p>
                            <div style=""width:240px; margin: auto;"">
                                <img src=""images/gray_32.png"" style= ""width:200px""alt=""img"">
                            </div>
                        </div>","-76","","0","images/gray_32.png","","","","trustworthy"
"","","","","","html-slider-response","76","765994","0.0-72.0","91jn5sk0st","NaN","<div style=""width:500px;"">
                            <p style=""font-size:50px; font-weight:bold;""
                            >trustworthy</p>
                            <div style=""width:240px; margin: auto;"">
                                <img src=""images/gray_31.png"" style= ""width:200px""alt=""img"">
                            </div>
                        </div>","68","","0","images/gray_31.png","","","","trustworthy"
"","","","","","html-slider-response","77","769122","0.0-73.0","91jn5sk0st","NaN","<div style=""width:500px;"">
                            <p style=""font-size:50px; font-weight:bold;""
                            >trustworthy</p>
                            <div style=""width:240px; margin: auto;"">
                                <img src=""images/gray_06.png"" style= ""width:200px""alt=""img"">
                            </div>
                        </div>","-71","","0","images/gray_06.png","","","","trustworthy"
"","","","","","html-slider-response","78","771870","0.0-74.0","91jn5sk0st","NaN","<div style=""width:500px;"">
                            <p style=""font-size:50px; font-weight:bold;""
                            >trustworthy</p>
                            <div style=""width:240px; margin: auto;"">
                                <img src=""images/gray_21.png"" style= ""width:200px""alt=""img"">
                            </div>
                        </div>","86","","0","images/gray_21.png","","","","trustworthy"
"","","","","","html-slider-response","79","820505","0.0-75.0","91jn5sk0st","NaN","<div style=""width:500px;"">
                            <p style=""font-size:50px; font-weight:bold;""
                            >trustworthy</p>
                            <div style=""width:240px; margin: auto;"">
                                <img src=""images/gray_14.png"" style= ""width:200px""alt=""img"">
                            </div>
                        </div>","-58","","0","images/gray_14.png","","","","trustworthy"
"","","","","","html-slider-response","80","823520","0.0-76.0","91jn5sk0st","NaN","<div style=""width:500px;"">
                            <p style=""font-size:50px; font-weight:bold;""
                            >trustworthy</p>
                            <div style=""width:240px; margin: auto;"">
                                <img src=""images/gray_34.png"" style= ""width:200px""alt=""img"">
                            </div>
                        </div>","-99","","0","images/gray_34.png","","","","trustworthy"
"","","","","","html-slider-response","81","826378","0.0-77.0","91jn5sk0st","NaN","<div style=""width:500px;"">
                            <p style=""font-size:50px; font-weight:bold;""
                            >trustworthy</p>
                            <div style=""width:240px; margin: auto;"">
                                <img src=""images/gray_17.png"" style= ""width:200px""alt=""img"">
                            </div>
                        </div>","-173","","0","images/gray_17.png","","","","trustworthy"
"","","","","","html-slider-response","82","829082","0.0-78.0","91jn5sk0st","NaN","<div style=""width:500px;"">
                            <p style=""font-size:50px; font-weight:bold;""
                            >trustworthy</p>
                            <div style=""width:240px; margin: auto;"">
                                <img src=""images/gray_22.png"" style= ""width:200px""alt=""img"">
                            </div>
                        </div>","-147","","0","images/gray_22.png","","","","trustworthy"
"","","","","","html-slider-response","83","831267","0.0-79.0","91jn5sk0st","NaN","<div style=""width:500px;"">
                            <p style=""font-size:50px; font-weight:bold;""
                            >trustworthy</p>
                            <div style=""width:240px; margin: auto;"">
                                <img src=""images/gray_42.png"" style= ""width:200px""alt=""img"">
                            </div>
                        </div>","-98","","0","images/gray_42.png","","","","trustworthy"
"","","","","","html-slider-response","84","833601","0.0-80.0","91jn5sk0st","NaN","<div style=""width:500px;"">
                            <p style=""font-size:50px; font-weight:bold;""
                            >trustworthy</p>
                            <div style=""width:240px; margin: auto;"">
                                <img src=""images/gray_03.png"" style= ""width:200px""alt=""img"">
                            </div>
                        </div>","-79","","0","images/gray_03.png","","","","trustworthy"
"","","","","","html-slider-response","85","836651","0.0-81.0","91jn5sk0st","NaN","<div style=""width:500px;"">
                            <p style=""font-size:50px; font-weight:bold;""
                            >trustworthy</p>
                            <div style=""width:240px; margin: auto;"">
                                <img src=""images/gray_25.png"" style= ""width:200px""alt=""img"">
                            </div>
                        </div>","-158","","0","images/gray_25.png","","","","trustworthy"
"","","","","","html-slider-response","86","839627","0.0-82.0","91jn5sk0st","NaN","<div style=""width:500px;"">
                            <p style=""font-size:50px; font-weight:bold;""
                            >trustworthy</p>
                            <div style=""width:240px; margin: auto;"">
                                <img src=""images/gray_35.png"" style= ""width:200px""alt=""img"">
                            </div>
                        </div>","-145","","0","images/gray_35.png","","","","trustworthy"
"","","","","","html-slider-response","87","841667","0.0-83.0","91jn5sk0st","NaN","<div style=""width:500px;"">
                            <p style=""font-size:50px; font-weight:bold;""
                            >trustworthy</p>
                            <div style=""width:240px; margin: auto;"">
                                <img src=""images/gray_23.png"" style= ""width:200px""alt=""img"">
                            </div>
                        </div>","-200","","0","images/gray_23.png","","","","trustworthy"
"","","","","","html-slider-response","88","844856","0.0-84.0","91jn5sk0st","NaN","<div style=""width:500px;"">
                            <p style=""font-size:50px; font-weight:bold;""
                            >trustworthy</p>
                            <div style=""width:240px; margin: auto;"">
                                <img src=""images/gray_39.png"" style= ""width:200px""alt=""img"">
                            </div>
                        </div>","72","","0","images/gray_39.png","","","","trustworthy"
"","","","","","html-slider-response","89","847754","0.0-85.0","91jn5sk0st","NaN","<div style=""width:500px;"">
                            <p style=""font-size:50px; font-weight:bold;""
                            >trustworthy</p>
                            <div style=""width:240px; margin: auto;"">
                                <img src=""images/gray_05.png"" style= ""width:200px""alt=""img"">
                            </div>
                        </div>","-77","","0","images/gray_05.png","","","","trustworthy"
"","","","","","html-slider-response","90","850357","0.0-86.0","91jn5sk0st","NaN","<div style=""width:500px;"">
                            <p style=""font-size:50px; font-weight:bold;""
                            >trustworthy</p>
                            <div style=""width:240px; margin: auto;"">
                                <img src=""images/gray_28.png"" style= ""width:200px""alt=""img"">
                            </div>
                        </div>","-72","","0","images/gray_28.png","","","","trustworthy"
"","","","","","html-slider-response","91","853101","0.0-87.0","91jn5sk0st","NaN","<div style=""width:500px;"">
                            <p style=""font-size:50px; font-weight:bold;""
                            >trustworthy</p>
                            <div style=""width:240px; margin: auto;"">
                                <img src=""images/gray_11.png"" style= ""width:200px""alt=""img"">
                            </div>
                        </div>","-169","","0","images/gray_11.png","","","","trustworthy"
"","","","","","html-slider-response","92","856152","0.0-88.0","91jn5sk0st","NaN","<div style=""width:500px;"">
                            <p style=""font-size:50px; font-weight:bold;""
                            >trustworthy</p>
                            <div style=""width:240px; margin: auto;"">
                                <img src=""images/gray_19.png"" style= ""width:200px""alt=""img"">
                            </div>
                        </div>","61","","0","images/gray_19.png","","","","trustworthy"
"","","","","","html-slider-response","93","860131","0.0-89.0","91jn5sk0st","NaN","<div style=""width:500px;"">
                            <p style=""font-size:50px; font-weight:bold;""
                            >trustworthy</p>
                            <div style=""width:240px; margin: auto;"">
                                <img src=""images/gray_01.png"" style= ""width:200px""alt=""img"">
                            </div>
                        </div>","37","","0","images/gray_01.png","","","","trustworthy"
"","","","","","html-slider-response","94","864703","0.0-90.0","91jn5sk0st","NaN","<div style=""width:500px;"">
                            <p style=""font-size:50px; font-weight:bold;""
                            >trustworthy</p>
                            <div style=""width:240px; margin: auto;"">
                                <img src=""images/gray_26.png"" style= ""width:200px""alt=""img"">
                            </div>
                        </div>","-70","","0","images/gray_26.png","","","","trustworthy"
"","","","","","html-slider-response","95","869549","0.0-91.0","91jn5sk0st","NaN","<div style=""width:500px;"">
                            <p style=""font-size:50px; font-weight:bold;""
                            >trustworthy</p>
                            <div style=""width:240px; margin: auto;"">
                                <img src=""images/gray_04.png"" style= ""width:200px""alt=""img"">
                            </div>
                        </div>","-118","","0","images/gray_04.png","","","","trustworthy"
"","","","","","html-slider-response","96","872215","0.0-92.0","91jn5sk0st","NaN","<div style=""width:500px;"">
                            <p style=""font-size:50px; font-weight:bold;""
                            >trustworthy</p>
                            <div style=""width:240px; margin: auto;"">
                                <img src=""images/gray_07.png"" style= ""width:200px""alt=""img"">
                            </div>
                        </div>","-200","","0","images/gray_07.png","","","","trustworthy"
"","","","","","html-slider-response","97","1011892","0.0-93.0","91jn5sk0st","NaN","<div style=""width:500px;"">
                            <p style=""font-size:50px; font-weight:bold;""
                            >trustworthy</p>
                            <div style=""width:240px; margin: auto;"">
                                <img src=""images/gray_27.png"" style= ""width:200px""alt=""img"">
                            </div>
                        </div>","-117","","0","images/gray_27.png","","","","trustworthy"
"","","","","","html-slider-response","98","1017140","0.0-94.0","91jn5sk0st","NaN","<div style=""width:500px;"">
                            <p style=""font-size:50px; font-weight:bold;""
                            >trustworthy</p>
                            <div style=""width:240px; margin: auto;"">
                                <img src=""images/gray_16.png"" style= ""width:200px""alt=""img"">
                            </div>
                        </div>","-31","","0","images/gray_16.png","","","","trustworthy"
"","","","","","html-slider-response","99","1021797","0.0-95.0","91jn5sk0st","NaN","<div style=""width:500px;"">
                            <p style=""font-size:50px; font-weight:bold;""
                            >trustworthy</p>
                            <div style=""width:240px; margin: auto;"">
                                <img src=""images/gray_13.png"" style= ""width:200px""alt=""img"">
                            </div>
                        </div>","-55","","0","images/gray_13.png","","","","trustworthy"
"","","","","","html-slider-response","100","1026463","0.0-96.0","91jn5sk0st","NaN","<div style=""width:500px;"">
                            <p style=""font-size:50px; font-weight:bold;""
                            >trustworthy</p>
                            <div style=""width:240px; margin: auto;"">
                                <img src=""images/gray_41.png"" style= ""width:200px""alt=""img"">
                            </div>
                        </div>","-91","","0","images/gray_41.png","","","","trustworthy"
"","","","","","html-slider-response","101","1029293","0.0-97.0","91jn5sk0st","NaN","<div style=""width:500px;"">
                            <p style=""font-size:50px; font-weight:bold;""
                            >trustworthy</p>
                            <div style=""width:240px; margin: auto;"">
                                <img src=""images/gray_15.png"" style= ""width:200px""alt=""img"">
                            </div>
                        </div>","-176","","0","images/gray_15.png","","","","trustworthy"
"","","","","","html-slider-response","102","1037153","0.0-98.0","91jn5sk0st","NaN","<div style=""width:500px;"">
                            <p style=""font-size:50px; font-weight:bold;""
                            >trustworthy</p>
                            <div style=""width:240px; margin: auto;"">
                                <img src=""images/gray_24.png"" style= ""width:200px""alt=""img"">
                            </div>
                        </div>","-144","","0","images/gray_24.png","","","","trustworthy"
"","","","","","html-slider-response","103","1039950","0.0-99.0","91jn5sk0st","NaN","<div style=""width:500px;"">
                            <p style=""font-size:50px; font-weight:bold;""
                            >trustworthy</p>
                            <div style=""width:240px; margin: auto;"">
                                <img src=""images/gray_12.png"" style= ""width:200px""alt=""img"">
                            </div>
                        </div>","-200","","0","images/gray_12.png","","","","trustworthy"
"","","","","","html-slider-response","104","1043869","0.0-100.0","91jn5sk0st","NaN","<div style=""width:500px;"">
                            <p style=""font-size:50px; font-weight:bold;""
                            >trustworthy</p>
                            <div style=""width:240px; margin: auto;"">
                                <img src=""images/gray_30.png"" style= ""width:200px""alt=""img"">
                            </div>
                        </div>","-74","","0","images/gray_30.png","","","","trustworthy"
"","","","","","html-slider-response","105","1048579","0.0-101.0","91jn5sk0st","NaN","<div style=""width:500px;"">
                            <p style=""font-size:50px; font-weight:bold;""
                            >trustworthy</p>
                            <div style=""width:240px; margin: auto;"">
                                <img src=""images/gray_37.png"" style= ""width:200px""alt=""img"">
                            </div>
                        </div>","-69","","0","images/gray_37.png","","","","trustworthy"
"","","","","","html-slider-response","106","1221604","0.0-102.0","91jn5sk0st","NaN","<div style=""width:500px;"">
                            <p style=""font-size:50px; font-weight:bold;""
                            >trustworthy</p>
                            <div style=""width:240px; margin: auto;"">
                                <img src=""images/gray_09.png"" style= ""width:200px""alt=""img"">
                            </div>
                        </div>","58","","0","images/gray_09.png","","","","trustworthy"
"","","","","","html-slider-response","107","1223640","0.0-103.0","91jn5sk0st","NaN","<div style=""width:500px;"">
                            <p style=""font-size:50px; font-weight:bold;""
                            >trustworthy</p>
                            <div style=""width:240px; margin: auto;"">
                                <img src=""images/gray_40.png"" style= ""width:200px""alt=""img"">
                            </div>
                        </div>","-145","","0","images/gray_40.png","","","","trustworthy"
"","","","","","html-button-response","108","1374576","0.0-104.0","91jn5sk0st","150430","<p>Great Job! You've finished block 2.<br></br> You have 6 block(s) left to go.<br></br></p>","0","","","","","","",""
"","","","","","html-button-response","109","1375496","0.0-105.0","91jn5sk0st","916","<p>In this block of trials, you will be asked to rate how much you associate each map with:</p > <p style = 'font-size:150%; font-weight: bold'>exciting</p><br></br>","0","","","","","","",""
"","","","","","html-slider-response","110","1378741","0.0-106.0","91jn5sk0st","NaN","<div style=""width:500px;"">
                            <p style=""font-size:50px; font-weight:bold;""
                            >exciting</p>
                            <div style=""width:240px; margin: auto;"">
                                <img src=""images/gray_04.png"" style= ""width:200px""alt=""img"">
                            </div>
                        </div>","39","","0","images/gray_04.png","","","","exciting"
"","","","","","html-slider-response","111","1381053","0.0-107.0","91jn5sk0st","NaN","<div style=""width:500px;"">
                            <p style=""font-size:50px; font-weight:bold;""
                            >exciting</p>
                            <div style=""width:240px; margin: auto;"">
                                <img src=""images/gray_08.png"" style= ""width:200px""alt=""img"">
                            </div>
                        </div>","102","","0","images/gray_08.png","","","","exciting"
"","","","","","html-slider-response","112","1386715","0.0-108.0","91jn5sk0st","NaN","<div style=""width:500px;"">
                            <p style=""font-size:50px; font-weight:bold;""
                            >exciting</p>
                            <div style=""width:240px; margin: auto;"">
                                <img src=""images/gray_24.png"" style= ""width:200px""alt=""img"">
                            </div>
                        </div>","-57","","0","images/gray_24.png","","","","exciting"
"","","","","","html-slider-response","113","1389048","0.0-109.0","91jn5sk0st","NaN","<div style=""width:500px;"">
                            <p style=""font-size:50px; font-weight:bold;""
                            >exciting</p>
                            <div style=""width:240px; margin: auto;"">
                                <img src=""images/gray_06.png"" style= ""width:200px""alt=""img"">
                            </div>
                        </div>","-104","","0","images/gray_06.png","","","","exciting"
"","","","","","html-slider-response","114","1391911","0.0-110.0","91jn5sk0st","NaN","<div style=""width:500px;"">
                            <p style=""font-size:50px; font-weight:bold;""
                            >exciting</p>
                            <div style=""width:240px; margin: auto;"">
                                <img src=""images/gray_42.png"" style= ""width:200px""alt=""img"">
                            </div>
                        </div>","134","","0","images/gray_42.png","","","","exciting"
"","","","","","html-slider-response","115","1394643","0.0-111.0","91jn5sk0st","NaN","<div style=""width:500px;"">
                            <p style=""font-size:50px; font-weight:bold;""
                            >exciting</p>
                            <div style=""width:240px; margin: auto;"">
                                <img src=""images/gray_10.png"" style= ""width:200px""alt=""img"">
                            </div>
                        </div>","102","","0","images/gray_10.png","","","","exciting"
"","","","","","html-slider-response","116","1397470","0.0-112.0","91jn5sk0st","NaN","<div style=""width:500px;"">
                            <p style=""font-size:50px; font-weight:bold;""
                            >exciting</p>
                            <div style=""width:240px; margin: auto;"">
                                <img src=""images/gray_37.png"" style= ""width:200px""alt=""img"">
                            </div>
                        </div>","-61","","0","images/gray_37.png","","","","exciting"
"","","","","","html-slider-response","117","1399686","0.0-113.0","91jn5sk0st","NaN","<div style=""width:500px;"">
                            <p style=""font-size:50px; font-weight:bold;""
                            >exciting</p>
                            <div style=""width:240px; margin: auto;"">
                                <img src=""images/gray_29.png"" style= ""width:200px""alt=""img"">
                            </div>
                        </div>","-147","","0","images/gray_29.png","","","","exciting"
"","","","","","html-slider-response","118","1403380","0.0-114.0","91jn5sk0st","NaN","<div style=""width:500px;"">
                            <p style=""font-size:50px; font-weight:bold;""
                            >exciting</p>
                            <div style=""width:240px; margin: auto;"">
                                <img src=""images/gray_22.png"" style= ""width:200px""alt=""img"">
                            </div>
                        </div>","-57","","0","images/gray_22.png","","","","exciting"
"","","","","","html-slider-response","119","1406229","0.0-115.0","91jn5sk0st","NaN","<div style=""width:500px;"">
                            <p style=""font-size:50px; font-weight:bold;""
                            >exciting</p>
                            <div style=""width:240px; margin: auto;"">
                                <img src=""images/gray_25.png"" style= ""width:200px""alt=""img"">
                            </div>
                        </div>","200","","0","images/gray_25.png","","","","exciting"
"","","","","","html-slider-response","120","1408367","0.0-116.0","91jn5sk0st","NaN","<div style=""width:500px;"">
                            <p style=""font-size:50px; font-weight:bold;""
                            >exciting</p>
                            <div style=""width:240px; margin: auto;"">
                                <img src=""images/gray_14.png"" style= ""width:200px""alt=""img"">
                            </div>
                        </div>","200","","0","images/gray_14.png","","","","exciting"
"","","","","","html-slider-response","121","1412911","0.0-117.0","91jn5sk0st","NaN","<div style=""width:500px;"">
                            <p style=""font-size:50px; font-weight:bold;""
                            >exciting</p>
                            <div style=""width:240px; margin: auto;"">
                                <img src=""images/gray_21.png"" style= ""width:200px""alt=""img"">
                            </div>
                        </div>","-80","","0","images/gray_21.png","","","","exciting"
"","","","","","html-slider-response","122","1415806","0.0-118.0","91jn5sk0st","NaN","<div style=""width:500px;"">
                            <p style=""font-size:50px; font-weight:bold;""
                            >exciting</p>
                            <div style=""width:240px; margin: auto;"">
                                <img src=""images/gray_40.png"" style= ""width:200px""alt=""img"">
                            </div>
                        </div>","122","","0","images/gray_40.png","","","","exciting"
"","","","","","html-slider-response","123","1418168","0.0-119.0","91jn5sk0st","NaN","<div style=""width:500px;"">
                            <p style=""font-size:50px; font-weight:bold;""
                            >exciting</p>
                            <div style=""width:240px; margin: auto;"">
                                <img src=""images/gray_02.png"" style= ""width:200px""alt=""img"">
                            </div>
                        </div>","160","","0","images/gray_02.png","","","","exciting"
"","","","","","html-slider-response","124","1421082","0.0-120.0","91jn5sk0st","NaN","<div style=""width:500px;"">
                            <p style=""font-size:50px; font-weight:bold;""
                            >exciting</p>
                            <div style=""width:240px; margin: auto;"">
                                <img src=""images/gray_30.png"" style= ""width:200px""alt=""img"">
                            </div>
                        </div>","134","","0","images/gray_30.png","","","","exciting"
"","","","","","html-slider-response","125","1424503","0.0-121.0","91jn5sk0st","NaN","<div style=""width:500px;"">
                            <p style=""font-size:50px; font-weight:bold;""
                            >exciting</p>
                            <div style=""width:240px; margin: auto;"">
                                <img src=""images/gray_28.png"" style= ""width:200px""alt=""img"">
                            </div>
                        </div>","-61","","0","images/gray_28.png","","","","exciting"
"","","","","","html-slider-response","126","1428067","0.0-122.0","91jn5sk0st","NaN","<div style=""width:500px;"">
                            <p style=""font-size:50px; font-weight:bold;""
                            >exciting</p>
                            <div style=""width:240px; margin: auto;"">
                                <img src=""images/gray_32.png"" style= ""width:200px""alt=""img"">
                            </div>
                        </div>","138","","0","images/gray_32.png","","","","exciting"
"","","","","","html-slider-response","127","1461648","0.0-123.0","91jn5sk0st","NaN","<div style=""width:500px;"">
                            <p style=""font-size:50px; font-weight:bold;""
                            >exciting</p>
                            <div style=""width:240px; margin: auto;"">
                                <img src=""images/gray_01.png"" style= ""width:200px""alt=""img"">
                            </div>
                        </div>","-51","","0","images/gray_01.png","","","","exciting"
"","","","","","html-slider-response","128","1465177","0.0-124.0","91jn5sk0st","NaN","<div style=""width:500px;"">
                            <p style=""font-size:50px; font-weight:bold;""
                            >exciting</p>
                            <div style=""width:240px; margin: auto;"">
                                <img src=""images/gray_12.png"" style= ""width:200px""alt=""img"">
                            </div>
                        </div>","81","","0","images/gray_12.png","","","","exciting"
"","","","","","html-slider-response","129","1468762","0.0-125.0","91jn5sk0st","NaN","<div style=""width:500px;"">
                            <p style=""font-size:50px; font-weight:bold;""
                            >exciting</p>
                            <div style=""width:240px; margin: auto;"">
                                <img src=""images/gray_17.png"" style= ""width:200px""alt=""img"">
                            </div>
                        </div>","119","","0","images/gray_17.png","","","","exciting"
"","","","","","html-slider-response","130","1471090","0.0-126.0","91jn5sk0st","NaN","<div style=""width:500px;"">
                            <p style=""font-size:50px; font-weight:bold;""
                            >exciting</p>
                            <div style=""width:240px; margin: auto;"">
                                <img src=""images/gray_31.png"" style= ""width:200px""alt=""img"">
                            </div>
                        </div>","-79","","0","images/gray_31.png","","","","exciting"
"","","","","","html-slider-response","131","1473693","0.0-127.0","91jn5sk0st","NaN","<div style=""width:500px;"">
                            <p style=""font-size:50px; font-weight:bold;""
                            >exciting</p>
                            <div style=""width:240px; margin: auto;"">
                                <img src=""images/gray_16.png"" style= ""width:200px""alt=""img"">
                            </div>
                        </div>","-52","","0","images/gray_16.png","","","","exciting"
"","","","","","html-slider-response","132","1476086","0.0-128.0","91jn5sk0st","NaN","<div style=""width:500px;"">
                            <p style=""font-size:50px; font-weight:bold;""
                            >exciting</p>
                            <div style=""width:240px; margin: auto;"">
                                <img src=""images/gray_11.png"" style= ""width:200px""alt=""img"">
                            </div>
                        </div>","123","","0","images/gray_11.png","","","","exciting"
"","","","","","html-slider-response","133","1478286","0.0-129.0","91jn5sk0st","NaN","<div style=""width:500px;"">
                            <p style=""font-size:50px; font-weight:bold;""
                            >exciting</p>
                            <div style=""width:240px; margin: auto;"">
                                <img src=""images/gray_03.png"" style= ""width:200px""alt=""img"">
                            </div>
                        </div>","162","","0","images/gray_03.png","","","","exciting"
"","","","","","html-slider-response","134","1480586","0.0-130.0","91jn5sk0st","NaN","<div style=""width:500px;"">
                            <p style=""font-size:50px; font-weight:bold;""
                            >exciting</p>
                            <div style=""width:240px; margin: auto;"">
                                <img src=""images/gray_05.png"" style= ""width:200px""alt=""img"">
                            </div>
                        </div>","134","","0","images/gray_05.png","","","","exciting"
"","","","","","html-slider-response","135","1483583","0.0-131.0","91jn5sk0st","NaN","<div style=""width:500px;"">
                            <p style=""font-size:50px; font-weight:bold;""
                            >exciting</p>
                            <div style=""width:240px; margin: auto;"">
                                <img src=""images/gray_35.png"" style= ""width:200px""alt=""img"">
                            </div>
                        </div>","-59","","0","images/gray_35.png","","","","exciting"
"","","","","","html-slider-response","136","1486336","0.0-132.0","91jn5sk0st","NaN","<div style=""width:500px;"">
                            <p style=""font-size:50px; font-weight:bold;""
                            >exciting</p>
                            <div style=""width:240px; margin: auto;"">
                                <img src=""images/gray_44.png"" style= ""width:200px""alt=""img"">
                            </div>
                        </div>","200","","0","images/gray_44.png","","","","exciting"
"","","","","","html-slider-response","137","1490082","0.0-133.0","91jn5sk0st","NaN","<div style=""width:500px;"">
                            <p style=""font-size:50px; font-weight:bold;""
                            >exciting</p>
                            <div style=""width:240px; margin: auto;"">
                                <img src=""images/gray_27.png"" style= ""width:200px""alt=""img"">
                            </div>
                        </div>","75","","0","images/gray_27.png","","","","exciting"
"","","","","","html-slider-response","138","1492571","0.0-134.0","91jn5sk0st","NaN","<div style=""width:500px;"">
                            <p style=""font-size:50px; font-weight:bold;""
                            >exciting</p>
                            <div style=""width:240px; margin: auto;"">
                                <img src=""images/gray_39.png"" style= ""width:200px""alt=""img"">
                            </div>
                        </div>","-157","","0","images/gray_39.png","","","","exciting"
"","","","","","html-slider-response","139","1500075","0.0-135.0","91jn5sk0st","NaN","<div style=""width:500px;"">
                            <p style=""font-size:50px; font-weight:bold;""
                            >exciting</p>
                            <div style=""width:240px; margin: auto;"">
                                <img src=""images/gray_15.png"" style= ""width:200px""alt=""img"">
                            </div>
                        </div>","28","","0","images/gray_15.png","","","","exciting"
"","","","","","html-slider-response","140","1507846","0.0-136.0","91jn5sk0st","NaN","<div style=""width:500px;"">
                            <p style=""font-size:50px; font-weight:bold;""
                            >exciting</p>
                            <div style=""width:240px; margin: auto;"">
                                <img src=""images/gray_43.png"" style= ""width:200px""alt=""img"">
                            </div>
                        </div>","-64","","0","images/gray_43.png","","","","exciting"
"","","","","","html-slider-response","141","1510986","0.0-137.0","91jn5sk0st","NaN","<div style=""width:500px;"">
                            <p style=""font-size:50px; font-weight:bold;""
                            >exciting</p>
                            <div style=""width:240px; margin: auto;"">
                                <img src=""images/gray_41.png"" style= ""width:200px""alt=""img"">
                            </div>
                        </div>","94","","0","images/gray_41.png","","","","exciting"
"","","","","","html-slider-response","142","1514651","0.0-138.0","91jn5sk0st","NaN","<div style=""width:500px;"">
                            <p style=""font-size:50px; font-weight:bold;""
                            >exciting</p>
                            <div style=""width:240px; margin: auto;"">
                                <img src=""images/gray_19.png"" style= ""width:200px""alt=""img"">
                            </div>
                        </div>","-154","","0","images/gray_19.png","","","","exciting"
"","","","","","html-slider-response","143","1519202","0.0-139.0","91jn5sk0st","NaN","<div style=""width:500px;"">
                            <p style=""font-size:50px; font-weight:bold;""
                            >exciting</p>
                            <div style=""width:240px; margin: auto;"">
                                <img src=""images/gray_20.png"" style= ""width:200px""alt=""img"">
                            </div>
                        </div>","22","","0","images/gray_20.png","","","","exciting"
"","","","","","html-slider-response","144","1522111","0.0-140.0","91jn5sk0st","NaN","<div style=""width:500px;"">
                            <p style=""font-size:50px; font-weight:bold;""
                            >exciting</p>
                            <div style=""width:240px; margin: auto;"">
                                <img src=""images/gray_38.png"" style= ""width:200px""alt=""img"">
                            </div>
                        </div>","107","","0","images/gray_38.png","","","","exciting"
"","","","","","html-slider-response","145","1524694","0.0-141.0","91jn5sk0st","NaN","<div style=""width:500px;"">
                            <p style=""font-size:50px; font-weight:bold;""
                            >exciting</p>
                            <div style=""width:240px; margin: auto;"">
                                <img src=""images/gray_36.png"" style= ""width:200px""alt=""img"">
                            </div>
                        </div>","178","","0","images/gray_36.png","","","","exciting"
"","","","","","html-slider-response","146","1529376","0.0-142.0","91jn5sk0st","NaN","<div style=""width:500px;"">
                            <p style=""font-size:50px; font-weight:bold;""
                            >exciting</p>
                            <div style=""width:240px; margin: auto;"">
                                <img src=""images/gray_33.png"" style= ""width:200px""alt=""img"">
                            </div>
                        </div>","-51","","0","images/gray_33.png","","","","exciting"
"","","","","","html-slider-response","147","1531614","0.0-143.0","91jn5sk0st","NaN","<div style=""width:500px;"">
                            <p style=""font-size:50px; font-weight:bold;""
                            >exciting</p>
                            <div style=""width:240px; margin: auto;"">
                                <img src=""images/gray_09.png"" style= ""width:200px""alt=""img"">
                            </div>
                        </div>","83","","0","images/gray_09.png","","","","exciting"
"","","","","","html-slider-response","148","1533926","0.0-144.0","91jn5sk0st","NaN","<div style=""width:500px;"">
                            <p style=""font-size:50px; font-weight:bold;""
                            >exciting</p>
                            <div style=""width:240px; margin: auto;"">
                                <img src=""images/gray_23.png"" style= ""width:200px""alt=""img"">
                            </div>
                        </div>","177","","0","images/gray_23.png","","","","exciting"
"","","","","","html-slider-response","149","1537078","0.0-145.0","91jn5sk0st","NaN","<div style=""width:500px;"">
                            <p style=""font-size:50px; font-weight:bold;""
                            >exciting</p>
                            <div style=""width:240px; margin: auto;"">
                                <img src=""images/gray_26.png"" style= ""width:200px""alt=""img"">
                            </div>
                        </div>","136","","0","images/gray_26.png","","","","exciting"
"","","","","","html-slider-response","150","1540119","0.0-146.0","91jn5sk0st","NaN","<div style=""width:500px;"">
                            <p style=""font-size:50px; font-weight:bold;""
                            >exciting</p>
                            <div style=""width:240px; margin: auto;"">
                                <img src=""images/gray_13.png"" style= ""width:200px""alt=""img"">
                            </div>
                        </div>","138","","0","images/gray_13.png","","","","exciting"
"","","","","","html-slider-response","151","1543215","0.0-147.0","91jn5sk0st","NaN","<div style=""width:500px;"">
                            <p style=""font-size:50px; font-weight:bold;""
                            >exciting</p>
                            <div style=""width:240px; margin: auto;"">
                                <img src=""images/gray_18.png"" style= ""width:200px""alt=""img"">
                            </div>
                        </div>","-144","","0","images/gray_18.png","","","","exciting"
"","","","","","html-slider-response","152","1547191","0.0-148.0","91jn5sk0st","NaN","<div style=""width:500px;"">
                            <p style=""font-size:50px; font-weight:bold;""
                            >exciting</p>
                            <div style=""width:240px; margin: auto;"">
                                <img src=""images/gray_07.png"" style= ""width:200px""alt=""img"">
                            </div>
                        </div>","29","","0","images/gray_07.png","","","","exciting"
"","","","","","html-slider-response","153","1551631","0.0-149.0","91jn5sk0st","NaN","<div style=""width:500px;"">
                            <p style=""font-size:50px; font-weight:bold;""
                            >exciting</p>
                            <div style=""width:240px; margin: auto;"">
                                <img src=""images/gray_34.png"" style= ""width:200px""alt=""img"">
                            </div>
                        </div>","-76","","0","images/gray_34.png","","","","exciting"
"","","","","","html-button-response","154","1640866","0.0-150.0","91jn5sk0st","88725","<p>Great Job! You've finished block 3.<br></br> You have 5 block(s) left to go.<br></br></p>","0","","","","","","",""
"","","","","","html-button-response","155","1641980","0.0-151.0","91jn5sk0st","1110","<p>In this block of trials, you will be asked to rate how much you associate each map with:</p > <p style = 'font-size:150%; font-weight: bold'>calm</p><br></br>","0","","","","","","",""
"","","","","","html-slider-response","156","1643910","0.0-152.0","91jn5sk0st","NaN","<div style=""width:500px;"">
                            <p style=""font-size:50px; font-weight:bold;""
                            >calm</p>
                            <div style=""width:240px; margin: auto;"">
                                <img src=""images/gray_32.png"" style= ""width:200px""alt=""img"">
                            </div>
                        </div>","-200","","0","images/gray_32.png","","","","calm"
"","","","","","html-slider-response","157","1646925","0.0-153.0","91jn5sk0st","NaN","<div style=""width:500px;"">
                            <p style=""font-size:50px; font-weight:bold;""
                            >calm</p>
                            <div style=""width:240px; margin: auto;"">
                                <img src=""images/gray_39.png"" style= ""width:200px""alt=""img"">
                            </div>
                        </div>","-82","","0","images/gray_39.png","","","","calm"
"","","","","","html-slider-response","158","1648854","0.0-154.0","91jn5sk0st","NaN","<div style=""width:500px;"">
                            <p style=""font-size:50px; font-weight:bold;""
                            >calm</p>
                            <div style=""width:240px; margin: auto;"">
                                <img src=""images/gray_11.png"" style= ""width:200px""alt=""img"">
                            </div>
                        </div>","-200","","0","images/gray_11.png","","","","calm"
"","","","","","html-slider-response","159","1650646","0.0-155.0","91jn5sk0st","NaN","<div style=""width:500px;"">
                            <p style=""font-size:50px; font-weight:bold;""
                            >calm</p>
                            <div style=""width:240px; margin: auto;"">
                                <img src=""images/gray_28.png"" style= ""width:200px""alt=""img"">
                            </div>
                        </div>","-200","","0","images/gray_28.png","","","","calm"
"","","","","","html-slider-response","160","1653139","0.0-156.0","91jn5sk0st","NaN","<div style=""width:500px;"">
                            <p style=""font-size:50px; font-weight:bold;""
                            >calm</p>
                            <div style=""width:240px; margin: auto;"">
                                <img src=""images/gray_24.png"" style= ""width:200px""alt=""img"">
                            </div>
                        </div>","-150","","0","images/gray_24.png","","","","calm"
"","","","","","html-slider-response","161","1655481","0.0-157.0","91jn5sk0st","NaN","<div style=""width:500px;"">
                            <p style=""font-size:50px; font-weight:bold;""
                            >calm</p>
                            <div style=""width:240px; margin: auto;"">
                                <img src=""images/gray_25.png"" style= ""width:200px""alt=""img"">
                            </div>
                        </div>","-177","","0","images/gray_25.png","","","","calm"
"","","","","","html-slider-response","162","1657383","0.0-158.0","91jn5sk0st","NaN","<div style=""width:500px;"">
                            <p style=""font-size:50px; font-weight:bold;""
                            >calm</p>
                            <div style=""width:240px; margin: auto;"">
                                <img src=""images/gray_15.png"" style= ""width:200px""alt=""img"">
                            </div>
                        </div>","-200","","0","images/gray_15.png","","","","calm"
"","","","","","html-slider-response","163","1660312","0.0-159.0","91jn5sk0st","NaN","<div style=""width:500px;"">
                            <p style=""font-size:50px; font-weight:bold;""
                            >calm</p>
                            <div style=""width:240px; margin: auto;"">
                                <img src=""images/gray_18.png"" style= ""width:200px""alt=""img"">
                            </div>
                        </div>","-109","","0","images/gray_18.png","","","","calm"
"","","","","","html-slider-response","164","1664737","0.0-160.0","91jn5sk0st","NaN","<div style=""width:500px;"">
                            <p style=""font-size:50px; font-weight:bold;""
                            >calm</p>
                            <div style=""width:240px; margin: auto;"">
                                <img src=""images/gray_34.png"" style= ""width:200px""alt=""img"">
                            </div>
                        </div>","-34","","0","images/gray_34.png","","","","calm"
"","","","","","html-slider-response","165","1667238","0.0-161.0","91jn5sk0st","NaN","<div style=""width:500px;"">
                            <p style=""font-size:50px; font-weight:bold;""
                            >calm</p>
                            <div style=""width:240px; margin: auto;"">
                                <img src=""images/gray_02.png"" style= ""width:200px""alt=""img"">
                            </div>
                        </div>","-127","","0","images/gray_02.png","","","","calm"
"","","","","","html-slider-response","166","1669433","0.0-162.0","91jn5sk0st","NaN","<div style=""width:500px;"">
                            <p style=""font-size:50px; font-weight:bold;""
                            >calm</p>
                            <div style=""width:240px; margin: auto;"">
                                <img src=""images/gray_13.png"" style= ""width:200px""alt=""img"">
                            </div>
                        </div>","-200","","0","images/gray_13.png","","","","calm"
"","","","","","html-slider-response","167","1671647","0.0-163.0","91jn5sk0st","NaN","<div style=""width:500px;"">
                            <p style=""font-size:50px; font-weight:bold;""
                            >calm</p>
                            <div style=""width:240px; margin: auto;"">
                                <img src=""images/gray_14.png"" style= ""width:200px""alt=""img"">
                            </div>
                        </div>","-200","","0","images/gray_14.png","","","","calm"
"","","","","","html-slider-response","168","1674663","0.0-164.0","91jn5sk0st","NaN","<div style=""width:500px;"">
                            <p style=""font-size:50px; font-weight:bold;""
                            >calm</p>
                            <div style=""width:240px; margin: auto;"">
                                <img src=""images/gray_08.png"" style= ""width:200px""alt=""img"">
                            </div>
                        </div>","-162","","0","images/gray_08.png","","","","calm"
"","","","","","html-slider-response","169","1677127","0.0-165.0","91jn5sk0st","NaN","<div style=""width:500px;"">
                            <p style=""font-size:50px; font-weight:bold;""
                            >calm</p>
                            <div style=""width:240px; margin: auto;"">
                                <img src=""images/gray_41.png"" style= ""width:200px""alt=""img"">
                            </div>
                        </div>","-165","","0","images/gray_41.png","","","","calm"
"","","","","","html-slider-response","170","1681567","0.0-166.0","91jn5sk0st","NaN","<div style=""width:500px;"">
                            <p style=""font-size:50px; font-weight:bold;""
                            >calm</p>
                            <div style=""width:240px; margin: auto;"">
                                <img src=""images/gray_03.png"" style= ""width:200px""alt=""img"">
                            </div>
                        </div>","-200","","0","images/gray_03.png","","","","calm"
"","","","","","html-slider-response","171","1683676","0.0-167.0","91jn5sk0st","NaN","<div style=""width:500px;"">
                            <p style=""font-size:50px; font-weight:bold;""
                            >calm</p>
                            <div style=""width:240px; margin: auto;"">
                                <img src=""images/gray_12.png"" style= ""width:200px""alt=""img"">
                            </div>
                        </div>","-200","","0","images/gray_12.png","","","","calm"
"","","","","","html-slider-response","172","1687102","0.0-168.0","91jn5sk0st","NaN","<div style=""width:500px;"">
                            <p style=""font-size:50px; font-weight:bold;""
                            >calm</p>
                            <div style=""width:240px; margin: auto;"">
                                <img src=""images/gray_36.png"" style= ""width:200px""alt=""img"">
                            </div>
                        </div>","-106","","0","images/gray_36.png","","","","calm"
"","","","","","html-slider-response","173","1740959","0.0-169.0","91jn5sk0st","NaN","<div style=""width:500px;"">
                            <p style=""font-size:50px; font-weight:bold;""
                            >calm</p>
                            <div style=""width:240px; margin: auto;"">
                                <img src=""images/gray_40.png"" style= ""width:200px""alt=""img"">
                            </div>
                        </div>","-157","","0","images/gray_40.png","","","","calm"
"","","","","","html-slider-response","174","1743015","0.0-170.0","91jn5sk0st","NaN","<div style=""width:500px;"">
                            <p style=""font-size:50px; font-weight:bold;""
                            >calm</p>
                            <div style=""width:240px; margin: auto;"">
                                <img src=""images/gray_27.png"" style= ""width:200px""alt=""img"">
                            </div>
                        </div>","-200","","0","images/gray_27.png","","","","calm"
"","","","","","html-slider-response","175","1746370","0.0-171.0","91jn5sk0st","NaN","<div style=""width:500px;"">
                            <p style=""font-size:50px; font-weight:bold;""
                            >calm</p>
                            <div style=""width:240px; margin: auto;"">
                                <img src=""images/gray_10.png"" style= ""width:200px""alt=""img"">
                            </div>
                        </div>","-103","","0","images/gray_10.png","","","","calm"
"","","","","","html-slider-response","176","1749041","0.0-172.0","91jn5sk0st","NaN","<div style=""width:500px;"">
                            <p style=""font-size:50px; font-weight:bold;""
                            >calm</p>
                            <div style=""width:240px; margin: auto;"">
                                <img src=""images/gray_38.png"" style= ""width:200px""alt=""img"">
                            </div>
                        </div>","-61","","0","images/gray_38.png","","","","calm"
"","","","","","html-slider-response","177","1752029","0.0-173.0","91jn5sk0st","NaN","<div style=""width:500px;"">
                            <p style=""font-size:50px; font-weight:bold;""
                            >calm</p>
                            <div style=""width:240px; margin: auto;"">
                                <img src=""images/gray_19.png"" style= ""width:200px""alt=""img"">
                            </div>
                        </div>","-141","","0","images/gray_19.png","","","","calm"
"","","","","","html-slider-response","178","1754829","0.0-174.0","91jn5sk0st","NaN","<div style=""width:500px;"">
                            <p style=""font-size:50px; font-weight:bold;""
                            >calm</p>
                            <div style=""width:240px; margin: auto;"">
                                <img src=""images/gray_44.png"" style= ""width:200px""alt=""img"">
                            </div>
                        </div>","-200","","0","images/gray_44.png","","","","calm"
"","","","","","html-slider-response","179","1757407","0.0-175.0","91jn5sk0st","NaN","<div style=""width:500px;"">
                            <p style=""font-size:50px; font-weight:bold;""
                            >calm</p>
                            <div style=""width:240px; margin: auto;"">
                                <img src=""images/gray_22.png"" style= ""width:200px""alt=""img"">
                            </div>
                        </div>","-142","","0","images/gray_22.png","","","","calm"
"","","","","","html-slider-response","180","1760506","0.0-176.0","91jn5sk0st","NaN","<div style=""width:500px;"">
                            <p style=""font-size:50px; font-weight:bold;""
                            >calm</p>
                            <div style=""width:240px; margin: auto;"">
                                <img src=""images/gray_16.png"" style= ""width:200px""alt=""img"">
                            </div>
                        </div>","-142","","0","images/gray_16.png","","","","calm"
"","","","","","html-slider-response","181","1794679","0.0-177.0","91jn5sk0st","NaN","<div style=""width:500px;"">
                            <p style=""font-size:50px; font-weight:bold;""
                            >calm</p>
                            <div style=""width:240px; margin: auto;"">
                                <img src=""images/gray_17.png"" style= ""width:200px""alt=""img"">
                            </div>
                        </div>","-142","","0","images/gray_17.png","","","","calm"
"","","","","","html-slider-response","182","1801782","0.0-178.0","91jn5sk0st","NaN","<div style=""width:500px;"">
                            <p style=""font-size:50px; font-weight:bold;""
                            >calm</p>
                            <div style=""width:240px; margin: auto;"">
                                <img src=""images/gray_01.png"" style= ""width:200px""alt=""img"">
                            </div>
                        </div>","-76","","0","images/gray_01.png","","","","calm"
"","","","","","html-slider-response","183","1804385","0.0-179.0","91jn5sk0st","NaN","<div style=""width:500px;"">
                            <p style=""font-size:50px; font-weight:bold;""
                            >calm</p>
                            <div style=""width:240px; margin: auto;"">
                                <img src=""images/gray_30.png"" style= ""width:200px""alt=""img"">
                            </div>
                        </div>","-200","","0","images/gray_30.png","","","","calm"
"","","","","","html-slider-response","184","1808516","0.0-180.0","91jn5sk0st","NaN","<div style=""width:500px;"">
                            <p style=""font-size:50px; font-weight:bold;""
                            >calm</p>
                            <div style=""width:240px; margin: auto;"">
                                <img src=""images/gray_37.png"" style= ""width:200px""alt=""img"">
                            </div>
                        </div>","-114","","0","images/gray_37.png","","","","calm"
"","","","","","html-slider-response","185","1851926","0.0-181.0","91jn5sk0st","NaN","<div style=""width:500px;"">
                            <p style=""font-size:50px; font-weight:bold;""
                            >calm</p>
                            <div style=""width:240px; margin: auto;"">
                                <img src=""images/gray_26.png"" style= ""width:200px""alt=""img"">
                            </div>
                        </div>","-89","","0","images/gray_26.png","","","","calm"
"","","","","","html-slider-response","186","1855479","0.0-182.0","91jn5sk0st","NaN","<div style=""width:500px;"">
                            <p style=""font-size:50px; font-weight:bold;""
                            >calm</p>
                            <div style=""width:240px; margin: auto;"">
                                <img src=""images/gray_42.png"" style= ""width:200px""alt=""img"">
                            </div>
                        </div>","-54","","0","images/gray_42.png","","","","calm"
"","","","","","html-slider-response","187","1858671","0.0-183.0","91jn5sk0st","NaN","<div style=""width:500px;"">
                            <p style=""font-size:50px; font-weight:bold;""
                            >calm</p>
                            <div style=""width:240px; margin: auto;"">
                                <img src=""images/gray_29.png"" style= ""width:200px""alt=""img"">
                            </div>
                        </div>","-14","","0","images/gray_29.png","","","","calm"
"","","","","","html-slider-response","188","1861587","0.0-184.0","91jn5sk0st","NaN","<div style=""width:500px;"">
                            <p style=""font-size:50px; font-weight:bold;""
                            >calm</p>
                            <div style=""width:240px; margin: auto;"">
                                <img src=""images/gray_05.png"" style= ""width:200px""alt=""img"">
                            </div>
                        </div>","-141","","0","images/gray_05.png","","","","calm"
"","","","","","html-slider-response","189","1864118","0.0-185.0","91jn5sk0st","NaN","<div style=""width:500px;"">
                            <p style=""font-size:50px; font-weight:bold;""
                            >calm</p>
                            <div style=""width:240px; margin: auto;"">
                                <img src=""images/gray_23.png"" style= ""width:200px""alt=""img"">
                            </div>
                        </div>","-167","","0","images/gray_23.png","","","","calm"
"","","","","","html-slider-response","190","1867805","0.0-186.0","91jn5sk0st","NaN","<div style=""width:500px;"">
                            <p style=""font-size:50px; font-weight:bold;""
                            >calm</p>
                            <div style=""width:240px; margin: auto;"">
                                <img src=""images/gray_06.png"" style= ""width:200px""alt=""img"">
                            </div>
                        </div>","-49","","0","images/gray_06.png","","","","calm"
"","","","","","html-slider-response","191","1871278","0.0-187.0","91jn5sk0st","NaN","<div style=""width:500px;"">
                            <p style=""font-size:50px; font-weight:bold;""
                            >calm</p>
                            <div style=""width:240px; margin: auto;"">
                                <img src=""images/gray_04.png"" style= ""width:200px""alt=""img"">
                            </div>
                        </div>","-83","","0","images/gray_04.png","","","","calm"
"","","","","","html-slider-response","192","1873578","0.0-188.0","91jn5sk0st","NaN","<div style=""width:500px;"">
                            <p style=""font-size:50px; font-weight:bold;""
                            >calm</p>
                            <div style=""width:240px; margin: auto;"">
                                <img src=""images/gray_43.png"" style= ""width:200px""alt=""img"">
                            </div>
                        </div>","-92","","0","images/gray_43.png","","","","calm"
"","","","","","html-slider-response","193","1876674","0.0-189.0","91jn5sk0st","NaN","<div style=""width:500px;"">
                            <p style=""font-size:50px; font-weight:bold;""
                            >calm</p>
                            <div style=""width:240px; margin: auto;"">
                                <img src=""images/gray_33.png"" style= ""width:200px""alt=""img"">
                            </div>
                        </div>","-150","","0","images/gray_33.png","","","","calm"
"","","","","","html-slider-response","194","2023886","0.0-190.0","91jn5sk0st","NaN","<div style=""width:500px;"">
                            <p style=""font-size:50px; font-weight:bold;""
                            >calm</p>
                            <div style=""width:240px; margin: auto;"">
                                <img src=""images/gray_21.png"" style= ""width:200px""alt=""img"">
                            </div>
                        </div>","24","","0","images/gray_21.png","","","","calm"
"","","","","","html-slider-response","195","2026152","0.0-191.0","91jn5sk0st","NaN","<div style=""width:500px;"">
                            <p style=""font-size:50px; font-weight:bold;""
                            >calm</p>
                            <div style=""width:240px; margin: auto;"">
                                <img src=""images/gray_07.png"" style= ""width:200px""alt=""img"">
                            </div>
                        </div>","-200","","0","images/gray_07.png","","","","calm"
"","","","","","html-slider-response","196","2029053","0.0-192.0","91jn5sk0st","NaN","<div style=""width:500px;"">
                            <p style=""font-size:50px; font-weight:bold;""
                            >calm</p>
                            <div style=""width:240px; margin: auto;"">
                                <img src=""images/gray_09.png"" style= ""width:200px""alt=""img"">
                            </div>
                        </div>","-151","","0","images/gray_09.png","","","","calm"
"","","","","","html-slider-response","197","2032384","0.0-193.0","91jn5sk0st","NaN","<div style=""width:500px;"">
                            <p style=""font-size:50px; font-weight:bold;""
                            >calm</p>
                            <div style=""width:240px; margin: auto;"">
                                <img src=""images/gray_31.png"" style= ""width:200px""alt=""img"">
                            </div>
                        </div>","-33","","0","images/gray_31.png","","","","calm"
"","","","","","html-slider-response","198","2034735","0.0-194.0","91jn5sk0st","NaN","<div style=""width:500px;"">
                            <p style=""font-size:50px; font-weight:bold;""
                            >calm</p>
                            <div style=""width:240px; margin: auto;"">
                                <img src=""images/gray_20.png"" style= ""width:200px""alt=""img"">
