"success","timeout","failed_images","failed_audio","failed_video","trial_type","trial_index","time_elapsed","internal_node_id","subject_id","rt","stimulus","response","question_order","slider_start","image_path","practiceTrial","practiceTrialNum","correct","concept"
"true","false","[]","[]","[]","preload","0","401","0.0-0.0","9uuq3752h7","","","","","","","","","",""
"","","","","","html-button-response","1","14885","0.0-1.0","9uuq3752h7","14482","Welcome to our experiment!<p>At the bottom of this screen, you will see a button that says ""Begin Experiment"".<br>Please only click that button when you are ready to complete the 25 minute experiment in one sitting.</p><p> Once you click that button, it will not be possible to restart the experiment.","0","","","","","","",""
"true","","","","","fullscreen","2","17496","0.0-2.0","9uuq3752h7","1608","","","","","","","","",""
"","","","","","survey-multi-select","3","34042","0.0-3.0","9uuq3752h7","16542","","{""Consent"":[""<strong>I consent</strong>""]}","[0]","","","","","",""
"","","","","","html-button-response","4","35606","0.0-4.0","9uuq3752h7","1561","Welcome! <p> This experiment involves two parts: demographic information, followed by the experimental task.<p> It will take about 25 minutes to complete both parts.","0","","","","","","",""
"","","","","","survey-text","5","47711","0.0-5.0","9uuq3752h7","12095","","{""Age"":""19"",""Gender"":""Female"",""Race/ethnicity"":""Mixed"",""Languages"":""English""}","","","","","","",""
"","","","","","html-slider-response","6","81570","0.0-6.0","9uuq3752h7","33856","
            <div style='text-align:left; font-size:20px; line-height:25px; width: 1200px;'>
                During this experiment you will be asked to rate how much you associate maps with    different concepts.<br> Below, you can see some examples of the maps you will be asked to rate. Next to the maps
    is the list of concepts.<br>You will be asked    to rate how much you associate each map with each concept on a scale from 'not at all' to 'very much' like the
    one below. <br><br>
    Now, please look at the list of concepts and maps. For each concept, think about the map you associate 'very
    much' with the concept.<br>     When you see that map during the experiment, please rate it near the 'very much' endpoint of the
    scale.<br>Now, please think about which map you associate 'not at all'     with each concept. When you see that map during the experiment, please rate it near the 'not at all' endpoint
    of the scale.<br>
    Please use the full range of the scale. That is, if a map is somewhat associated with the concept, you would
    click partway between the middle point and right side of the scale.    You will be asked to rate each map for a given concept before moving on to the next concept.<br><br>Press the
    'Continue' button for instructions on how to use the slider.    <br><br>
</div>

<div style=""width: 500px; margin: 0 auto;"">
    <div style=""text-align: left; width: 200px; float: left;"">
        <p style=""font-size:25px; line-height:18px;"">calm</p>
        <p style=""font-size:25px; line-height:18px;"">exciting</p>
        <p style=""font-size:25px;line-height:18px;"">positive</p>
        <p style=""font-size:25px;line-height:18px;"">negative</p>
        <p style=""font-size:25px;line-height:18px;"">serious</p>
        <p style=""font-size:25px;line-height:18px;"">playful</p>
        <p style=""font-size:25px;line-height:18px;"">trustworthy</p>
        <p style=""font-size:25px;line-height:18px;"">disturbing</p>
    </div>
    <div style=""width: 200px; float: right; padding-top:15px; padding-right:40px"">
        <br>
        <br>
        <img src=""maps_anchoring.png"" alt=""img"" style=""max-width:500px"">
    </div>
    <div style=""clear: both;""></div>
</div>
            ","null","","0","maps_anchoring.png","true","","",""
"","","","","","html-button-response","7","94092","0.0-7.0","9uuq3752h7","12521","<div style=""width:800px;""><p style=""text-align:left"">To move the slider, click and drag your cursor to the location of the scale where you would like to make your rating and then let go. When you let go of the slider, your response will be recorded and the next trial will begin. <br>
            We are interested in your initial impressions of each map for the given concept, so please go with your first intuition. <br>
            Before you begin the experiment, there will be four training trials for you to practice using the scale. <br>
             When you are ready to start the training trials, please click ""Continue"".</p><br></div>","0","","","","","","",""
"","","","","","html-slider-response","8","98525","0.0-8.0-0.0","9uuq3752h7","NaN","<div style=""width:500px;"">
                            <p style=""font-size:25px;"">Please move the slider all the way to the <br> right endpoint of the scale</p>

                            </div>
                        </div>","200","","0","","true","0","true",""
"","","","","","html-button-response","9","100179","0.0-8.0-1.0","9uuq3752h7","1151","<p align='center'><b>Good job!</b> Click on 'Continue' to proceed.</p>","0","","","","","","",""
"","","","","","html-slider-response","10","101946","0.0-9.0-0.0","9uuq3752h7","NaN","<div style=""width:500px;"">
                            <p style=""font-size:25px;"">Please move the slider all the way to the <br> left endpoint of the scale</p>

                            </div>
                        </div>","-200","","0","","true","1","true",""
"","","","","","html-button-response","11","103087","0.0-9.0-1.0","9uuq3752h7","640","<p align='center'><b>Good job!</b> Click on 'Continue' to proceed.</p>","0","","","","","","",""
"","","","","","html-slider-response","12","108484","0.0-10.0-0.0","9uuq3752h7","NaN","<div style=""width:500px;"">
                            <p style=""font-size:25px;"">Please move the slider halfway between the center and right endpoint of the scale</p>

                            </div>
                        </div>","102","","0","","true","2","true",""
"","","","","","html-button-response","13","109729","0.0-10.0-1.0","9uuq3752h7","741","<p align='center'><b>Good job!</b> Click on 'Continue' to proceed.</p>","0","","","","","","",""
"","","","","","html-slider-response","14","114083","0.0-11.0-0.0","9uuq3752h7","NaN","<div style=""width:500px;"">
                            <p style=""font-size:25px;"">Please move the slider halfway between the center and left endpoint of the scale</p>

                            </div>
                        </div>","-105","","0","","true","3","true",""
"","","","","","html-button-response","15","115311","0.0-11.0-1.0","9uuq3752h7","725","<p align='center'><b>Good job!</b> Click on 'Continue' to proceed.</p>","0","","","","","","",""
"","","","","","html-button-response","16","116315","0.0-12.0","9uuq3752h7","1004","<p>Great job! You've completed the practice trials. Now you will begin the main task.</p>","0","","","","","","",""
"","","","","","html-button-response","17","120785","0.0-13.0","9uuq3752h7","4470","<p>In this block of trials, you will be asked to rate how much you associate each map with:</p > <p style = 'font-size:150%; font-weight: bold'>serious</p><br></br>","0","","","","","","",""
"","","","","","html-slider-response","18","124973","0.0-14.0","9uuq3752h7","NaN","<div style=""width:500px;"">
                            <p style=""font-size:50px; font-weight:bold;""
                            >serious</p>
                            <div style=""width:240px; margin: auto;"">
                                <img src=""images/gray_08.png"" style= ""width:200px""alt=""img"">
                            </div>
                        </div>","42","","0","images/gray_08.png","","","","serious"
"","","","","","html-slider-response","19","128884","0.0-15.0","9uuq3752h7","NaN","<div style=""width:500px;"">
                            <p style=""font-size:50px; font-weight:bold;""
                            >serious</p>
                            <div style=""width:240px; margin: auto;"">
                                <img src=""images/gray_41.png"" style= ""width:200px""alt=""img"">
                            </div>
                        </div>","-22","","0","images/gray_41.png","","","","serious"
"","","","","","html-slider-response","20","131470","0.0-16.0","9uuq3752h7","NaN","<div style=""width:500px;"">
                            <p style=""font-size:50px; font-weight:bold;""
                            >serious</p>
                            <div style=""width:240px; margin: auto;"">
                                <img src=""images/gray_31.png"" style= ""width:200px""alt=""img"">
                            </div>
                        </div>","115","","0","images/gray_31.png","","","","serious"
"","","","","","html-slider-response","21","134129","0.0-17.0","9uuq3752h7","NaN","<div style=""width:500px;"">
                            <p style=""font-size:50px; font-weight:bold;""
                            >serious</p>
                            <div style=""width:240px; margin: auto;"">
                                <img src=""images/gray_14.png"" style= ""width:200px""alt=""img"">
                            </div>
                        </div>","174","","0","images/gray_14.png","","","","serious"
"","","","","","html-slider-response","22","136831","0.0-18.0","9uuq3752h7","NaN","<div style=""width:500px;"">
                            <p style=""font-size:50px; font-weight:bold;""
                            >serious</p>
                            <div style=""width:240px; margin: auto;"">
                                <img src=""images/gray_21.png"" style= ""width:200px""alt=""img"">
                            </div>
                        </div>","189","","0","images/gray_21.png","","","","serious"
"","","","","","html-slider-response","23","139655","0.0-19.0","9uuq3752h7","NaN","<div style=""width:500px;"">
                            <p style=""font-size:50px; font-weight:bold;""
                            >serious</p>
                            <div style=""width:240px; margin: auto;"">
                                <img src=""images/gray_22.png"" style= ""width:200px""alt=""img"">
                            </div>
                        </div>","-84","","0","images/gray_22.png","","","","serious"
"","","","","","html-slider-response","24","141421","0.0-20.0","9uuq3752h7","NaN","<div style=""width:500px;"">
                            <p style=""font-size:50px; font-weight:bold;""
                            >serious</p>
                            <div style=""width:240px; margin: auto;"">
                                <img src=""images/gray_25.png"" style= ""width:200px""alt=""img"">
                            </div>
                        </div>","-35","","0","images/gray_25.png","","","","serious"
"","","","","","html-slider-response","25","143646","0.0-21.0","9uuq3752h7","NaN","<div style=""width:500px;"">
                            <p style=""font-size:50px; font-weight:bold;""
                            >serious</p>
                            <div style=""width:240px; margin: auto;"">
                                <img src=""images/gray_28.png"" style= ""width:200px""alt=""img"">
                            </div>
                        </div>","-17","","0","images/gray_28.png","","","","serious"
"","","","","","html-slider-response","26","146970","0.0-22.0","9uuq3752h7","NaN","<div style=""width:500px;"">
                            <p style=""font-size:50px; font-weight:bold;""
                            >serious</p>
                            <div style=""width:240px; margin: auto;"">
                                <img src=""images/gray_13.png"" style= ""width:200px""alt=""img"">
                            </div>
                        </div>","20","","0","images/gray_13.png","","","","serious"
"","","","","","html-slider-response","27","150137","0.0-23.0","9uuq3752h7","NaN","<div style=""width:500px;"">
                            <p style=""font-size:50px; font-weight:bold;""
                            >serious</p>
                            <div style=""width:240px; margin: auto;"">
                                <img src=""images/gray_04.png"" style= ""width:200px""alt=""img"">
                            </div>
                        </div>","-80","","0","images/gray_04.png","","","","serious"
"","","","","","html-slider-response","28","151961","0.0-24.0","9uuq3752h7","NaN","<div style=""width:500px;"">
                            <p style=""font-size:50px; font-weight:bold;""
                            >serious</p>
                            <div style=""width:240px; margin: auto;"">
                                <img src=""images/gray_16.png"" style= ""width:200px""alt=""img"">
                            </div>
                        </div>","98","","0","images/gray_16.png","","","","serious"
"","","","","","html-slider-response","29","154010","0.0-25.0","9uuq3752h7","NaN","<div style=""width:500px;"">
                            <p style=""font-size:50px; font-weight:bold;""
                            >serious</p>
                            <div style=""width:240px; margin: auto;"">
                                <img src=""images/gray_44.png"" style= ""width:200px""alt=""img"">
                            </div>
                        </div>","162","","0","images/gray_44.png","","","","serious"
"","","","","","html-slider-response","30","156371","0.0-26.0","9uuq3752h7","NaN","<div style=""width:500px;"">
                            <p style=""font-size:50px; font-weight:bold;""
                            >serious</p>
                            <div style=""width:240px; margin: auto;"">
                                <img src=""images/gray_40.png"" style= ""width:200px""alt=""img"">
                            </div>
                        </div>","57","","0","images/gray_40.png","","","","serious"
"","","","","","html-slider-response","31","158874","0.0-27.0","9uuq3752h7","NaN","<div style=""width:500px;"">
                            <p style=""font-size:50px; font-weight:bold;""
                            >serious</p>
                            <div style=""width:240px; margin: auto;"">
                                <img src=""images/gray_43.png"" style= ""width:200px""alt=""img"">
                            </div>
                        </div>","-26","","0","images/gray_43.png","","","","serious"
"","","","","","html-slider-response","32","164479","0.0-28.0","9uuq3752h7","NaN","<div style=""width:500px;"">
                            <p style=""font-size:50px; font-weight:bold;""
                            >serious</p>
                            <div style=""width:240px; margin: auto;"">
                                <img src=""images/gray_39.png"" style= ""width:200px""alt=""img"">
                            </div>
                        </div>","10","","0","images/gray_39.png","","","","serious"
"","","","","","html-slider-response","33","168749","0.0-29.0","9uuq3752h7","NaN","<div style=""width:500px;"">
                            <p style=""font-size:50px; font-weight:bold;""
                            >serious</p>
                            <div style=""width:240px; margin: auto;"">
                                <img src=""images/gray_34.png"" style= ""width:200px""alt=""img"">
                            </div>
                        </div>","-126","","0","images/gray_34.png","","","","serious"
"","","","","","html-slider-response","34","170789","0.0-30.0","9uuq3752h7","NaN","<div style=""width:500px;"">
                            <p style=""font-size:50px; font-weight:bold;""
                            >serious</p>
                            <div style=""width:240px; margin: auto;"">
                                <img src=""images/gray_06.png"" style= ""width:200px""alt=""img"">
                            </div>
                        </div>","24","","0","images/gray_06.png","","","","serious"
"","","","","","html-slider-response","35","173097","0.0-31.0","9uuq3752h7","NaN","<div style=""width:500px;"">
                            <p style=""font-size:50px; font-weight:bold;""
                            >serious</p>
                            <div style=""width:240px; margin: auto;"">
                                <img src=""images/gray_26.png"" style= ""width:200px""alt=""img"">
                            </div>
                        </div>","106","","0","images/gray_26.png","","","","serious"
"","","","","","html-slider-response","36","175929","0.0-32.0","9uuq3752h7","NaN","<div style=""width:500px;"">
                            <p style=""font-size:50px; font-weight:bold;""
                            >serious</p>
                            <div style=""width:240px; margin: auto;"">
                                <img src=""images/gray_11.png"" style= ""width:200px""alt=""img"">
                            </div>
                        </div>","23","","0","images/gray_11.png","","","","serious"
"","","","","","html-slider-response","37","179964","0.0-33.0","9uuq3752h7","NaN","<div style=""width:500px;"">
                            <p style=""font-size:50px; font-weight:bold;""
                            >serious</p>
                            <div style=""width:240px; margin: auto;"">
                                <img src=""images/gray_20.png"" style= ""width:200px""alt=""img"">
                            </div>
                        </div>","-13","","0","images/gray_20.png","","","","serious"
"","","","","","html-slider-response","38","183570","0.0-34.0","9uuq3752h7","NaN","<div style=""width:500px;"">
                            <p style=""font-size:50px; font-weight:bold;""
                            >serious</p>
                            <div style=""width:240px; margin: auto;"">
                                <img src=""images/gray_23.png"" style= ""width:200px""alt=""img"">
                            </div>
                        </div>","18","","0","images/gray_23.png","","","","serious"
"","","","","","html-slider-response","39","185756","0.0-35.0","9uuq3752h7","NaN","<div style=""width:500px;"">
                            <p style=""font-size:50px; font-weight:bold;""
                            >serious</p>
                            <div style=""width:240px; margin: auto;"">
                                <img src=""images/gray_12.png"" style= ""width:200px""alt=""img"">
                            </div>
                        </div>","27","","0","images/gray_12.png","","","","serious"
"","","","","","html-slider-response","40","188073","0.0-36.0","9uuq3752h7","NaN","<div style=""width:500px;"">
                            <p style=""font-size:50px; font-weight:bold;""
                            >serious</p>
                            <div style=""width:240px; margin: auto;"">
                                <img src=""images/gray_10.png"" style= ""width:200px""alt=""img"">
                            </div>
                        </div>","131","","0","images/gray_10.png","","","","serious"
"","","","","","html-slider-response","41","190391","0.0-37.0","9uuq3752h7","NaN","<div style=""width:500px;"">
                            <p style=""font-size:50px; font-weight:bold;""
                            >serious</p>
                            <div style=""width:240px; margin: auto;"">
                                <img src=""images/gray_18.png"" style= ""width:200px""alt=""img"">
                            </div>
                        </div>","40","","0","images/gray_18.png","","","","serious"
"","","","","","html-slider-response","42","192472","0.0-38.0","9uuq3752h7","NaN","<div style=""width:500px;"">
                            <p style=""font-size:50px; font-weight:bold;""
                            >serious</p>
                            <div style=""width:240px; margin: auto;"">
                                <img src=""images/gray_01.png"" style= ""width:200px""alt=""img"">
                            </div>
                        </div>","137","","0","images/gray_01.png","","","","serious"
"","","","","","html-slider-response","43","194275","0.0-39.0","9uuq3752h7","NaN","<div style=""width:500px;"">
                            <p style=""font-size:50px; font-weight:bold;""
                            >serious</p>
                            <div style=""width:240px; margin: auto;"">
                                <img src=""images/gray_42.png"" style= ""width:200px""alt=""img"">
                            </div>
                        </div>","28","","0","images/gray_42.png","","","","serious"
"","","","","","html-slider-response","44","196495","0.0-40.0","9uuq3752h7","NaN","<div style=""width:500px;"">
                            <p style=""font-size:50px; font-weight:bold;""
                            >serious</p>
                            <div style=""width:240px; margin: auto;"">
                                <img src=""images/gray_09.png"" style= ""width:200px""alt=""img"">
                            </div>
                        </div>","-10","","0","images/gray_09.png","","","","serious"
"","","","","","html-slider-response","45","199058","0.0-41.0","9uuq3752h7","NaN","<div style=""width:500px;"">
                            <p style=""font-size:50px; font-weight:bold;""
                            >serious</p>
                            <div style=""width:240px; margin: auto;"">
                                <img src=""images/gray_36.png"" style= ""width:200px""alt=""img"">
                            </div>
                        </div>","182","","0","images/gray_36.png","","","","serious"
"","","","","","html-slider-response","46","203734","0.0-42.0","9uuq3752h7","NaN","<div style=""width:500px;"">
                            <p style=""font-size:50px; font-weight:bold;""
                            >serious</p>
                            <div style=""width:240px; margin: auto;"">
                                <img src=""images/gray_35.png"" style= ""width:200px""alt=""img"">
                            </div>
                        </div>","53","","0","images/gray_35.png","","","","serious"
"","","","","","html-slider-response","47","205611","0.0-43.0","9uuq3752h7","NaN","<div style=""width:500px;"">
                            <p style=""font-size:50px; font-weight:bold;""
                            >serious</p>
                            <div style=""width:240px; margin: auto;"">
                                <img src=""images/gray_33.png"" style= ""width:200px""alt=""img"">
                            </div>
                        </div>","15","","0","images/gray_33.png","","","","serious"
"","","","","","html-slider-response","48","207643","0.0-44.0","9uuq3752h7","NaN","<div style=""width:500px;"">
                            <p style=""font-size:50px; font-weight:bold;""
                            >serious</p>
                            <div style=""width:240px; margin: auto;"">
                                <img src=""images/gray_15.png"" style= ""width:200px""alt=""img"">
                            </div>
                        </div>","14","","0","images/gray_15.png","","","","serious"
"","","","","","html-slider-response","49","209741","0.0-45.0","9uuq3752h7","NaN","<div style=""width:500px;"">
                            <p style=""font-size:50px; font-weight:bold;""
                            >serious</p>
                            <div style=""width:240px; margin: auto;"">
                                <img src=""images/gray_17.png"" style= ""width:200px""alt=""img"">
                            </div>
                        </div>","-45","","0","images/gray_17.png","","","","serious"
"","","","","","html-slider-response","50","212941","0.0-46.0","9uuq3752h7","NaN","<div style=""width:500px;"">
                            <p style=""font-size:50px; font-weight:bold;""
                            >serious</p>
                            <div style=""width:240px; margin: auto;"">
                                <img src=""images/gray_05.png"" style= ""width:200px""alt=""img"">
                            </div>
                        </div>","93","","0","images/gray_05.png","","","","serious"
"","","","","","html-slider-response","51","214858","0.0-47.0","9uuq3752h7","NaN","<div style=""width:500px;"">
                            <p style=""font-size:50px; font-weight:bold;""
                            >serious</p>
                            <div style=""width:240px; margin: auto;"">
                                <img src=""images/gray_27.png"" style= ""width:200px""alt=""img"">
                            </div>
                        </div>","103","","0","images/gray_27.png","","","","serious"
"","","","","","html-slider-response","52","217193","0.0-48.0","9uuq3752h7","NaN","<div style=""width:500px;"">
                            <p style=""font-size:50px; font-weight:bold;""
                            >serious</p>
                            <div style=""width:240px; margin: auto;"">
                                <img src=""images/gray_29.png"" style= ""width:200px""alt=""img"">
                            </div>
                        </div>","186","","0","images/gray_29.png","","","","serious"
"","","","","","html-slider-response","53","219518","0.0-49.0","9uuq3752h7","NaN","<div style=""width:500px;"">
                            <p style=""font-size:50px; font-weight:bold;""
                            >serious</p>
                            <div style=""width:240px; margin: auto;"">
                                <img src=""images/gray_32.png"" style= ""width:200px""alt=""img"">
                            </div>
                        </div>","16","","0","images/gray_32.png","","","","serious"
"","","","","","html-slider-response","54","221536","0.0-50.0","9uuq3752h7","NaN","<div style=""width:500px;"">
                            <p style=""font-size:50px; font-weight:bold;""
                            >serious</p>
                            <div style=""width:240px; margin: auto;"">
                                <img src=""images/gray_30.png"" style= ""width:200px""alt=""img"">
                            </div>
                        </div>","88","","0","images/gray_30.png","","","","serious"
"","","","","","html-slider-response","55","224112","0.0-51.0","9uuq3752h7","NaN","<div style=""width:500px;"">
                            <p style=""font-size:50px; font-weight:bold;""
                            >serious</p>
                            <div style=""width:240px; margin: auto;"">
                                <img src=""images/gray_37.png"" style= ""width:200px""alt=""img"">
                            </div>
                        </div>","83","","0","images/gray_37.png","","","","serious"
"","","","","","html-slider-response","56","227011","0.0-52.0","9uuq3752h7","NaN","<div style=""width:500px;"">
                            <p style=""font-size:50px; font-weight:bold;""
                            >serious</p>
                            <div style=""width:240px; margin: auto;"">
                                <img src=""images/gray_38.png"" style= ""width:200px""alt=""img"">
                            </div>
                        </div>","9","","0","images/gray_38.png","","","","serious"
"","","","","","html-slider-response","57","229197","0.0-53.0","9uuq3752h7","NaN","<div style=""width:500px;"">
                            <p style=""font-size:50px; font-weight:bold;""
                            >serious</p>
                            <div style=""width:240px; margin: auto;"">
                                <img src=""images/gray_19.png"" style= ""width:200px""alt=""img"">
                            </div>
                        </div>","177","","0","images/gray_19.png","","","","serious"
"","","","","","html-slider-response","58","231491","0.0-54.0","9uuq3752h7","NaN","<div style=""width:500px;"">
                            <p style=""font-size:50px; font-weight:bold;""
                            >serious</p>
                            <div style=""width:240px; margin: auto;"">
                                <img src=""images/gray_24.png"" style= ""width:200px""alt=""img"">
                            </div>
                        </div>","96","","0","images/gray_24.png","","","","serious"
"","","","","","html-slider-response","59","234355","0.0-55.0","9uuq3752h7","NaN","<div style=""width:500px;"">
                            <p style=""font-size:50px; font-weight:bold;""
                            >serious</p>
                            <div style=""width:240px; margin: auto;"">
                                <img src=""images/gray_03.png"" style= ""width:200px""alt=""img"">
                            </div>
                        </div>","50","","0","images/gray_03.png","","","","serious"
"","","","","","html-slider-response","60","236806","0.0-56.0","9uuq3752h7","NaN","<div style=""width:500px;"">
                            <p style=""font-size:50px; font-weight:bold;""
                            >serious</p>
                            <div style=""width:240px; margin: auto;"">
                                <img src=""images/gray_07.png"" style= ""width:200px""alt=""img"">
                            </div>
                        </div>","29","","0","images/gray_07.png","","","","serious"
"","","","","","html-slider-response","61","238877","0.0-57.0","9uuq3752h7","NaN","<div style=""width:500px;"">
                            <p style=""font-size:50px; font-weight:bold;""
                            >serious</p>
                            <div style=""width:240px; margin: auto;"">
                                <img src=""images/gray_02.png"" style= ""width:200px""alt=""img"">
                            </div>
                        </div>","66","","0","images/gray_02.png","","","","serious"
"","","","","","html-button-response","62","243408","0.0-58.0","9uuq3752h7","4029","<p>Great Job! You've finished block 1.<br></br> You have 7 block(s) left to go.<br></br></p>","0","","","","","","",""
"","","","","","html-button-response","63","245897","0.0-59.0","9uuq3752h7","2489","<p>In this block of trials, you will be asked to rate how much you associate each map with:</p > <p style = 'font-size:150%; font-weight: bold'>trustworthy</p><br></br>","0","","","","","","",""
"","","","","","html-slider-response","64","251858","0.0-60.0","9uuq3752h7","NaN","<div style=""width:500px;"">
                            <p style=""font-size:50px; font-weight:bold;""
                            >trustworthy</p>
                            <div style=""width:240px; margin: auto;"">
                                <img src=""images/gray_34.png"" style= ""width:200px""alt=""img"">
                            </div>
                        </div>","-143","","0","images/gray_34.png","","","","trustworthy"
"","","","","","html-slider-response","65","255081","0.0-61.0","9uuq3752h7","NaN","<div style=""width:500px;"">
                            <p style=""font-size:50px; font-weight:bold;""
                            >trustworthy</p>
                            <div style=""width:240px; margin: auto;"">
                                <img src=""images/gray_15.png"" style= ""width:200px""alt=""img"">
                            </div>
                        </div>","68","","0","images/gray_15.png","","","","trustworthy"
"","","","","","html-slider-response","66","257662","0.0-62.0","9uuq3752h7","NaN","<div style=""width:500px;"">
                            <p style=""font-size:50px; font-weight:bold;""
                            >trustworthy</p>
                            <div style=""width:240px; margin: auto;"">
                                <img src=""images/gray_18.png"" style= ""width:200px""alt=""img"">
                            </div>
                        </div>","136","","0","images/gray_18.png","","","","trustworthy"
"","","","","","html-slider-response","67","261154","0.0-63.0","9uuq3752h7","NaN","<div style=""width:500px;"">
                            <p style=""font-size:50px; font-weight:bold;""
                            >trustworthy</p>
                            <div style=""width:240px; margin: auto;"">
                                <img src=""images/gray_32.png"" style= ""width:200px""alt=""img"">
                            </div>
                        </div>","-45","","0","images/gray_32.png","","","","trustworthy"
"","","","","","html-slider-response","68","263366","0.0-64.0","9uuq3752h7","NaN","<div style=""width:500px;"">
                            <p style=""font-size:50px; font-weight:bold;""
                            >trustworthy</p>
                            <div style=""width:240px; margin: auto;"">
                                <img src=""images/gray_12.png"" style= ""width:200px""alt=""img"">
                            </div>
                        </div>","88","","0","images/gray_12.png","","","","trustworthy"
"","","","","","html-slider-response","69","266536","0.0-65.0","9uuq3752h7","NaN","<div style=""width:500px;"">
                            <p style=""font-size:50px; font-weight:bold;""
                            >trustworthy</p>
                            <div style=""width:240px; margin: auto;"">
                                <img src=""images/gray_28.png"" style= ""width:200px""alt=""img"">
                            </div>
                        </div>","-105","","0","images/gray_28.png","","","","trustworthy"
"","","","","","html-slider-response","70","268671","0.0-66.0","9uuq3752h7","NaN","<div style=""width:500px;"">
                            <p style=""font-size:50px; font-weight:bold;""
                            >trustworthy</p>
                            <div style=""width:240px; margin: auto;"">
                                <img src=""images/gray_08.png"" style= ""width:200px""alt=""img"">
                            </div>
                        </div>","-142","","0","images/gray_08.png","","","","trustworthy"
"","","","","","html-slider-response","71","271145","0.0-67.0","9uuq3752h7","NaN","<div style=""width:500px;"">
                            <p style=""font-size:50px; font-weight:bold;""
                            >trustworthy</p>
                            <div style=""width:240px; margin: auto;"">
                                <img src=""images/gray_06.png"" style= ""width:200px""alt=""img"">
                            </div>
                        </div>","-40","","0","images/gray_06.png","","","","trustworthy"
"","","","","","html-slider-response","72","273479","0.0-68.0","9uuq3752h7","NaN","<div style=""width:500px;"">
                            <p style=""font-size:50px; font-weight:bold;""
                            >trustworthy</p>
                            <div style=""width:240px; margin: auto;"">
                                <img src=""images/gray_44.png"" style= ""width:200px""alt=""img"">
                            </div>
                        </div>","-43","","0","images/gray_44.png","","","","trustworthy"
"","","","","","html-slider-response","73","275970","0.0-69.0","9uuq3752h7","NaN","<div style=""width:500px;"">
                            <p style=""font-size:50px; font-weight:bold;""
                            >trustworthy</p>
                            <div style=""width:240px; margin: auto;"">
                                <img src=""images/gray_25.png"" style= ""width:200px""alt=""img"">
                            </div>
                        </div>","42","","0","images/gray_25.png","","","","trustworthy"
"","","","","","html-slider-response","74","278246","0.0-70.0","9uuq3752h7","NaN","<div style=""width:500px;"">
                            <p style=""font-size:50px; font-weight:bold;""
                            >trustworthy</p>
                            <div style=""width:240px; margin: auto;"">
                                <img src=""images/gray_16.png"" style= ""width:200px""alt=""img"">
                            </div>
                        </div>","-22","","0","images/gray_16.png","","","","trustworthy"
"","","","","","html-slider-response","75","280162","0.0-71.0","9uuq3752h7","NaN","<div style=""width:500px;"">
                            <p style=""font-size:50px; font-weight:bold;""
                            >trustworthy</p>
                            <div style=""width:240px; margin: auto;"">
                                <img src=""images/gray_13.png"" style= ""width:200px""alt=""img"">
                            </div>
                        </div>","38","","0","images/gray_13.png","","","","trustworthy"
"","","","","","html-slider-response","76","284010","0.0-72.0","9uuq3752h7","NaN","<div style=""width:500px;"">
                            <p style=""font-size:50px; font-weight:bold;""
                            >trustworthy</p>
                            <div style=""width:240px; margin: auto;"">
                                <img src=""images/gray_21.png"" style= ""width:200px""alt=""img"">
                            </div>
                        </div>","26","","0","images/gray_21.png","","","","trustworthy"
"","","","","","html-slider-response","77","287825","0.0-73.0","9uuq3752h7","NaN","<div style=""width:500px;"">
                            <p style=""font-size:50px; font-weight:bold;""
                            >trustworthy</p>
                            <div style=""width:240px; margin: auto;"">
                                <img src=""images/gray_09.png"" style= ""width:200px""alt=""img"">
                            </div>
                        </div>","86","","0","images/gray_09.png","","","","trustworthy"
"","","","","","html-slider-response","78","290154","0.0-74.0","9uuq3752h7","NaN","<div style=""width:500px;"">
                            <p style=""font-size:50px; font-weight:bold;""
                            >trustworthy</p>
                            <div style=""width:240px; margin: auto;"">
                                <img src=""images/gray_37.png"" style= ""width:200px""alt=""img"">
                            </div>
                        </div>","-29","","0","images/gray_37.png","","","","trustworthy"
"","","","","","html-slider-response","79","292886","0.0-75.0","9uuq3752h7","NaN","<div style=""width:500px;"">
                            <p style=""font-size:50px; font-weight:bold;""
                            >trustworthy</p>
                            <div style=""width:240px; margin: auto;"">
                                <img src=""images/gray_33.png"" style= ""width:200px""alt=""img"">
                            </div>
                        </div>","158","","0","images/gray_33.png","","","","trustworthy"
"","","","","","html-slider-response","80","295040","0.0-76.0","9uuq3752h7","NaN","<div style=""width:500px;"">
                            <p style=""font-size:50px; font-weight:bold;""
                            >trustworthy</p>
                            <div style=""width:240px; margin: auto;"">
                                <img src=""images/gray_43.png"" style= ""width:200px""alt=""img"">
                            </div>
                        </div>","98","","0","images/gray_43.png","","","","trustworthy"
"","","","","","html-slider-response","81","298167","0.0-77.0","9uuq3752h7","NaN","<div style=""width:500px;"">
                            <p style=""font-size:50px; font-weight:bold;""
                            >trustworthy</p>
                            <div style=""width:240px; margin: auto;"">
                                <img src=""images/gray_31.png"" style= ""width:200px""alt=""img"">
                            </div>
                        </div>","190","","0","images/gray_31.png","","","","trustworthy"
"","","","","","html-slider-response","82","300542","0.0-78.0","9uuq3752h7","NaN","<div style=""width:500px;"">
                            <p style=""font-size:50px; font-weight:bold;""
                            >trustworthy</p>
                            <div style=""width:240px; margin: auto;"">
                                <img src=""images/gray_24.png"" style= ""width:200px""alt=""img"">
                            </div>
                        </div>","175","","0","images/gray_24.png","","","","trustworthy"
"","","","","","html-slider-response","83","302662","0.0-79.0","9uuq3752h7","NaN","<div style=""width:500px;"">
                            <p style=""font-size:50px; font-weight:bold;""
                            >trustworthy</p>
                            <div style=""width:240px; margin: auto;"">
                                <img src=""images/gray_02.png"" style= ""width:200px""alt=""img"">
                            </div>
                        </div>","37","","0","images/gray_02.png","","","","trustworthy"
"","","","","","html-slider-response","84","306206","0.0-80.0","9uuq3752h7","NaN","<div style=""width:500px;"">
                            <p style=""font-size:50px; font-weight:bold;""
                            >trustworthy</p>
                            <div style=""width:240px; margin: auto;"">
                                <img src=""images/gray_07.png"" style= ""width:200px""alt=""img"">
                            </div>
                        </div>","-33","","0","images/gray_07.png","","","","trustworthy"
"","","","","","html-slider-response","85","308956","0.0-81.0","9uuq3752h7","NaN","<div style=""width:500px;"">
                            <p style=""font-size:50px; font-weight:bold;""
                            >trustworthy</p>
                            <div style=""width:240px; margin: auto;"">
                                <img src=""images/gray_14.png"" style= ""width:200px""alt=""img"">
                            </div>
                        </div>","-140","","0","images/gray_14.png","","","","trustworthy"
"","","","","","html-slider-response","86","311495","0.0-82.0","9uuq3752h7","NaN","<div style=""width:500px;"">
                            <p style=""font-size:50px; font-weight:bold;""
                            >trustworthy</p>
                            <div style=""width:240px; margin: auto;"">
                                <img src=""images/gray_19.png"" style= ""width:200px""alt=""img"">
                            </div>
                        </div>","-21","","0","images/gray_19.png","","","","trustworthy"
"","","","","","html-slider-response","87","314189","0.0-83.0","9uuq3752h7","NaN","<div style=""width:500px;"">
                            <p style=""font-size:50px; font-weight:bold;""
                            >trustworthy</p>
                            <div style=""width:240px; margin: auto;"">
                                <img src=""images/gray_17.png"" style= ""width:200px""alt=""img"">
                            </div>
                        </div>","58","","0","images/gray_17.png","","","","trustworthy"
"","","","","","html-slider-response","88","316915","0.0-84.0","9uuq3752h7","NaN","<div style=""width:500px;"">
                            <p style=""font-size:50px; font-weight:bold;""
                            >trustworthy</p>
                            <div style=""width:240px; margin: auto;"">
                                <img src=""images/gray_35.png"" style= ""width:200px""alt=""img"">
                            </div>
                        </div>","-31","","0","images/gray_35.png","","","","trustworthy"
"","","","","","html-slider-response","89","319019","0.0-85.0","9uuq3752h7","NaN","<div style=""width:500px;"">
                            <p style=""font-size:50px; font-weight:bold;""
                            >trustworthy</p>
                            <div style=""width:240px; margin: auto;"">
                                <img src=""images/gray_11.png"" style= ""width:200px""alt=""img"">
                            </div>
                        </div>","-131","","0","images/gray_11.png","","","","trustworthy"
"","","","","","html-slider-response","90","320847","0.0-86.0","9uuq3752h7","NaN","<div style=""width:500px;"">
                            <p style=""font-size:50px; font-weight:bold;""
                            >trustworthy</p>
                            <div style=""width:240px; margin: auto;"">
                                <img src=""images/gray_10.png"" style= ""width:200px""alt=""img"">
                            </div>
                        </div>","-89","","0","images/gray_10.png","","","","trustworthy"
"","","","","","html-slider-response","91","323745","0.0-87.0","9uuq3752h7","NaN","<div style=""width:500px;"">
                            <p style=""font-size:50px; font-weight:bold;""
                            >trustworthy</p>
                            <div style=""width:240px; margin: auto;"">
                                <img src=""images/gray_04.png"" style= ""width:200px""alt=""img"">
                            </div>
                        </div>","18","","0","images/gray_04.png","","","","trustworthy"
"","","","","","html-slider-response","92","327542","0.0-88.0","9uuq3752h7","NaN","<div style=""width:500px;"">
                            <p style=""font-size:50px; font-weight:bold;""
                            >trustworthy</p>
                            <div style=""width:240px; margin: auto;"">
                                <img src=""images/gray_23.png"" style= ""width:200px""alt=""img"">
                            </div>
                        </div>","-21","","0","images/gray_23.png","","","","trustworthy"
"","","","","","html-slider-response","93","330390","0.0-89.0","9uuq3752h7","NaN","<div style=""width:500px;"">
                            <p style=""font-size:50px; font-weight:bold;""
                            >trustworthy</p>
                            <div style=""width:240px; margin: auto;"">
                                <img src=""images/gray_40.png"" style= ""width:200px""alt=""img"">
                            </div>
                        </div>","-31","","0","images/gray_40.png","","","","trustworthy"
"","","","","","html-slider-response","94","338588","0.0-90.0","9uuq3752h7","NaN","<div style=""width:500px;"">
                            <p style=""font-size:50px; font-weight:bold;""
                            >trustworthy</p>
                            <div style=""width:240px; margin: auto;"">
                                <img src=""images/gray_29.png"" style= ""width:200px""alt=""img"">
                            </div>
                        </div>","-122","","0","images/gray_29.png","","","","trustworthy"
"","","","","","html-slider-response","95","340797","0.0-91.0","9uuq3752h7","NaN","<div style=""width:500px;"">
                            <p style=""font-size:50px; font-weight:bold;""
                            >trustworthy</p>
                            <div style=""width:240px; margin: auto;"">
                                <img src=""images/gray_22.png"" style= ""width:200px""alt=""img"">
                            </div>
                        </div>","-138","","0","images/gray_22.png","","","","trustworthy"
"","","","","","html-slider-response","96","343131","0.0-92.0","9uuq3752h7","NaN","<div style=""width:500px;"">
                            <p style=""font-size:50px; font-weight:bold;""
                            >trustworthy</p>
                            <div style=""width:240px; margin: auto;"">
                                <img src=""images/gray_42.png"" style= ""width:200px""alt=""img"">
                            </div>
                        </div>","53","","0","images/gray_42.png","","","","trustworthy"
"","","","","","html-slider-response","97","345949","0.0-93.0","9uuq3752h7","NaN","<div style=""width:500px;"">
                            <p style=""font-size:50px; font-weight:bold;""
                            >trustworthy</p>
                            <div style=""width:240px; margin: auto;"">
                                <img src=""images/gray_30.png"" style= ""width:200px""alt=""img"">
                            </div>
                        </div>","125","","0","images/gray_30.png","","","","trustworthy"
"","","","","","html-slider-response","98","353881","0.0-94.0","9uuq3752h7","NaN","<div style=""width:500px;"">
                            <p style=""font-size:50px; font-weight:bold;""
                            >trustworthy</p>
                            <div style=""width:240px; margin: auto;"">
                                <img src=""images/gray_27.png"" style= ""width:200px""alt=""img"">
                            </div>
                        </div>","200","","0","images/gray_27.png","","","","trustworthy"
"","","","","","html-slider-response","99","356347","0.0-95.0","9uuq3752h7","NaN","<div style=""width:500px;"">
                            <p style=""font-size:50px; font-weight:bold;""
                            >trustworthy</p>
                            <div style=""width:240px; margin: auto;"">
                                <img src=""images/gray_05.png"" style= ""width:200px""alt=""img"">
                            </div>
                        </div>","176","","0","images/gray_05.png","","","","trustworthy"
"","","","","","html-slider-response","100","358828","0.0-96.0","9uuq3752h7","NaN","<div style=""width:500px;"">
                            <p style=""font-size:50px; font-weight:bold;""
                            >trustworthy</p>
                            <div style=""width:240px; margin: auto;"">
                                <img src=""images/gray_36.png"" style= ""width:200px""alt=""img"">
                            </div>
                        </div>","-50","","0","images/gray_36.png","","","","trustworthy"
"","","","","","html-slider-response","101","361155","0.0-97.0","9uuq3752h7","NaN","<div style=""width:500px;"">
                            <p style=""font-size:50px; font-weight:bold;""
                            >trustworthy</p>
                            <div style=""width:240px; margin: auto;"">
                                <img src=""images/gray_41.png"" style= ""width:200px""alt=""img"">
                            </div>
                        </div>","-65","","0","images/gray_41.png","","","","trustworthy"
"","","","","","html-slider-response","102","363611","0.0-98.0","9uuq3752h7","NaN","<div style=""width:500px;"">
                            <p style=""font-size:50px; font-weight:bold;""
                            >trustworthy</p>
                            <div style=""width:240px; margin: auto;"">
                                <img src=""images/gray_20.png"" style= ""width:200px""alt=""img"">
                            </div>
                        </div>","-134","","0","images/gray_20.png","","","","trustworthy"
"","","","","","html-slider-response","103","366109","0.0-99.0","9uuq3752h7","NaN","<div style=""width:500px;"">
                            <p style=""font-size:50px; font-weight:bold;""
                            >trustworthy</p>
                            <div style=""width:240px; margin: auto;"">
                                <img src=""images/gray_26.png"" style= ""width:200px""alt=""img"">
                            </div>
                        </div>","-25","","0","images/gray_26.png","","","","trustworthy"
"","","","","","html-slider-response","104","367986","0.0-100.0","9uuq3752h7","NaN","<div style=""width:500px;"">
                            <p style=""font-size:50px; font-weight:bold;""
                            >trustworthy</p>
                            <div style=""width:240px; margin: auto;"">
                                <img src=""images/gray_38.png"" style= ""width:200px""alt=""img"">
                            </div>
                        </div>","80","","0","images/gray_38.png","","","","trustworthy"
"","","","","","html-slider-response","105","369912","0.0-101.0","9uuq3752h7","NaN","<div style=""width:500px;"">
                            <p style=""font-size:50px; font-weight:bold;""
                            >trustworthy</p>
                            <div style=""width:240px; margin: auto;"">
                                <img src=""images/gray_39.png"" style= ""width:200px""alt=""img"">
                            </div>
                        </div>","130","","0","images/gray_39.png","","","","trustworthy"
"","","","","","html-slider-response","106","376068","0.0-102.0","9uuq3752h7","NaN","<div style=""width:500px;"">
                            <p style=""font-size:50px; font-weight:bold;""
                            >trustworthy</p>
                            <div style=""width:240px; margin: auto;"">
                                <img src=""images/gray_03.png"" style= ""width:200px""alt=""img"">
                            </div>
                        </div>","-51","","0","images/gray_03.png","","","","trustworthy"
"","","","","","html-slider-response","107","382188","0.0-103.0","9uuq3752h7","NaN","<div style=""width:500px;"">
                            <p style=""font-size:50px; font-weight:bold;""
                            >trustworthy</p>
                            <div style=""width:240px; margin: auto;"">
                                <img src=""images/gray_01.png"" style= ""width:200px""alt=""img"">
                            </div>
                        </div>","-66","","0","images/gray_01.png","","","","trustworthy"
"","","","","","html-button-response","108","384233","0.0-104.0","9uuq3752h7","1542","<p>Great Job! You've finished block 2.<br></br> You have 6 block(s) left to go.<br></br></p>","0","","","","","","",""
"","","","","","html-button-response","109","385588","0.0-105.0","9uuq3752h7","1355","<p>In this block of trials, you will be asked to rate how much you associate each map with:</p > <p style = 'font-size:150%; font-weight: bold'>calm</p><br></br>","0","","","","","","",""
"","","","","","html-slider-response","110","387467","0.0-106.0","9uuq3752h7","NaN","<div style=""width:500px;"">
                            <p style=""font-size:50px; font-weight:bold;""
                            >calm</p>
                            <div style=""width:240px; margin: auto;"">
                                <img src=""images/gray_32.png"" style= ""width:200px""alt=""img"">
                            </div>
                        </div>","103","","0","images/gray_32.png","","","","calm"
"","","","","","html-slider-response","111","389663","0.0-107.0","9uuq3752h7","NaN","<div style=""width:500px;"">
                            <p style=""font-size:50px; font-weight:bold;""
                            >calm</p>
                            <div style=""width:240px; margin: auto;"">
                                <img src=""images/gray_30.png"" style= ""width:200px""alt=""img"">
                            </div>
                        </div>","22","","0","images/gray_30.png","","","","calm"
"","","","","","html-slider-response","112","392756","0.0-108.0","9uuq3752h7","NaN","<div style=""width:500px;"">
                            <p style=""font-size:50px; font-weight:bold;""
                            >calm</p>
                            <div style=""width:240px; margin: auto;"">
                                <img src=""images/gray_28.png"" style= ""width:200px""alt=""img"">
                            </div>
                        </div>","8","","0","images/gray_28.png","","","","calm"
"","","","","","html-slider-response","113","395884","0.0-109.0","9uuq3752h7","NaN","<div style=""width:500px;"">
                            <p style=""font-size:50px; font-weight:bold;""
                            >calm</p>
                            <div style=""width:240px; margin: auto;"">
                                <img src=""images/gray_06.png"" style= ""width:200px""alt=""img"">
                            </div>
                        </div>","-57","","0","images/gray_06.png","","","","calm"
"","","","","","html-slider-response","114","398235","0.0-110.0","9uuq3752h7","NaN","<div style=""width:500px;"">
                            <p style=""font-size:50px; font-weight:bold;""
                            >calm</p>
                            <div style=""width:240px; margin: auto;"">
                                <img src=""images/gray_04.png"" style= ""width:200px""alt=""img"">
                            </div>
                        </div>","15","","0","images/gray_04.png","","","","calm"
"","","","","","html-slider-response","115","400428","0.0-111.0","9uuq3752h7","NaN","<div style=""width:500px;"">
                            <p style=""font-size:50px; font-weight:bold;""
                            >calm</p>
                            <div style=""width:240px; margin: auto;"">
                                <img src=""images/gray_10.png"" style= ""width:200px""alt=""img"">
                            </div>
                        </div>","-121","","0","images/gray_10.png","","","","calm"
"","","","","","html-slider-response","116","403089","0.0-112.0","9uuq3752h7","NaN","<div style=""width:500px;"">
                            <p style=""font-size:50px; font-weight:bold;""
                            >calm</p>
                            <div style=""width:240px; margin: auto;"">
                                <img src=""images/gray_24.png"" style= ""width:200px""alt=""img"">
                            </div>
                        </div>","-200","","0","images/gray_24.png","","","","calm"
"","","","","","html-slider-response","117","405033","0.0-113.0","9uuq3752h7","NaN","<div style=""width:500px;"">
                            <p style=""font-size:50px; font-weight:bold;""
                            >calm</p>
                            <div style=""width:240px; margin: auto;"">
                                <img src=""images/gray_41.png"" style= ""width:200px""alt=""img"">
                            </div>
                        </div>","-200","","0","images/gray_41.png","","","","calm"
"","","","","","html-slider-response","118","407561","0.0-114.0","9uuq3752h7","NaN","<div style=""width:500px;"">
                            <p style=""font-size:50px; font-weight:bold;""
                            >calm</p>
                            <div style=""width:240px; margin: auto;"">
                                <img src=""images/gray_36.png"" style= ""width:200px""alt=""img"">
                            </div>
                        </div>","-200","","0","images/gray_36.png","","","","calm"
"","","","","","html-slider-response","119","411193","0.0-115.0","9uuq3752h7","NaN","<div style=""width:500px;"">
                            <p style=""font-size:50px; font-weight:bold;""
                            >calm</p>
                            <div style=""width:240px; margin: auto;"">
                                <img src=""images/gray_40.png"" style= ""width:200px""alt=""img"">
                            </div>
                        </div>","-93","","0","images/gray_40.png","","","","calm"
"","","","","","html-slider-response","120","413505","0.0-116.0","9uuq3752h7","NaN","<div style=""width:500px;"">
                            <p style=""font-size:50px; font-weight:bold;""
                            >calm</p>
                            <div style=""width:240px; margin: auto;"">
                                <img src=""images/gray_33.png"" style= ""width:200px""alt=""img"">
                            </div>
                        </div>","-200","","0","images/gray_33.png","","","","calm"
"","","","","","html-slider-response","121","415986","0.0-117.0","9uuq3752h7","NaN","<div style=""width:500px;"">
                            <p style=""font-size:50px; font-weight:bold;""
                            >calm</p>
                            <div style=""width:240px; margin: auto;"">
                                <img src=""images/gray_27.png"" style= ""width:200px""alt=""img"">
                            </div>
                        </div>","26","","0","images/gray_27.png","","","","calm"
"","","","","","html-slider-response","122","420228","0.0-118.0","9uuq3752h7","NaN","<div style=""width:500px;"">
                            <p style=""font-size:50px; font-weight:bold;""
                            >calm</p>
                            <div style=""width:240px; margin: auto;"">
                                <img src=""images/gray_13.png"" style= ""width:200px""alt=""img"">
                            </div>
                        </div>","93","","0","images/gray_13.png","","","","calm"
"","","","","","html-slider-response","123","422375","0.0-119.0","9uuq3752h7","NaN","<div style=""width:500px;"">
                            <p style=""font-size:50px; font-weight:bold;""
                            >calm</p>
                            <div style=""width:240px; margin: auto;"">
                                <img src=""images/gray_07.png"" style= ""width:200px""alt=""img"">
                            </div>
                        </div>","22","","0","images/gray_07.png","","","","calm"
"","","","","","html-slider-response","124","425191","0.0-120.0","9uuq3752h7","NaN","<div style=""width:500px;"">
                            <p style=""font-size:50px; font-weight:bold;""
                            >calm</p>
                            <div style=""width:240px; margin: auto;"">
                                <img src=""images/gray_22.png"" style= ""width:200px""alt=""img"">
                            </div>
                        </div>","-60","","0","images/gray_22.png","","","","calm"
"","","","","","html-slider-response","125","428842","0.0-121.0","9uuq3752h7","NaN","<div style=""width:500px;"">
                            <p style=""font-size:50px; font-weight:bold;""
                            >calm</p>
                            <div style=""width:240px; margin: auto;"">
                                <img src=""images/gray_34.png"" style= ""width:200px""alt=""img"">
                            </div>
                        </div>","-22","","0","images/gray_34.png","","","","calm"
"","","","","","html-slider-response","126","431239","0.0-122.0","9uuq3752h7","NaN","<div style=""width:500px;"">
                            <p style=""font-size:50px; font-weight:bold;""
                            >calm</p>
                            <div style=""width:240px; margin: auto;"">
                                <img src=""images/gray_19.png"" style= ""width:200px""alt=""img"">
                            </div>
                        </div>","34","","0","images/gray_19.png","","","","calm"
"","","","","","html-slider-response","127","433157","0.0-123.0","9uuq3752h7","NaN","<div style=""width:500px;"">
                            <p style=""font-size:50px; font-weight:bold;""
                            >calm</p>
                            <div style=""width:240px; margin: auto;"">
                                <img src=""images/gray_16.png"" style= ""width:200px""alt=""img"">
                            </div>
                        </div>","38","","0","images/gray_16.png","","","","calm"
"","","","","","html-slider-response","128","435492","0.0-124.0","9uuq3752h7","NaN","<div style=""width:500px;"">
                            <p style=""font-size:50px; font-weight:bold;""
                            >calm</p>
                            <div style=""width:240px; margin: auto;"">
                                <img src=""images/gray_23.png"" style= ""width:200px""alt=""img"">
                            </div>
                        </div>","-114","","0","images/gray_23.png","","","","calm"
"","","","","","html-slider-response","129","439727","0.0-125.0","9uuq3752h7","NaN","<div style=""width:500px;"">
                            <p style=""font-size:50px; font-weight:bold;""
                            >calm</p>
                            <div style=""width:240px; margin: auto;"">
                                <img src=""images/gray_31.png"" style= ""width:200px""alt=""img"">
                            </div>
                        </div>","-25","","0","images/gray_31.png","","","","calm"
"","","","","","html-slider-response","130","442241","0.0-126.0","9uuq3752h7","NaN","<div style=""width:500px;"">
                            <p style=""font-size:50px; font-weight:bold;""
                            >calm</p>
                            <div style=""width:240px; margin: auto;"">
                                <img src=""images/gray_12.png"" style= ""width:200px""alt=""img"">
                            </div>
                        </div>","-56","","0","images/gray_12.png","","","","calm"
"","","","","","html-slider-response","131","444151","0.0-127.0","9uuq3752h7","NaN","<div style=""width:500px;"">
                            <p style=""font-size:50px; font-weight:bold;""
                            >calm</p>
                            <div style=""width:240px; margin: auto;"">
                                <img src=""images/gray_35.png"" style= ""width:200px""alt=""img"">
                            </div>
                        </div>","-102","","0","images/gray_35.png","","","","calm"
"","","","","","html-slider-response","132","446772","0.0-128.0","9uuq3752h7","NaN","<div style=""width:500px;"">
                            <p style=""font-size:50px; font-weight:bold;""
                            >calm</p>
                            <div style=""width:240px; margin: auto;"">
                                <img src=""images/gray_18.png"" style= ""width:200px""alt=""img"">
                            </div>
                        </div>","-126","","0","images/gray_18.png","","","","calm"
"","","","","","html-slider-response","133","448656","0.0-129.0","9uuq3752h7","NaN","<div style=""width:500px;"">
                            <p style=""font-size:50px; font-weight:bold;""
                            >calm</p>
                            <div style=""width:240px; margin: auto;"">
                                <img src=""images/gray_09.png"" style= ""width:200px""alt=""img"">
                            </div>
                        </div>","-82","","0","images/gray_09.png","","","","calm"
"","","","","","html-slider-response","134","450777","0.0-130.0","9uuq3752h7","NaN","<div style=""width:500px;"">
                            <p style=""font-size:50px; font-weight:bold;""
                            >calm</p>
                            <div style=""width:240px; margin: auto;"">
                                <img src=""images/gray_15.png"" style= ""width:200px""alt=""img"">
                            </div>
                        </div>","50","","0","images/gray_15.png","","","","calm"
"","","","","","html-slider-response","135","454826","0.0-131.0","9uuq3752h7","NaN","<div style=""width:500px;"">
                            <p style=""font-size:50px; font-weight:bold;""
                            >calm</p>
                            <div style=""width:240px; margin: auto;"">
                                <img src=""images/gray_21.png"" style= ""width:200px""alt=""img"">
                            </div>
                        </div>","-200","","0","images/gray_21.png","","","","calm"
"","","","","","html-slider-response","136","456645","0.0-132.0","9uuq3752h7","NaN","<div style=""width:500px;"">
                            <p style=""font-size:50px; font-weight:bold;""
                            >calm</p>
                            <div style=""width:240px; margin: auto;"">
                                <img src=""images/gray_37.png"" style= ""width:200px""alt=""img"">
                            </div>
                        </div>","-200","","0","images/gray_37.png","","","","calm"
"","","","","","html-slider-response","137","458760","0.0-133.0","9uuq3752h7","NaN","<div style=""width:500px;"">
                            <p style=""font-size:50px; font-weight:bold;""
                            >calm</p>
                            <div style=""width:240px; margin: auto;"">
                                <img src=""images/gray_05.png"" style= ""width:200px""alt=""img"">
                            </div>
                        </div>","-194","","0","images/gray_05.png","","","","calm"
"","","","","","html-slider-response","138","460800","0.0-134.0","9uuq3752h7","NaN","<div style=""width:500px;"">
                            <p style=""font-size:50px; font-weight:bold;""
                            >calm</p>
                            <div style=""width:240px; margin: auto;"">
                                <img src=""images/gray_42.png"" style= ""width:200px""alt=""img"">
                            </div>
                        </div>","51","","0","images/gray_42.png","","","","calm"
"","","","","","html-slider-response","139","462998","0.0-135.0","9uuq3752h7","NaN","<div style=""width:500px;"">
                            <p style=""font-size:50px; font-weight:bold;""
                            >calm</p>
                            <div style=""width:240px; margin: auto;"">
                                <img src=""images/gray_26.png"" style= ""width:200px""alt=""img"">
                            </div>
                        </div>","-94","","0","images/gray_26.png","","","","calm"
"","","","","","html-slider-response","140","465502","0.0-136.0","9uuq3752h7","NaN","<div style=""width:500px;"">
                            <p style=""font-size:50px; font-weight:bold;""
                            >calm</p>
                            <div style=""width:240px; margin: auto;"">
                                <img src=""images/gray_38.png"" style= ""width:200px""alt=""img"">
                            </div>
                        </div>","36","","0","images/gray_38.png","","","","calm"
"","","","","","html-slider-response","141","467234","0.0-137.0","9uuq3752h7","NaN","<div style=""width:500px;"">
                            <p style=""font-size:50px; font-weight:bold;""
                            >calm</p>
                            <div style=""width:240px; margin: auto;"">
                                <img src=""images/gray_20.png"" style= ""width:200px""alt=""img"">
                            </div>
                        </div>","-200","","0","images/gray_20.png","","","","calm"
"","","","","","html-slider-response","142","470807","0.0-138.0","9uuq3752h7","NaN","<div style=""width:500px;"">
                            <p style=""font-size:50px; font-weight:bold;""
                            >calm</p>
                            <div style=""width:240px; margin: auto;"">
                                <img src=""images/gray_17.png"" style= ""width:200px""alt=""img"">
                            </div>
                        </div>","-21","","0","images/gray_17.png","","","","calm"
"","","","","","html-slider-response","143","472936","0.0-139.0","9uuq3752h7","NaN","<div style=""width:500px;"">
                            <p style=""font-size:50px; font-weight:bold;""
                            >calm</p>
                            <div style=""width:240px; margin: auto;"">
                                <img src=""images/gray_11.png"" style= ""width:200px""alt=""img"">
                            </div>
                        </div>","30","","0","images/gray_11.png","","","","calm"
"","","","","","html-slider-response","144","475222","0.0-140.0","9uuq3752h7","NaN","<div style=""width:500px;"">
                            <p style=""font-size:50px; font-weight:bold;""
                            >calm</p>
                            <div style=""width:240px; margin: auto;"">
                                <img src=""images/gray_29.png"" style= ""width:200px""alt=""img"">
                            </div>
                        </div>","-114","","0","images/gray_29.png","","","","calm"
"","","","","","html-slider-response","145","477924","0.0-141.0","9uuq3752h7","NaN","<div style=""width:500px;"">
                            <p style=""font-size:50px; font-weight:bold;""
                            >calm</p>
                            <div style=""width:240px; margin: auto;"">
                                <img src=""images/gray_01.png"" style= ""width:200px""alt=""img"">
                            </div>
                        </div>","-127","","0","images/gray_01.png","","","","calm"
"","","","","","html-slider-response","146","480668","0.0-142.0","9uuq3752h7","NaN","<div style=""width:500px;"">
                            <p style=""font-size:50px; font-weight:bold;""
                            >calm</p>
                            <div style=""width:240px; margin: auto;"">
                                <img src=""images/gray_44.png"" style= ""width:200px""alt=""img"">
                            </div>
                        </div>","-98","","0","images/gray_44.png","","","","calm"
"","","","","","html-slider-response","147","488084","0.0-143.0","9uuq3752h7","NaN","<div style=""width:500px;"">
                            <p style=""font-size:50px; font-weight:bold;""
                            >calm</p>
                            <div style=""width:240px; margin: auto;"">
                                <img src=""images/gray_14.png"" style= ""width:200px""alt=""img"">
                            </div>
                        </div>","-148","","0","images/gray_14.png","","","","calm"
"","","","","","html-slider-response","148","490256","0.0-144.0","9uuq3752h7","NaN","<div style=""width:500px;"">
                            <p style=""font-size:50px; font-weight:bold;""
                            >calm</p>
                            <div style=""width:240px; margin: auto;"">
                                <img src=""images/gray_25.png"" style= ""width:200px""alt=""img"">
                            </div>
                        </div>","28","","0","images/gray_25.png","","","","calm"
"","","","","","html-slider-response","149","491993","0.0-145.0","9uuq3752h7","NaN","<div style=""width:500px;"">
                            <p style=""font-size:50px; font-weight:bold;""
                            >calm</p>
                            <div style=""width:240px; margin: auto;"">
                                <img src=""images/gray_43.png"" style= ""width:200px""alt=""img"">
                            </div>
                        </div>","-28","","0","images/gray_43.png","","","","calm"
"","","","","","html-slider-response","150","494042","0.0-146.0","9uuq3752h7","NaN","<div style=""width:500px;"">
                            <p style=""font-size:50px; font-weight:bold;""
                            >calm</p>
                            <div style=""width:240px; margin: auto;"">
                                <img src=""images/gray_02.png"" style= ""width:200px""alt=""img"">
                            </div>
                        </div>","21","","0","images/gray_02.png","","","","calm"
"","","","","","html-slider-response","151","496311","0.0-147.0","9uuq3752h7","NaN","<div style=""width:500px;"">
                            <p style=""font-size:50px; font-weight:bold;""
                            >calm</p>
                            <div style=""width:240px; margin: auto;"">
                                <img src=""images/gray_03.png"" style= ""width:200px""alt=""img"">
                            </div>
                        </div>","-33","","0","images/gray_03.png","","","","calm"
"","","","","","html-slider-response","152","498261","0.0-148.0","9uuq3752h7","NaN","<div style=""width:500px;"">
                            <p style=""font-size:50px; font-weight:bold;""
                            >calm</p>
                            <div style=""width:240px; margin: auto;"">
                                <img src=""images/gray_08.png"" style= ""width:200px""alt=""img"">
                            </div>
                        </div>","25","","0","images/gray_08.png","","","","calm"
"","","","","","html-slider-response","153","500934","0.0-149.0","9uuq3752h7","NaN","<div style=""width:500px;"">
                            <p style=""font-size:50px; font-weight:bold;""
                            >calm</p>
                            <div style=""width:240px; margin: auto;"">
                                <img src=""images/gray_39.png"" style= ""width:200px""alt=""img"">
                            </div>
                        </div>","160","","0","images/gray_39.png","","","","calm"
"","","","","","html-button-response","154","502552","0.0-150.0","9uuq3752h7","1116","<p>Great Job! You've finished block 3.<br></br> You have 5 block(s) left to go.<br></br></p>","0","","","","","","",""
"","","","","","html-button-response","155","512079","0.0-151.0","9uuq3752h7","9526","<p>In this block of trials, you will be asked to rate how much you associate each map with:</p > <p style = 'font-size:150%; font-weight: bold'>negative</p><br></br>","0","","","","","","",""
"","","","","","html-slider-response","156","515240","0.0-152.0","9uuq3752h7","NaN","<div style=""width:500px;"">
                            <p style=""font-size:50px; font-weight:bold;""
                            >negative</p>
                            <div style=""width:240px; margin: auto;"">
                                <img src=""images/gray_34.png"" style= ""width:200px""alt=""img"">
                            </div>
                        </div>","-200","","0","images/gray_34.png","","","","negative"
"","","","","","html-slider-response","157","519002","0.0-153.0","9uuq3752h7","NaN","<div style=""width:500px;"">
                            <p style=""font-size:50px; font-weight:bold;""
                            >negative</p>
                            <div style=""width:240px; margin: auto;"">
                                <img src=""images/gray_13.png"" style= ""width:200px""alt=""img"">
                            </div>
                        </div>","-34","","0","images/gray_13.png","","","","negative"
"","","","","","html-slider-response","158","521189","0.0-154.0","9uuq3752h7","NaN","<div style=""width:500px;"">
                            <p style=""font-size:50px; font-weight:bold;""
                            >negative</p>
                            <div style=""width:240px; margin: auto;"">
                                <img src=""images/gray_29.png"" style= ""width:200px""alt=""img"">
                            </div>
                        </div>","103","","0","images/gray_29.png","","","","negative"
"","","","","","html-slider-response","159","523180","0.0-155.0","9uuq3752h7","NaN","<div style=""width:500px;"">
                            <p style=""font-size:50px; font-weight:bold;""
                            >negative</p>
                            <div style=""width:240px; margin: auto;"">
                                <img src=""images/gray_24.png"" style= ""width:200px""alt=""img"">
                            </div>
                        </div>","-35","","0","images/gray_24.png","","","","negative"
"","","","","","html-slider-response","160","525401","0.0-156.0","9uuq3752h7","NaN","<div style=""width:500px;"">
                            <p style=""font-size:50px; font-weight:bold;""
                            >negative</p>
                            <div style=""width:240px; margin: auto;"">
                                <img src=""images/gray_28.png"" style= ""width:200px""alt=""img"">
                            </div>
                        </div>","86","","0","images/gray_28.png","","","","negative"
"","","","","","html-slider-response","161","528835","0.0-157.0","9uuq3752h7","NaN","<div style=""width:500px;"">
                            <p style=""font-size:50px; font-weight:bold;""
                            >negative</p>
                            <div style=""width:240px; margin: auto;"">
                                <img src=""images/gray_37.png"" style= ""width:200px""alt=""img"">
                            </div>
                        </div>","-56","","0","images/gray_37.png","","","","negative"
"","","","","","html-slider-response","162","530933","0.0-158.0","9uuq3752h7","NaN","<div style=""width:500px;"">
                            <p style=""font-size:50px; font-weight:bold;""
                            >negative</p>
                            <div style=""width:240px; margin: auto;"">
                                <img src=""images/gray_18.png"" style= ""width:200px""alt=""img"">
                            </div>
                        </div>","-132","","0","images/gray_18.png","","","","negative"
"","","","","","html-slider-response","163","533111","0.0-159.0","9uuq3752h7","NaN","<div style=""width:500px;"">
                            <p style=""font-size:50px; font-weight:bold;""
                            >negative</p>
                            <div style=""width:240px; margin: auto;"">
                                <img src=""images/gray_21.png"" style= ""width:200px""alt=""img"">
                            </div>
                        </div>","200","","0","images/gray_21.png","","","","negative"
"","","","","","html-slider-response","164","534923","0.0-160.0","9uuq3752h7","NaN","<div style=""width:500px;"">
                            <p style=""font-size:50px; font-weight:bold;""
                            >negative</p>
                            <div style=""width:240px; margin: auto;"">
                                <img src=""images/gray_14.png"" style= ""width:200px""alt=""img"">
                            </div>
                        </div>","200","","0","images/gray_14.png","","","","negative"
"","","","","","html-slider-response","165","537126","0.0-161.0","9uuq3752h7","NaN","<div style=""width:500px;"">
                            <p style=""font-size:50px; font-weight:bold;""
                            >negative</p>
                            <div style=""width:240px; margin: auto;"">
                                <img src=""images/gray_26.png"" style= ""width:200px""alt=""img"">
                            </div>
                        </div>","131","","0","images/gray_26.png","","","","negative"
"","","","","","html-slider-response","166","538962","0.0-162.0","9uuq3752h7","NaN","<div style=""width:500px;"">
                            <p style=""font-size:50px; font-weight:bold;""
                            >negative</p>
                            <div style=""width:240px; margin: auto;"">
                                <img src=""images/gray_04.png"" style= ""width:200px""alt=""img"">
                            </div>
                        </div>","-74","","0","images/gray_04.png","","","","negative"
"","","","","","html-slider-response","167","541859","0.0-163.0","9uuq3752h7","NaN","<div style=""width:500px;"">
                            <p style=""font-size:50px; font-weight:bold;""
                            >negative</p>
                            <div style=""width:240px; margin: auto;"">
                                <img src=""images/gray_30.png"" style= ""width:200px""alt=""img"">
                            </div>
                        </div>","-143","","0","images/gray_30.png","","","","negative"
"","","","","","html-slider-response","168","544432","0.0-164.0","9uuq3752h7","NaN","<div style=""width:500px;"">
                            <p style=""font-size:50px; font-weight:bold;""
                            >negative</p>
                            <div style=""width:240px; margin: auto;"">
                                <img src=""images/gray_06.png"" style= ""width:200px""alt=""img"">
                            </div>
                        </div>","-56","","0","images/gray_06.png","","","","negative"
"","","","","","html-slider-response","169","546421","0.0-165.0","9uuq3752h7","NaN","<div style=""width:500px;"">
                            <p style=""font-size:50px; font-weight:bold;""
                            >negative</p>
                            <div style=""width:240px; margin: auto;"">
                                <img src=""images/gray_12.png"" style= ""width:200px""alt=""img"">
                            </div>
                        </div>","-200","","0","images/gray_12.png","","","","negative"
"","","","","","html-slider-response","170","548462","0.0-166.0","9uuq3752h7","NaN","<div style=""width:500px;"">
                            <p style=""font-size:50px; font-weight:bold;""
                            >negative</p>
                            <div style=""width:240px; margin: auto;"">
                                <img src=""images/gray_42.png"" style= ""width:200px""alt=""img"">
                            </div>
                        </div>","-200","","0","images/gray_42.png","","","","negative"
"","","","","","html-slider-response","171","551084","0.0-167.0","9uuq3752h7","NaN","<div style=""width:500px;"">
                            <p style=""font-size:50px; font-weight:bold;""
                            >negative</p>
                            <div style=""width:240px; margin: auto;"">
                                <img src=""images/gray_05.png"" style= ""width:200px""alt=""img"">
                            </div>
                        </div>","-200","","0","images/gray_05.png","","","","negative"
"","","","","","html-slider-response","172","553342","0.0-168.0","9uuq3752h7","NaN","<div style=""width:500px;"">
                            <p style=""font-size:50px; font-weight:bold;""
                            >negative</p>
                            <div style=""width:240px; margin: auto;"">
                                <img src=""images/gray_35.png"" style= ""width:200px""alt=""img"">
                            </div>
                        </div>","-92","","0","images/gray_35.png","","","","negative"
"","","","","","html-slider-response","173","558893","0.0-169.0","9uuq3752h7","NaN","<div style=""width:500px;"">
                            <p style=""font-size:50px; font-weight:bold;""
                            >negative</p>
                            <div style=""width:240px; margin: auto;"">
                                <img src=""images/gray_22.png"" style= ""width:200px""alt=""img"">
                            </div>
                        </div>","-72","","0","images/gray_22.png","","","","negative"
"","","","","","html-slider-response","174","562297","0.0-170.0","9uuq3752h7","NaN","<div style=""width:500px;"">
                            <p style=""font-size:50px; font-weight:bold;""
                            >negative</p>
                            <div style=""width:240px; margin: auto;"">
                                <img src=""images/gray_03.png"" style= ""width:200px""alt=""img"">
                            </div>
                        </div>","-45","","0","images/gray_03.png","","","","negative"
"","","","","","html-slider-response","175","564092","0.0-171.0","9uuq3752h7","NaN","<div style=""width:500px;"">
                            <p style=""font-size:50px; font-weight:bold;""
                            >negative</p>
                            <div style=""width:240px; margin: auto;"">
                                <img src=""images/gray_09.png"" style= ""width:200px""alt=""img"">
                            </div>
                        </div>","-200","","0","images/gray_09.png","","","","negative"
"","","","","","html-slider-response","176","565928","0.0-172.0","9uuq3752h7","NaN","<div style=""width:500px;"">
                            <p style=""font-size:50px; font-weight:bold;""
                            >negative</p>
                            <div style=""width:240px; margin: auto;"">
                                <img src=""images/gray_23.png"" style= ""width:200px""alt=""img"">
                            </div>
                        </div>","-29","","0","images/gray_23.png","","","","negative"
"","","","","","html-slider-response","177","567740","0.0-173.0","9uuq3752h7","NaN","<div style=""width:500px;"">
                            <p style=""font-size:50px; font-weight:bold;""
                            >negative</p>
                            <div style=""width:240px; margin: auto;"">
                                <img src=""images/gray_16.png"" style= ""width:200px""alt=""img"">
                            </div>
                        </div>","93","","0","images/gray_16.png","","","","negative"
"","","","","","html-slider-response","178","569636","0.0-174.0","9uuq3752h7","NaN","<div style=""width:500px;"">
                            <p style=""font-size:50px; font-weight:bold;""
                            >negative</p>
                            <div style=""width:240px; margin: auto;"">
                                <img src=""images/gray_41.png"" style= ""width:200px""alt=""img"">
                            </div>
                        </div>","101","","0","images/gray_41.png","","","","negative"
"","","","","","html-slider-response","179","571340","0.0-175.0","9uuq3752h7","NaN","<div style=""width:500px;"">
                            <p style=""font-size:50px; font-weight:bold;""
                            >negative</p>
                            <div style=""width:240px; margin: auto;"">
                                <img src=""images/gray_17.png"" style= ""width:200px""alt=""img"">
                            </div>
                        </div>","-106","","0","images/gray_17.png","","","","negative"
"","","","","","html-slider-response","180","581168","0.0-176.0","9uuq3752h7","NaN","<div style=""width:500px;"">
                            <p style=""font-size:50px; font-weight:bold;""
                            >negative</p>
                            <div style=""width:240px; margin: auto;"">
                                <img src=""images/gray_07.png"" style= ""width:200px""alt=""img"">
                            </div>
                        </div>","-133","","0","images/gray_07.png","","","","negative"
"","","","","","html-slider-response","181","583359","0.0-177.0","9uuq3752h7","NaN","<div style=""width:500px;"">
                            <p style=""font-size:50px; font-weight:bold;""
                            >negative</p>
                            <div style=""width:240px; margin: auto;"">
                                <img src=""images/gray_36.png"" style= ""width:200px""alt=""img"">
                            </div>
                        </div>","200","","0","images/gray_36.png","","","","negative"
"","","","","","html-slider-response","182","586445","0.0-178.0","9uuq3752h7","NaN","<div style=""width:500px;"">
                            <p style=""font-size:50px; font-weight:bold;""
                            >negative</p>
                            <div style=""width:240px; margin: auto;"">
                                <img src=""images/gray_19.png"" style= ""width:200px""alt=""img"">
                            </div>
                        </div>","133","","0","images/gray_19.png","","","","negative"
"","","","","","html-slider-response","183","588363","0.0-179.0","9uuq3752h7","NaN","<div style=""width:500px;"">
                            <p style=""font-size:50px; font-weight:bold;""
                            >negative</p>
                            <div style=""width:240px; margin: auto;"">
                                <img src=""images/gray_31.png"" style= ""width:200px""alt=""img"">
                            </div>
                        </div>","-200","","0","images/gray_31.png","","","","negative"
"","","","","","html-slider-response","184","590231","0.0-180.0","9uuq3752h7","NaN","<div style=""width:500px;"">
                            <p style=""font-size:50px; font-weight:bold;""
                            >negative</p>
                            <div style=""width:240px; margin: auto;"">
                                <img src=""images/gray_39.png"" style= ""width:200px""alt=""img"">
                            </div>
                        </div>","-200","","0","images/gray_39.png","","","","negative"
"","","","","","html-slider-response","185","593153","0.0-181.0","9uuq3752h7","NaN","<div style=""width:500px;"">
                            <p style=""font-size:50px; font-weight:bold;""
                            >negative</p>
                            <div style=""width:240px; margin: auto;"">
                                <img src=""images/gray_27.png"" style= ""width:200px""alt=""img"">
                            </div>
                        </div>","-92","","0","images/gray_27.png","","","","negative"
"","","","","","html-slider-response","186","603208","0.0-182.0","9uuq3752h7","NaN","<div style=""width:500px;"">
                            <p style=""font-size:50px; font-weight:bold;""
                            >negative</p>
                            <div style=""width:240px; margin: auto;"">
                                <img src=""images/gray_43.png"" style= ""width:200px""alt=""img"">
                            </div>
                        </div>","-200","","0","images/gray_43.png","","","","negative"
"","","","","","html-slider-response","187","605892","0.0-183.0","9uuq3752h7","NaN","<div style=""width:500px;"">
                            <p style=""font-size:50px; font-weight:bold;""
                            >negative</p>
                            <div style=""width:240px; margin: auto;"">
                                <img src=""images/gray_32.png"" style= ""width:200px""alt=""img"">
                            </div>
                        </div>","-69","","0","images/gray_32.png","","","","negative"
"","","","","","html-slider-response","188","608308","0.0-184.0","9uuq3752h7","NaN","<div style=""width:500px;"">
                            <p style=""font-size:50px; font-weight:bold;""
                            >negative</p>
                            <div style=""width:240px; margin: auto;"">
                                <img src=""images/gray_33.png"" style= ""width:200px""alt=""img"">
                            </div>
                        </div>","-106","","0","images/gray_33.png","","","","negative"
"","","","","","html-slider-response","189","610838","0.0-185.0","9uuq3752h7","NaN","<div style=""width:500px;"">
                            <p style=""font-size:50px; font-weight:bold;""
                            >negative</p>
                            <div style=""width:240px; margin: auto;"">
                                <img src=""images/gray_25.png"" style= ""width:200px""alt=""img"">
                            </div>
                        </div>","-200","","0","images/gray_25.png","","","","negative"
"","","","","","html-slider-response","190","612527","0.0-186.0","9uuq3752h7","NaN","<div style=""width:500px;"">
                            <p style=""font-size:50px; font-weight:bold;""
                            >negative</p>
                            <div style=""width:240px; margin: auto;"">
                                <img src=""images/gray_01.png"" style= ""width:200px""alt=""img"">
                            </div>
                        </div>","26","","0","images/gray_01.png","","","","negative"
"","","","","","html-slider-response","191","614284","0.0-187.0","9uuq3752h7","NaN","<div style=""width:500px;"">
                            <p style=""font-size:50px; font-weight:bold;""
                            >negative</p>
                            <div style=""width:240px; margin: auto;"">
                                <img src=""images/gray_20.png"" style= ""width:200px""alt=""img"">
                            </div>
                        </div>","130","","0","images/gray_20.png","","","","negative"
"","","","","","html-slider-response","192","616717","0.0-188.0","9uuq3752h7","NaN","<div style=""width:500px;"">
                            <p style=""font-size:50px; font-weight:bold;""
                            >negative</p>
                            <div style=""width:240px; margin: auto;"">
                                <img src=""images/gray_10.png"" style= ""width:200px""alt=""img"">
                            </div>
                        </div>","76","","0","images/gray_10.png","","","","negative"
"","","","","","html-slider-response","193","618469","0.0-189.0","9uuq3752h7","NaN","<div style=""width:500px;"">
                            <p style=""font-size:50px; font-weight:bold;""
                            >negative</p>
                            <div style=""width:240px; margin: auto;"">
                                <img src=""images/gray_08.png"" style= ""width:200px""alt=""img"">
                            </div>
                        </div>","25","","0","images/gray_08.png","","","","negative"
"","","","","","html-slider-response","194","620207","0.0-190.0","9uuq3752h7","NaN","<div style=""width:500px;"">
                            <p style=""font-size:50px; font-weight:bold;""
                            >negative</p>
                            <div style=""width:240px; margin: auto;"">
                                <img src=""images/gray_11.png"" style= ""width:200px""alt=""img"">
                            </div>
                        </div>","-114","","0","images/gray_11.png","","","","negative"
"","","","","","html-slider-response","195","622141","0.0-191.0","9uuq3752h7","NaN","<div style=""width:500px;"">
                            <p style=""font-size:50px; font-weight:bold;""
                            >negative</p>
                            <div style=""width:240px; margin: auto;"">
                                <img src=""images/gray_44.png"" style= ""width:200px""alt=""img"">
                            </div>
                        </div>","17","","0","images/gray_44.png","","","","negative"
"","","","","","html-slider-response","196","623757","0.0-192.0","9uuq3752h7","NaN","<div style=""width:500px;"">
                            <p style=""font-size:50px; font-weight:bold;""
                            >negative</p>
                            <div style=""width:240px; margin: auto;"">
                                <img src=""images/gray_38.png"" style= ""width:200px""alt=""img"">
                            </div>
                        </div>","-106","","0","images/gray_38.png","","","","negative"
"","","","","","html-slider-response","197","625666","0.0-193.0","9uuq3752h7","NaN","<div style=""width:500px;"">
                            <p style=""font-size:50px; font-weight:bold;""
                            >negative</p>
                            <div style=""width:240px; margin: auto;"">
                                <img src=""images/gray_15.png"" style= ""width:200px""alt=""img"">
                            </div>
                        </div>","-149","","0","images/gray_15.png","","","","negative"
"","","","","","html-slider-response","198","627471","0.0-194.0","9uuq3752h7","NaN","<div style=""width:500px;"">
                            <p style=""font-size:50px; font-weight:bold;""
                            >negative</p>
                            <div style=""width:240px; margin: auto;"">
                                <img src=""images/gray_40.png"" style= ""width:200px""alt=""img"">
                            </div>
                        </div>","-14","","0","images/gray_40.png","","","","negative"
