"success","timeout","failed_images","failed_audio","failed_video","trial_type","trial_index","time_elapsed","internal_node_id","subject_id","rt","stimulus","response","question_order","slider_start","image_path","practiceTrial","practiceTrialNum","correct","concept"
"true","false","[]","[]","[]","preload","0","3199","0.0-0.0","a341nnssqg","","","","","","","","","",""
"","","","","","html-button-response","1","916636","0.0-1.0","a341nnssqg","913438","Welcome to our experiment!<p>At the bottom of this screen, you will see a button that says ""Begin Experiment"".<br>Please only click that button when you are ready to complete the 25 minute experiment in one sitting.</p><p> Once you click that button, it will not be possible to restart the experiment.","0","","","","","","",""
"true","","","","","fullscreen","2","920650","0.0-2.0","a341nnssqg","3009","","","","","","","","",""
"","","","","","survey-multi-select","3","948620","0.0-3.0","a341nnssqg","27965","","{""Consent"":[""<strong>I consent</strong>""]}","[0]","","","","","",""
"","","","","","html-button-response","4","952654","0.0-4.0","a341nnssqg","4033","Welcome! <p> This experiment involves two parts: demographic information, followed by the experimental task.<p> It will take about 25 minutes to complete both parts.","0","","","","","","",""
"","","","","","survey-text","5","985185","0.0-5.0","a341nnssqg","32515","","{""Age"":""19"",""Gender"":""Female"",""Race/ethnicity"":""White"",""Languages"":""Greek \nEnglish""}","","","","","","",""
"","","","","","html-slider-response","6","1073644","0.0-6.0","a341nnssqg","88457","
            <div style='text-align:left; font-size:20px; line-height:25px; width: 1200px;'>
                During this experiment you will be asked to rate how much you associate maps with    different concepts.<br> Below, you can see some examples of the maps you will be asked to rate. Next to the maps
    is the list of concepts.<br>You will be asked    to rate how much you associate each map with each concept on a scale from 'not at all' to 'very much' like the
    one below. <br><br>
    Now, please look at the list of concepts and maps. For each concept, think about the map you associate 'very
    much' with the concept.<br>     When you see that map during the experiment, please rate it near the 'very much' endpoint of the
    scale.<br>Now, please think about which map you associate 'not at all'     with each concept. When you see that map during the experiment, please rate it near the 'not at all' endpoint
    of the scale.<br>
    Please use the full range of the scale. That is, if a map is somewhat associated with the concept, you would
    click partway between the middle point and right side of the scale.    You will be asked to rate each map for a given concept before moving on to the next concept.<br><br>Press the
    'Continue' button for instructions on how to use the slider.    <br><br>
</div>

<div style=""width: 500px; margin: 0 auto;"">
    <div style=""text-align: left; width: 200px; float: left;"">
        <p style=""font-size:25px; line-height:18px;"">calm</p>
        <p style=""font-size:25px; line-height:18px;"">exciting</p>
        <p style=""font-size:25px;line-height:18px;"">positive</p>
        <p style=""font-size:25px;line-height:18px;"">negative</p>
        <p style=""font-size:25px;line-height:18px;"">serious</p>
        <p style=""font-size:25px;line-height:18px;"">playful</p>
        <p style=""font-size:25px;line-height:18px;"">trustworthy</p>
        <p style=""font-size:25px;line-height:18px;"">disturbing</p>
    </div>
    <div style=""width: 200px; float: right; padding-top:15px; padding-right:40px"">
        <br>
        <br>
        <img src=""maps_anchoring.png"" alt=""img"" style=""max-width:500px"">
    </div>
    <div style=""clear: both;""></div>
</div>
            ","null","","0","maps_anchoring.png","true","","",""
"","","","","","html-button-response","7","1079918","0.0-7.0","a341nnssqg","6272","<div style=""width:800px;""><p style=""text-align:left"">To move the slider, click and drag your cursor to the location of the scale where you would like to make your rating and then let go. When you let go of the slider, your response will be recorded and the next trial will begin. <br>
            We are interested in your initial impressions of each map for the given concept, so please go with your first intuition. <br>
            Before you begin the experiment, there will be four training trials for you to practice using the scale. <br>
             When you are ready to start the training trials, please click ""Continue"".</p><br></div>","0","","","","","","",""
"","","","","","html-slider-response","8","1083940","0.0-8.0-0.0","a341nnssqg","NaN","<div style=""width:500px;"">
                            <p style=""font-size:25px;"">Please move the slider all the way to the <br> right endpoint of the scale</p>

                            </div>
                        </div>","200","","0","","true","0","true",""
"","","","","","html-button-response","9","1085784","0.0-8.0-1.0","a341nnssqg","1341","<p align='center'><b>Good job!</b> Click on 'Continue' to proceed.</p>","0","","","","","","",""
"","","","","","html-slider-response","10","1087654","0.0-9.0-0.0","a341nnssqg","NaN","<div style=""width:500px;"">
                            <p style=""font-size:25px;"">Please move the slider all the way to the <br> left endpoint of the scale</p>

                            </div>
                        </div>","-200","","0","","true","1","true",""
"","","","","","html-button-response","11","1089281","0.0-9.0-1.0","a341nnssqg","1125","<p align='center'><b>Good job!</b> Click on 'Continue' to proceed.</p>","0","","","","","","",""
"","","","","","html-slider-response","12","1094051","0.0-10.0-0.0","a341nnssqg","NaN","<div style=""width:500px;"">
                            <p style=""font-size:25px;"">Please move the slider halfway between the center and right endpoint of the scale</p>

                            </div>
                        </div>","99","","0","","true","2","true",""
"","","","","","html-button-response","13","1095390","0.0-10.0-1.0","a341nnssqg","836","<p align='center'><b>Good job!</b> Click on 'Continue' to proceed.</p>","0","","","","","","",""
"","","","","","html-slider-response","14","1098354","0.0-11.0-0.0","a341nnssqg","NaN","<div style=""width:500px;"">
                            <p style=""font-size:25px;"">Please move the slider halfway between the center and left endpoint of the scale</p>

                            </div>
                        </div>","-107","","0","","true","3","true",""
"","","","","","html-button-response","15","1099666","0.0-11.0-1.0","a341nnssqg","811","<p align='center'><b>Good job!</b> Click on 'Continue' to proceed.</p>","0","","","","","","",""
"","","","","","html-button-response","16","1101263","0.0-12.0","a341nnssqg","1595","<p>Great job! You've completed the practice trials. Now you will begin the main task.</p>","0","","","","","","",""
"","","","","","html-button-response","17","1105347","0.0-13.0","a341nnssqg","4082","<p>In this block of trials, you will be asked to rate how much you associate each map with:</p > <p style = 'font-size:150%; font-weight: bold'>exciting</p><br></br>","0","","","","","","",""
"","","","","","html-slider-response","18","1107708","0.0-14.0","a341nnssqg","NaN","<div style=""width:500px;"">
                            <p style=""font-size:50px; font-weight:bold;""
                            >exciting</p>
                            <div style=""width:240px; margin: auto;"">
                                <img src=""images/gray_07.png"" style= ""width:200px""alt=""img"">
                            </div>
                        </div>","-200","","0","images/gray_07.png","","","","exciting"
"","","","","","html-slider-response","19","1110837","0.0-15.0","a341nnssqg","NaN","<div style=""width:500px;"">
                            <p style=""font-size:50px; font-weight:bold;""
                            >exciting</p>
                            <div style=""width:240px; margin: auto;"">
                                <img src=""images/gray_37.png"" style= ""width:200px""alt=""img"">
                            </div>
                        </div>","-200","","0","images/gray_37.png","","","","exciting"
"","","","","","html-slider-response","20","1113180","0.0-16.0","a341nnssqg","NaN","<div style=""width:500px;"">
                            <p style=""font-size:50px; font-weight:bold;""
                            >exciting</p>
                            <div style=""width:240px; margin: auto;"">
                                <img src=""images/gray_26.png"" style= ""width:200px""alt=""img"">
                            </div>
                        </div>","-200","","0","images/gray_26.png","","","","exciting"
"","","","","","html-slider-response","21","1115379","0.0-17.0","a341nnssqg","NaN","<div style=""width:500px;"">
                            <p style=""font-size:50px; font-weight:bold;""
                            >exciting</p>
                            <div style=""width:240px; margin: auto;"">
                                <img src=""images/gray_34.png"" style= ""width:200px""alt=""img"">
                            </div>
                        </div>","-200","","0","images/gray_34.png","","","","exciting"
"","","","","","html-slider-response","22","1117617","0.0-18.0","a341nnssqg","NaN","<div style=""width:500px;"">
                            <p style=""font-size:50px; font-weight:bold;""
                            >exciting</p>
                            <div style=""width:240px; margin: auto;"">
                                <img src=""images/gray_13.png"" style= ""width:200px""alt=""img"">
                            </div>
                        </div>","-200","","0","images/gray_13.png","","","","exciting"
"","","","","","html-slider-response","23","1119377","0.0-19.0","a341nnssqg","NaN","<div style=""width:500px;"">
                            <p style=""font-size:50px; font-weight:bold;""
                            >exciting</p>
                            <div style=""width:240px; margin: auto;"">
                                <img src=""images/gray_28.png"" style= ""width:200px""alt=""img"">
                            </div>
                        </div>","-200","","0","images/gray_28.png","","","","exciting"
"","","","","","html-slider-response","24","1121687","0.0-20.0","a341nnssqg","NaN","<div style=""width:500px;"">
                            <p style=""font-size:50px; font-weight:bold;""
                            >exciting</p>
                            <div style=""width:240px; margin: auto;"">
                                <img src=""images/gray_04.png"" style= ""width:200px""alt=""img"">
                            </div>
                        </div>","-200","","0","images/gray_04.png","","","","exciting"
"","","","","","html-slider-response","25","1123853","0.0-21.0","a341nnssqg","NaN","<div style=""width:500px;"">
                            <p style=""font-size:50px; font-weight:bold;""
                            >exciting</p>
                            <div style=""width:240px; margin: auto;"">
                                <img src=""images/gray_18.png"" style= ""width:200px""alt=""img"">
                            </div>
                        </div>","-200","","0","images/gray_18.png","","","","exciting"
"","","","","","html-slider-response","26","1126062","0.0-22.0","a341nnssqg","NaN","<div style=""width:500px;"">
                            <p style=""font-size:50px; font-weight:bold;""
                            >exciting</p>
                            <div style=""width:240px; margin: auto;"">
                                <img src=""images/gray_36.png"" style= ""width:200px""alt=""img"">
                            </div>
                        </div>","-200","","0","images/gray_36.png","","","","exciting"
"","","","","","html-slider-response","27","1128194","0.0-23.0","a341nnssqg","NaN","<div style=""width:500px;"">
                            <p style=""font-size:50px; font-weight:bold;""
                            >exciting</p>
                            <div style=""width:240px; margin: auto;"">
                                <img src=""images/gray_30.png"" style= ""width:200px""alt=""img"">
                            </div>
                        </div>","-200","","0","images/gray_30.png","","","","exciting"
"","","","","","html-slider-response","28","1130233","0.0-24.0","a341nnssqg","NaN","<div style=""width:500px;"">
                            <p style=""font-size:50px; font-weight:bold;""
                            >exciting</p>
                            <div style=""width:240px; margin: auto;"">
                                <img src=""images/gray_39.png"" style= ""width:200px""alt=""img"">
                            </div>
                        </div>","-200","","0","images/gray_39.png","","","","exciting"
"","","","","","html-slider-response","29","1132298","0.0-25.0","a341nnssqg","NaN","<div style=""width:500px;"">
                            <p style=""font-size:50px; font-weight:bold;""
                            >exciting</p>
                            <div style=""width:240px; margin: auto;"">
                                <img src=""images/gray_14.png"" style= ""width:200px""alt=""img"">
                            </div>
                        </div>","-200","","0","images/gray_14.png","","","","exciting"
"","","","","","html-slider-response","30","1134270","0.0-26.0","a341nnssqg","NaN","<div style=""width:500px;"">
                            <p style=""font-size:50px; font-weight:bold;""
                            >exciting</p>
                            <div style=""width:240px; margin: auto;"">
                                <img src=""images/gray_12.png"" style= ""width:200px""alt=""img"">
                            </div>
                        </div>","-200","","0","images/gray_12.png","","","","exciting"
"","","","","","html-slider-response","31","1136285","0.0-27.0","a341nnssqg","NaN","<div style=""width:500px;"">
                            <p style=""font-size:50px; font-weight:bold;""
                            >exciting</p>
                            <div style=""width:240px; margin: auto;"">
                                <img src=""images/gray_27.png"" style= ""width:200px""alt=""img"">
                            </div>
                        </div>","-200","","0","images/gray_27.png","","","","exciting"
"","","","","","html-slider-response","32","1138829","0.0-28.0","a341nnssqg","NaN","<div style=""width:500px;"">
                            <p style=""font-size:50px; font-weight:bold;""
                            >exciting</p>
                            <div style=""width:240px; margin: auto;"">
                                <img src=""images/gray_01.png"" style= ""width:200px""alt=""img"">
                            </div>
                        </div>","-200","","0","images/gray_01.png","","","","exciting"
"","","","","","html-slider-response","33","1140890","0.0-29.0","a341nnssqg","NaN","<div style=""width:500px;"">
                            <p style=""font-size:50px; font-weight:bold;""
                            >exciting</p>
                            <div style=""width:240px; margin: auto;"">
                                <img src=""images/gray_15.png"" style= ""width:200px""alt=""img"">
                            </div>
                        </div>","-200","","0","images/gray_15.png","","","","exciting"
"","","","","","html-slider-response","34","1142771","0.0-30.0","a341nnssqg","NaN","<div style=""width:500px;"">
                            <p style=""font-size:50px; font-weight:bold;""
                            >exciting</p>
                            <div style=""width:240px; margin: auto;"">
                                <img src=""images/gray_24.png"" style= ""width:200px""alt=""img"">
                            </div>
                        </div>","-200","","0","images/gray_24.png","","","","exciting"
"","","","","","html-slider-response","35","1144552","0.0-31.0","a341nnssqg","NaN","<div style=""width:500px;"">
                            <p style=""font-size:50px; font-weight:bold;""
                            >exciting</p>
                            <div style=""width:240px; margin: auto;"">
                                <img src=""images/gray_06.png"" style= ""width:200px""alt=""img"">
                            </div>
                        </div>","-200","","0","images/gray_06.png","","","","exciting"
"","","","","","html-slider-response","36","1146877","0.0-32.0","a341nnssqg","NaN","<div style=""width:500px;"">
                            <p style=""font-size:50px; font-weight:bold;""
                            >exciting</p>
                            <div style=""width:240px; margin: auto;"">
                                <img src=""images/gray_35.png"" style= ""width:200px""alt=""img"">
                            </div>
                        </div>","-198","","0","images/gray_35.png","","","","exciting"
"","","","","","html-slider-response","37","1149688","0.0-33.0","a341nnssqg","NaN","<div style=""width:500px;"">
                            <p style=""font-size:50px; font-weight:bold;""
                            >exciting</p>
                            <div style=""width:240px; margin: auto;"">
                                <img src=""images/gray_20.png"" style= ""width:200px""alt=""img"">
                            </div>
                        </div>","-200","","0","images/gray_20.png","","","","exciting"
"","","","","","html-slider-response","38","1151468","0.0-34.0","a341nnssqg","NaN","<div style=""width:500px;"">
                            <p style=""font-size:50px; font-weight:bold;""
                            >exciting</p>
                            <div style=""width:240px; margin: auto;"">
                                <img src=""images/gray_21.png"" style= ""width:200px""alt=""img"">
                            </div>
                        </div>","-200","","0","images/gray_21.png","","","","exciting"
"","","","","","html-slider-response","39","1153202","0.0-35.0","a341nnssqg","NaN","<div style=""width:500px;"">
                            <p style=""font-size:50px; font-weight:bold;""
                            >exciting</p>
                            <div style=""width:240px; margin: auto;"">
                                <img src=""images/gray_16.png"" style= ""width:200px""alt=""img"">
                            </div>
                        </div>","-200","","0","images/gray_16.png","","","","exciting"
"","","","","","html-slider-response","40","1155071","0.0-36.0","a341nnssqg","NaN","<div style=""width:500px;"">
                            <p style=""font-size:50px; font-weight:bold;""
                            >exciting</p>
                            <div style=""width:240px; margin: auto;"">
                                <img src=""images/gray_40.png"" style= ""width:200px""alt=""img"">
                            </div>
                        </div>","-200","","0","images/gray_40.png","","","","exciting"
"","","","","","html-slider-response","41","1157321","0.0-37.0","a341nnssqg","NaN","<div style=""width:500px;"">
                            <p style=""font-size:50px; font-weight:bold;""
                            >exciting</p>
                            <div style=""width:240px; margin: auto;"">
                                <img src=""images/gray_23.png"" style= ""width:200px""alt=""img"">
                            </div>
                        </div>","-200","","0","images/gray_23.png","","","","exciting"
"","","","","","html-slider-response","42","1159165","0.0-38.0","a341nnssqg","NaN","<div style=""width:500px;"">
                            <p style=""font-size:50px; font-weight:bold;""
                            >exciting</p>
                            <div style=""width:240px; margin: auto;"">
                                <img src=""images/gray_11.png"" style= ""width:200px""alt=""img"">
                            </div>
                        </div>","-200","","0","images/gray_11.png","","","","exciting"
"","","","","","html-slider-response","43","1161065","0.0-39.0","a341nnssqg","NaN","<div style=""width:500px;"">
                            <p style=""font-size:50px; font-weight:bold;""
                            >exciting</p>
                            <div style=""width:240px; margin: auto;"">
                                <img src=""images/gray_44.png"" style= ""width:200px""alt=""img"">
                            </div>
                        </div>","-200","","0","images/gray_44.png","","","","exciting"
"","","","","","html-slider-response","44","1163932","0.0-40.0","a341nnssqg","NaN","<div style=""width:500px;"">
                            <p style=""font-size:50px; font-weight:bold;""
                            >exciting</p>
                            <div style=""width:240px; margin: auto;"">
                                <img src=""images/gray_17.png"" style= ""width:200px""alt=""img"">
                            </div>
                        </div>","-200","","0","images/gray_17.png","","","","exciting"
"","","","","","html-slider-response","45","1166212","0.0-41.0","a341nnssqg","NaN","<div style=""width:500px;"">
                            <p style=""font-size:50px; font-weight:bold;""
                            >exciting</p>
                            <div style=""width:240px; margin: auto;"">
                                <img src=""images/gray_29.png"" style= ""width:200px""alt=""img"">
                            </div>
                        </div>","-200","","0","images/gray_29.png","","","","exciting"
"","","","","","html-slider-response","46","1167889","0.0-42.0","a341nnssqg","NaN","<div style=""width:500px;"">
                            <p style=""font-size:50px; font-weight:bold;""
                            >exciting</p>
                            <div style=""width:240px; margin: auto;"">
                                <img src=""images/gray_38.png"" style= ""width:200px""alt=""img"">
                            </div>
                        </div>","-200","","0","images/gray_38.png","","","","exciting"
"","","","","","html-slider-response","47","1169798","0.0-43.0","a341nnssqg","NaN","<div style=""width:500px;"">
                            <p style=""font-size:50px; font-weight:bold;""
                            >exciting</p>
                            <div style=""width:240px; margin: auto;"">
                                <img src=""images/gray_33.png"" style= ""width:200px""alt=""img"">
                            </div>
                        </div>","-200","","0","images/gray_33.png","","","","exciting"
"","","","","","html-slider-response","48","1171918","0.0-44.0","a341nnssqg","NaN","<div style=""width:500px;"">
                            <p style=""font-size:50px; font-weight:bold;""
                            >exciting</p>
                            <div style=""width:240px; margin: auto;"">
                                <img src=""images/gray_32.png"" style= ""width:200px""alt=""img"">
                            </div>
                        </div>","-200","","0","images/gray_32.png","","","","exciting"
"","","","","","html-slider-response","49","1174147","0.0-45.0","a341nnssqg","NaN","<div style=""width:500px;"">
                            <p style=""font-size:50px; font-weight:bold;""
                            >exciting</p>
                            <div style=""width:240px; margin: auto;"">
                                <img src=""images/gray_31.png"" style= ""width:200px""alt=""img"">
                            </div>
                        </div>","-200","","0","images/gray_31.png","","","","exciting"
"","","","","","html-slider-response","50","1177727","0.0-46.0","a341nnssqg","NaN","<div style=""width:500px;"">
                            <p style=""font-size:50px; font-weight:bold;""
                            >exciting</p>
                            <div style=""width:240px; margin: auto;"">
                                <img src=""images/gray_05.png"" style= ""width:200px""alt=""img"">
                            </div>
                        </div>","-200","","0","images/gray_05.png","","","","exciting"
"","","","","","html-slider-response","51","1192093","0.0-47.0","a341nnssqg","NaN","<div style=""width:500px;"">
                            <p style=""font-size:50px; font-weight:bold;""
                            >exciting</p>
                            <div style=""width:240px; margin: auto;"">
                                <img src=""images/gray_42.png"" style= ""width:200px""alt=""img"">
                            </div>
                        </div>","-200","","0","images/gray_42.png","","","","exciting"
"","","","","","html-slider-response","52","1194251","0.0-48.0","a341nnssqg","NaN","<div style=""width:500px;"">
                            <p style=""font-size:50px; font-weight:bold;""
                            >exciting</p>
                            <div style=""width:240px; margin: auto;"">
                                <img src=""images/gray_19.png"" style= ""width:200px""alt=""img"">
                            </div>
                        </div>","-200","","0","images/gray_19.png","","","","exciting"
"","","","","","html-slider-response","53","1197117","0.0-49.0","a341nnssqg","NaN","<div style=""width:500px;"">
                            <p style=""font-size:50px; font-weight:bold;""
                            >exciting</p>
                            <div style=""width:240px; margin: auto;"">
                                <img src=""images/gray_41.png"" style= ""width:200px""alt=""img"">
                            </div>
                        </div>","-200","","0","images/gray_41.png","","","","exciting"
"","","","","","html-slider-response","54","1202687","0.0-50.0","a341nnssqg","NaN","<div style=""width:500px;"">
                            <p style=""font-size:50px; font-weight:bold;""
                            >exciting</p>
                            <div style=""width:240px; margin: auto;"">
                                <img src=""images/gray_08.png"" style= ""width:200px""alt=""img"">
                            </div>
                        </div>","-200","","0","images/gray_08.png","","","","exciting"
"","","","","","html-slider-response","55","1207318","0.0-51.0","a341nnssqg","NaN","<div style=""width:500px;"">
                            <p style=""font-size:50px; font-weight:bold;""
                            >exciting</p>
                            <div style=""width:240px; margin: auto;"">
                                <img src=""images/gray_02.png"" style= ""width:200px""alt=""img"">
                            </div>
                        </div>","-200","","0","images/gray_02.png","","","","exciting"
"","","","","","html-slider-response","56","1225060","0.0-52.0","a341nnssqg","NaN","<div style=""width:500px;"">
                            <p style=""font-size:50px; font-weight:bold;""
                            >exciting</p>
                            <div style=""width:240px; margin: auto;"">
                                <img src=""images/gray_43.png"" style= ""width:200px""alt=""img"">
                            </div>
                        </div>","-200","","0","images/gray_43.png","","","","exciting"
"","","","","","html-slider-response","57","1226897","0.0-53.0","a341nnssqg","NaN","<div style=""width:500px;"">
                            <p style=""font-size:50px; font-weight:bold;""
                            >exciting</p>
                            <div style=""width:240px; margin: auto;"">
                                <img src=""images/gray_03.png"" style= ""width:200px""alt=""img"">
                            </div>
                        </div>","-200","","0","images/gray_03.png","","","","exciting"
"","","","","","html-slider-response","58","1228825","0.0-54.0","a341nnssqg","NaN","<div style=""width:500px;"">
                            <p style=""font-size:50px; font-weight:bold;""
                            >exciting</p>
                            <div style=""width:240px; margin: auto;"">
                                <img src=""images/gray_22.png"" style= ""width:200px""alt=""img"">
                            </div>
                        </div>","-200","","0","images/gray_22.png","","","","exciting"
"","","","","","html-slider-response","59","1230719","0.0-55.0","a341nnssqg","NaN","<div style=""width:500px;"">
                            <p style=""font-size:50px; font-weight:bold;""
                            >exciting</p>
                            <div style=""width:240px; margin: auto;"">
                                <img src=""images/gray_10.png"" style= ""width:200px""alt=""img"">
                            </div>
                        </div>","-200","","0","images/gray_10.png","","","","exciting"
"","","","","","html-slider-response","60","1232515","0.0-56.0","a341nnssqg","NaN","<div style=""width:500px;"">
                            <p style=""font-size:50px; font-weight:bold;""
                            >exciting</p>
                            <div style=""width:240px; margin: auto;"">
                                <img src=""images/gray_09.png"" style= ""width:200px""alt=""img"">
                            </div>
                        </div>","-200","","0","images/gray_09.png","","","","exciting"
"","","","","","html-slider-response","61","1234258","0.0-57.0","a341nnssqg","NaN","<div style=""width:500px;"">
                            <p style=""font-size:50px; font-weight:bold;""
                            >exciting</p>
                            <div style=""width:240px; margin: auto;"">
                                <img src=""images/gray_25.png"" style= ""width:200px""alt=""img"">
                            </div>
                        </div>","-200","","0","images/gray_25.png","","","","exciting"
"","","","","","html-button-response","62","1238347","0.0-58.0","a341nnssqg","3587","<p>Great Job! You've finished block 1.<br></br> You have 7 block(s) left to go.<br></br></p>","0","","","","","","",""
"","","","","","html-button-response","63","1240098","0.0-59.0","a341nnssqg","1749","<p>In this block of trials, you will be asked to rate how much you associate each map with:</p > <p style = 'font-size:150%; font-weight: bold'>playful</p><br></br>","0","","","","","","",""
"","","","","","html-slider-response","64","1242162","0.0-60.0","a341nnssqg","NaN","<div style=""width:500px;"">
                            <p style=""font-size:50px; font-weight:bold;""
                            >playful</p>
                            <div style=""width:240px; margin: auto;"">
                                <img src=""images/gray_07.png"" style= ""width:200px""alt=""img"">
                            </div>
                        </div>","-200","","0","images/gray_07.png","","","","playful"
"","","","","","html-slider-response","65","1243775","0.0-61.0","a341nnssqg","NaN","<div style=""width:500px;"">
                            <p style=""font-size:50px; font-weight:bold;""
                            >playful</p>
                            <div style=""width:240px; margin: auto;"">
                                <img src=""images/gray_32.png"" style= ""width:200px""alt=""img"">
                            </div>
                        </div>","-200","","0","images/gray_32.png","","","","playful"
"","","","","","html-slider-response","66","1245395","0.0-62.0","a341nnssqg","NaN","<div style=""width:500px;"">
                            <p style=""font-size:50px; font-weight:bold;""
                            >playful</p>
                            <div style=""width:240px; margin: auto;"">
                                <img src=""images/gray_41.png"" style= ""width:200px""alt=""img"">
                            </div>
                        </div>","-200","","0","images/gray_41.png","","","","playful"
"","","","","","html-slider-response","67","1247202","0.0-63.0","a341nnssqg","NaN","<div style=""width:500px;"">
                            <p style=""font-size:50px; font-weight:bold;""
                            >playful</p>
                            <div style=""width:240px; margin: auto;"">
                                <img src=""images/gray_02.png"" style= ""width:200px""alt=""img"">
                            </div>
                        </div>","-200","","0","images/gray_02.png","","","","playful"
"","","","","","html-slider-response","68","1249041","0.0-64.0","a341nnssqg","NaN","<div style=""width:500px;"">
                            <p style=""font-size:50px; font-weight:bold;""
                            >playful</p>
                            <div style=""width:240px; margin: auto;"">
                                <img src=""images/gray_28.png"" style= ""width:200px""alt=""img"">
                            </div>
                        </div>","-200","","0","images/gray_28.png","","","","playful"
"","","","","","html-slider-response","69","1251173","0.0-65.0","a341nnssqg","NaN","<div style=""width:500px;"">
                            <p style=""font-size:50px; font-weight:bold;""
                            >playful</p>
                            <div style=""width:240px; margin: auto;"">
                                <img src=""images/gray_25.png"" style= ""width:200px""alt=""img"">
                            </div>
                        </div>","-200","","0","images/gray_25.png","","","","playful"
"","","","","","html-slider-response","70","1253011","0.0-66.0","a341nnssqg","NaN","<div style=""width:500px;"">
                            <p style=""font-size:50px; font-weight:bold;""
                            >playful</p>
                            <div style=""width:240px; margin: auto;"">
                                <img src=""images/gray_42.png"" style= ""width:200px""alt=""img"">
                            </div>
                        </div>","-200","","0","images/gray_42.png","","","","playful"
"","","","","","html-slider-response","71","1254778","0.0-67.0","a341nnssqg","NaN","<div style=""width:500px;"">
                            <p style=""font-size:50px; font-weight:bold;""
                            >playful</p>
                            <div style=""width:240px; margin: auto;"">
                                <img src=""images/gray_13.png"" style= ""width:200px""alt=""img"">
                            </div>
                        </div>","-200","","0","images/gray_13.png","","","","playful"
"","","","","","html-slider-response","72","1256533","0.0-68.0","a341nnssqg","NaN","<div style=""width:500px;"">
                            <p style=""font-size:50px; font-weight:bold;""
                            >playful</p>
                            <div style=""width:240px; margin: auto;"">
                                <img src=""images/gray_33.png"" style= ""width:200px""alt=""img"">
                            </div>
                        </div>","-196","","0","images/gray_33.png","","","","playful"
"","","","","","html-slider-response","73","1258309","0.0-69.0","a341nnssqg","NaN","<div style=""width:500px;"">
                            <p style=""font-size:50px; font-weight:bold;""
                            >playful</p>
                            <div style=""width:240px; margin: auto;"">
                                <img src=""images/gray_36.png"" style= ""width:200px""alt=""img"">
                            </div>
                        </div>","-200","","0","images/gray_36.png","","","","playful"
"","","","","","html-slider-response","74","1260178","0.0-70.0","a341nnssqg","NaN","<div style=""width:500px;"">
                            <p style=""font-size:50px; font-weight:bold;""
                            >playful</p>
                            <div style=""width:240px; margin: auto;"">
                                <img src=""images/gray_08.png"" style= ""width:200px""alt=""img"">
                            </div>
                        </div>","-200","","0","images/gray_08.png","","","","playful"
"","","","","","html-slider-response","75","1266737","0.0-71.0","a341nnssqg","NaN","<div style=""width:500px;"">
                            <p style=""font-size:50px; font-weight:bold;""
                            >playful</p>
                            <div style=""width:240px; margin: auto;"">
                                <img src=""images/gray_21.png"" style= ""width:200px""alt=""img"">
                            </div>
                        </div>","-200","","0","images/gray_21.png","","","","playful"
"","","","","","html-slider-response","76","1268624","0.0-72.0","a341nnssqg","NaN","<div style=""width:500px;"">
                            <p style=""font-size:50px; font-weight:bold;""
                            >playful</p>
                            <div style=""width:240px; margin: auto;"">
                                <img src=""images/gray_15.png"" style= ""width:200px""alt=""img"">
                            </div>
                        </div>","-200","","0","images/gray_15.png","","","","playful"
"","","","","","html-slider-response","77","1270949","0.0-73.0","a341nnssqg","NaN","<div style=""width:500px;"">
                            <p style=""font-size:50px; font-weight:bold;""
                            >playful</p>
                            <div style=""width:240px; margin: auto;"">
                                <img src=""images/gray_16.png"" style= ""width:200px""alt=""img"">
                            </div>
                        </div>","-200","","0","images/gray_16.png","","","","playful"
"","","","","","html-slider-response","78","1272523","0.0-74.0","a341nnssqg","NaN","<div style=""width:500px;"">
                            <p style=""font-size:50px; font-weight:bold;""
                            >playful</p>
                            <div style=""width:240px; margin: auto;"">
                                <img src=""images/gray_22.png"" style= ""width:200px""alt=""img"">
                            </div>
                        </div>","-200","","0","images/gray_22.png","","","","playful"
"","","","","","html-slider-response","79","1274088","0.0-75.0","a341nnssqg","NaN","<div style=""width:500px;"">
                            <p style=""font-size:50px; font-weight:bold;""
                            >playful</p>
                            <div style=""width:240px; margin: auto;"">
                                <img src=""images/gray_27.png"" style= ""width:200px""alt=""img"">
                            </div>
                        </div>","-200","","0","images/gray_27.png","","","","playful"
"","","","","","html-slider-response","80","1275790","0.0-76.0","a341nnssqg","NaN","<div style=""width:500px;"">
                            <p style=""font-size:50px; font-weight:bold;""
                            >playful</p>
                            <div style=""width:240px; margin: auto;"">
                                <img src=""images/gray_06.png"" style= ""width:200px""alt=""img"">
                            </div>
                        </div>","-200","","0","images/gray_06.png","","","","playful"
"","","","","","html-slider-response","81","1277492","0.0-77.0","a341nnssqg","NaN","<div style=""width:500px;"">
                            <p style=""font-size:50px; font-weight:bold;""
                            >playful</p>
                            <div style=""width:240px; margin: auto;"">
                                <img src=""images/gray_26.png"" style= ""width:200px""alt=""img"">
                            </div>
                        </div>","-200","","0","images/gray_26.png","","","","playful"
"","","","","","html-slider-response","82","1279443","0.0-78.0","a341nnssqg","NaN","<div style=""width:500px;"">
                            <p style=""font-size:50px; font-weight:bold;""
                            >playful</p>
                            <div style=""width:240px; margin: auto;"">
                                <img src=""images/gray_05.png"" style= ""width:200px""alt=""img"">
                            </div>
                        </div>","-200","","0","images/gray_05.png","","","","playful"
"","","","","","html-slider-response","83","1280932","0.0-79.0","a341nnssqg","NaN","<div style=""width:500px;"">
                            <p style=""font-size:50px; font-weight:bold;""
                            >playful</p>
                            <div style=""width:240px; margin: auto;"">
                                <img src=""images/gray_35.png"" style= ""width:200px""alt=""img"">
                            </div>
                        </div>","-192","","0","images/gray_35.png","","","","playful"
"","","","","","html-slider-response","84","1282426","0.0-80.0","a341nnssqg","NaN","<div style=""width:500px;"">
                            <p style=""font-size:50px; font-weight:bold;""
                            >playful</p>
                            <div style=""width:240px; margin: auto;"">
                                <img src=""images/gray_40.png"" style= ""width:200px""alt=""img"">
                            </div>
                        </div>","-194","","0","images/gray_40.png","","","","playful"
"","","","","","html-slider-response","85","1283532","0.0-81.0","a341nnssqg","NaN","<div style=""width:500px;"">
                            <p style=""font-size:50px; font-weight:bold;""
                            >playful</p>
                            <div style=""width:240px; margin: auto;"">
                                <img src=""images/gray_09.png"" style= ""width:200px""alt=""img"">
                            </div>
                        </div>","-194","","0","images/gray_09.png","","","","playful"
"","","","","","html-slider-response","86","1284432","0.0-82.0","a341nnssqg","NaN","<div style=""width:500px;"">
                            <p style=""font-size:50px; font-weight:bold;""
                            >playful</p>
                            <div style=""width:240px; margin: auto;"">
                                <img src=""images/gray_43.png"" style= ""width:200px""alt=""img"">
                            </div>
                        </div>","-194","","0","images/gray_43.png","","","","playful"
"","","","","","html-slider-response","87","1285370","0.0-83.0","a341nnssqg","NaN","<div style=""width:500px;"">
                            <p style=""font-size:50px; font-weight:bold;""
                            >playful</p>
                            <div style=""width:240px; margin: auto;"">
                                <img src=""images/gray_18.png"" style= ""width:200px""alt=""img"">
                            </div>
                        </div>","-194","","0","images/gray_18.png","","","","playful"
"","","","","","html-slider-response","88","1286334","0.0-84.0","a341nnssqg","NaN","<div style=""width:500px;"">
                            <p style=""font-size:50px; font-weight:bold;""
                            >playful</p>
                            <div style=""width:240px; margin: auto;"">
                                <img src=""images/gray_17.png"" style= ""width:200px""alt=""img"">
                            </div>
                        </div>","-194","","0","images/gray_17.png","","","","playful"
"","","","","","html-slider-response","89","1287433","0.0-85.0","a341nnssqg","NaN","<div style=""width:500px;"">
                            <p style=""font-size:50px; font-weight:bold;""
                            >playful</p>
                            <div style=""width:240px; margin: auto;"">
                                <img src=""images/gray_39.png"" style= ""width:200px""alt=""img"">
                            </div>
                        </div>","-198","","0","images/gray_39.png","","","","playful"
"","","","","","html-slider-response","90","1288396","0.0-86.0","a341nnssqg","NaN","<div style=""width:500px;"">
                            <p style=""font-size:50px; font-weight:bold;""
                            >playful</p>
                            <div style=""width:240px; margin: auto;"">
                                <img src=""images/gray_04.png"" style= ""width:200px""alt=""img"">
                            </div>
                        </div>","-198","","0","images/gray_04.png","","","","playful"
"","","","","","html-slider-response","91","1289351","0.0-87.0","a341nnssqg","NaN","<div style=""width:500px;"">
                            <p style=""font-size:50px; font-weight:bold;""
                            >playful</p>
                            <div style=""width:240px; margin: auto;"">
                                <img src=""images/gray_12.png"" style= ""width:200px""alt=""img"">
                            </div>
                        </div>","-198","","0","images/gray_12.png","","","","playful"
"","","","","","html-slider-response","92","1290211","0.0-88.0","a341nnssqg","NaN","<div style=""width:500px;"">
                            <p style=""font-size:50px; font-weight:bold;""
                            >playful</p>
                            <div style=""width:240px; margin: auto;"">
                                <img src=""images/gray_14.png"" style= ""width:200px""alt=""img"">
                            </div>
                        </div>","-198","","0","images/gray_14.png","","","","playful"
"","","","","","html-slider-response","93","1291101","0.0-89.0","a341nnssqg","NaN","<div style=""width:500px;"">
                            <p style=""font-size:50px; font-weight:bold;""
                            >playful</p>
                            <div style=""width:240px; margin: auto;"">
                                <img src=""images/gray_01.png"" style= ""width:200px""alt=""img"">
                            </div>
                        </div>","-198","","0","images/gray_01.png","","","","playful"
"","","","","","html-slider-response","94","1291976","0.0-90.0","a341nnssqg","NaN","<div style=""width:500px;"">
                            <p style=""font-size:50px; font-weight:bold;""
                            >playful</p>
                            <div style=""width:240px; margin: auto;"">
                                <img src=""images/gray_19.png"" style= ""width:200px""alt=""img"">
                            </div>
                        </div>","-198","","0","images/gray_19.png","","","","playful"
"","","","","","html-slider-response","95","1292850","0.0-91.0","a341nnssqg","NaN","<div style=""width:500px;"">
                            <p style=""font-size:50px; font-weight:bold;""
                            >playful</p>
                            <div style=""width:240px; margin: auto;"">
                                <img src=""images/gray_20.png"" style= ""width:200px""alt=""img"">
                            </div>
                        </div>","-198","","0","images/gray_20.png","","","","playful"
"","","","","","html-slider-response","96","1293742","0.0-92.0","a341nnssqg","NaN","<div style=""width:500px;"">
                            <p style=""font-size:50px; font-weight:bold;""
                            >playful</p>
                            <div style=""width:240px; margin: auto;"">
                                <img src=""images/gray_03.png"" style= ""width:200px""alt=""img"">
                            </div>
                        </div>","-198","","0","images/gray_03.png","","","","playful"
"","","","","","html-slider-response","97","1294648","0.0-93.0","a341nnssqg","NaN","<div style=""width:500px;"">
                            <p style=""font-size:50px; font-weight:bold;""
                            >playful</p>
                            <div style=""width:240px; margin: auto;"">
                                <img src=""images/gray_38.png"" style= ""width:200px""alt=""img"">
                            </div>
                        </div>","-198","","0","images/gray_38.png","","","","playful"
"","","","","","html-slider-response","98","1295563","0.0-94.0","a341nnssqg","NaN","<div style=""width:500px;"">
                            <p style=""font-size:50px; font-weight:bold;""
                            >playful</p>
                            <div style=""width:240px; margin: auto;"">
                                <img src=""images/gray_34.png"" style= ""width:200px""alt=""img"">
                            </div>
                        </div>","-198","","0","images/gray_34.png","","","","playful"
"","","","","","html-slider-response","99","1296559","0.0-95.0","a341nnssqg","NaN","<div style=""width:500px;"">
                            <p style=""font-size:50px; font-weight:bold;""
                            >playful</p>
                            <div style=""width:240px; margin: auto;"">
                                <img src=""images/gray_37.png"" style= ""width:200px""alt=""img"">
                            </div>
                        </div>","-198","","0","images/gray_37.png","","","","playful"
"","","","","","html-slider-response","100","1298613","0.0-96.0","a341nnssqg","NaN","<div style=""width:500px;"">
                            <p style=""font-size:50px; font-weight:bold;""
                            >playful</p>
                            <div style=""width:240px; margin: auto;"">
                                <img src=""images/gray_44.png"" style= ""width:200px""alt=""img"">
                            </div>
                        </div>","-198","","0","images/gray_44.png","","","","playful"
"","","","","","html-slider-response","101","1299865","0.0-97.0","a341nnssqg","NaN","<div style=""width:500px;"">
                            <p style=""font-size:50px; font-weight:bold;""
                            >playful</p>
                            <div style=""width:240px; margin: auto;"">
                                <img src=""images/gray_30.png"" style= ""width:200px""alt=""img"">
                            </div>
                        </div>","-198","","0","images/gray_30.png","","","","playful"
"","","","","","html-slider-response","102","1300723","0.0-98.0","a341nnssqg","NaN","<div style=""width:500px;"">
                            <p style=""font-size:50px; font-weight:bold;""
                            >playful</p>
                            <div style=""width:240px; margin: auto;"">
                                <img src=""images/gray_10.png"" style= ""width:200px""alt=""img"">
                            </div>
                        </div>","-198","","0","images/gray_10.png","","","","playful"
"","","","","","html-slider-response","103","1301502","0.0-99.0","a341nnssqg","NaN","<div style=""width:500px;"">
                            <p style=""font-size:50px; font-weight:bold;""
                            >playful</p>
                            <div style=""width:240px; margin: auto;"">
                                <img src=""images/gray_31.png"" style= ""width:200px""alt=""img"">
                            </div>
                        </div>","-198","","0","images/gray_31.png","","","","playful"
"","","","","","html-slider-response","104","1302441","0.0-100.0","a341nnssqg","NaN","<div style=""width:500px;"">
                            <p style=""font-size:50px; font-weight:bold;""
                            >playful</p>
                            <div style=""width:240px; margin: auto;"">
                                <img src=""images/gray_11.png"" style= ""width:200px""alt=""img"">
                            </div>
                        </div>","-198","","0","images/gray_11.png","","","","playful"
"","","","","","html-slider-response","105","1303155","0.0-101.0","a341nnssqg","NaN","<div style=""width:500px;"">
                            <p style=""font-size:50px; font-weight:bold;""
                            >playful</p>
                            <div style=""width:240px; margin: auto;"">
                                <img src=""images/gray_24.png"" style= ""width:200px""alt=""img"">
                            </div>
                        </div>","-198","","0","images/gray_24.png","","","","playful"
"","","","","","html-slider-response","106","1303990","0.0-102.0","a341nnssqg","NaN","<div style=""width:500px;"">
                            <p style=""font-size:50px; font-weight:bold;""
                            >playful</p>
                            <div style=""width:240px; margin: auto;"">
                                <img src=""images/gray_23.png"" style= ""width:200px""alt=""img"">
                            </div>
                        </div>","-198","","0","images/gray_23.png","","","","playful"
"","","","","","html-slider-response","107","1304848","0.0-103.0","a341nnssqg","NaN","<div style=""width:500px;"">
                            <p style=""font-size:50px; font-weight:bold;""
                            >playful</p>
                            <div style=""width:240px; margin: auto;"">
                                <img src=""images/gray_29.png"" style= ""width:200px""alt=""img"">
                            </div>
                        </div>","-198","","0","images/gray_29.png","","","","playful"
"","","","","","html-button-response","108","1307057","0.0-104.0","a341nnssqg","1705","<p>Great Job! You've finished block 2.<br></br> You have 6 block(s) left to go.<br></br></p>","0","","","","","","",""
"","","","","","html-button-response","109","1308977","0.0-105.0","a341nnssqg","1915","<p>In this block of trials, you will be asked to rate how much you associate each map with:</p > <p style = 'font-size:150%; font-weight: bold'>calm</p><br></br>","0","","","","","","",""
"","","","","","html-slider-response","110","1321541","0.0-106.0","a341nnssqg","NaN","<div style=""width:500px;"">
                            <p style=""font-size:50px; font-weight:bold;""
                            >calm</p>
                            <div style=""width:240px; margin: auto;"">
                                <img src=""images/gray_37.png"" style= ""width:200px""alt=""img"">
                            </div>
                        </div>","0","","0","images/gray_37.png","","","","calm"
"","","","","","html-slider-response","111","1323523","0.0-107.0","a341nnssqg","NaN","<div style=""width:500px;"">
                            <p style=""font-size:50px; font-weight:bold;""
                            >calm</p>
                            <div style=""width:240px; margin: auto;"">
                                <img src=""images/gray_32.png"" style= ""width:200px""alt=""img"">
                            </div>
                        </div>","0","","0","images/gray_32.png","","","","calm"
"","","","","","html-slider-response","112","1327215","0.0-108.0","a341nnssqg","NaN","<div style=""width:500px;"">
                            <p style=""font-size:50px; font-weight:bold;""
                            >calm</p>
                            <div style=""width:240px; margin: auto;"">
                                <img src=""images/gray_21.png"" style= ""width:200px""alt=""img"">
                            </div>
                        </div>","-59","","0","images/gray_21.png","","","","calm"
"","","","","","html-slider-response","113","1329969","0.0-109.0","a341nnssqg","NaN","<div style=""width:500px;"">
                            <p style=""font-size:50px; font-weight:bold;""
                            >calm</p>
                            <div style=""width:240px; margin: auto;"">
                                <img src=""images/gray_17.png"" style= ""width:200px""alt=""img"">
                            </div>
                        </div>","-98","","0","images/gray_17.png","","","","calm"
"","","","","","html-slider-response","114","1332857","0.0-110.0","a341nnssqg","NaN","<div style=""width:500px;"">
                            <p style=""font-size:50px; font-weight:bold;""
                            >calm</p>
                            <div style=""width:240px; margin: auto;"">
                                <img src=""images/gray_08.png"" style= ""width:200px""alt=""img"">
                            </div>
                        </div>","-98","","0","images/gray_08.png","","","","calm"
"","","","","","html-slider-response","115","1334318","0.0-111.0","a341nnssqg","NaN","<div style=""width:500px;"">
                            <p style=""font-size:50px; font-weight:bold;""
                            >calm</p>
                            <div style=""width:240px; margin: auto;"">
                                <img src=""images/gray_35.png"" style= ""width:200px""alt=""img"">
                            </div>
                        </div>","-98","","0","images/gray_35.png","","","","calm"
"","","","","","html-slider-response","116","1335459","0.0-112.0","a341nnssqg","NaN","<div style=""width:500px;"">
                            <p style=""font-size:50px; font-weight:bold;""
                            >calm</p>
                            <div style=""width:240px; margin: auto;"">
                                <img src=""images/gray_14.png"" style= ""width:200px""alt=""img"">
                            </div>
                        </div>","-98","","0","images/gray_14.png","","","","calm"
"","","","","","html-slider-response","117","1336629","0.0-113.0","a341nnssqg","NaN","<div style=""width:500px;"">
                            <p style=""font-size:50px; font-weight:bold;""
                            >calm</p>
                            <div style=""width:240px; margin: auto;"">
                                <img src=""images/gray_25.png"" style= ""width:200px""alt=""img"">
                            </div>
                        </div>","-98","","0","images/gray_25.png","","","","calm"
"","","","","","html-slider-response","118","1337906","0.0-114.0","a341nnssqg","NaN","<div style=""width:500px;"">
                            <p style=""font-size:50px; font-weight:bold;""
                            >calm</p>
                            <div style=""width:240px; margin: auto;"">
                                <img src=""images/gray_39.png"" style= ""width:200px""alt=""img"">
                            </div>
                        </div>","-92","","0","images/gray_39.png","","","","calm"
"","","","","","html-slider-response","119","1339285","0.0-115.0","a341nnssqg","NaN","<div style=""width:500px;"">
                            <p style=""font-size:50px; font-weight:bold;""
                            >calm</p>
                            <div style=""width:240px; margin: auto;"">
                                <img src=""images/gray_41.png"" style= ""width:200px""alt=""img"">
                            </div>
                        </div>","-95","","0","images/gray_41.png","","","","calm"
"","","","","","html-slider-response","120","1340722","0.0-116.0","a341nnssqg","NaN","<div style=""width:500px;"">
                            <p style=""font-size:50px; font-weight:bold;""
                            >calm</p>
                            <div style=""width:240px; margin: auto;"">
                                <img src=""images/gray_33.png"" style= ""width:200px""alt=""img"">
                            </div>
                        </div>","-95","","0","images/gray_33.png","","","","calm"
"","","","","","html-slider-response","121","1341732","0.0-117.0","a341nnssqg","NaN","<div style=""width:500px;"">
                            <p style=""font-size:50px; font-weight:bold;""
                            >calm</p>
                            <div style=""width:240px; margin: auto;"">
                                <img src=""images/gray_29.png"" style= ""width:200px""alt=""img"">
                            </div>
                        </div>","-95","","0","images/gray_29.png","","","","calm"
"","","","","","html-slider-response","122","1342721","0.0-118.0","a341nnssqg","NaN","<div style=""width:500px;"">
                            <p style=""font-size:50px; font-weight:bold;""
                            >calm</p>
                            <div style=""width:240px; margin: auto;"">
                                <img src=""images/gray_18.png"" style= ""width:200px""alt=""img"">
                            </div>
                        </div>","-95","","0","images/gray_18.png","","","","calm"
"","","","","","html-slider-response","123","1347319","0.0-119.0","a341nnssqg","NaN","<div style=""width:500px;"">
                            <p style=""font-size:50px; font-weight:bold;""
                            >calm</p>
                            <div style=""width:240px; margin: auto;"">
                                <img src=""images/gray_27.png"" style= ""width:200px""alt=""img"">
                            </div>
                        </div>","-94","","0","images/gray_27.png","","","","calm"
"","","","","","html-slider-response","124","1349196","0.0-120.0","a341nnssqg","NaN","<div style=""width:500px;"">
                            <p style=""font-size:50px; font-weight:bold;""
                            >calm</p>
                            <div style=""width:240px; margin: auto;"">
                                <img src=""images/gray_22.png"" style= ""width:200px""alt=""img"">
                            </div>
                        </div>","-1","","0","images/gray_22.png","","","","calm"
"","","","","","html-slider-response","125","1350159","0.0-121.0","a341nnssqg","NaN","<div style=""width:500px;"">
                            <p style=""font-size:50px; font-weight:bold;""
                            >calm</p>
                            <div style=""width:240px; margin: auto;"">
                                <img src=""images/gray_05.png"" style= ""width:200px""alt=""img"">
                            </div>
                        </div>","-1","","0","images/gray_05.png","","","","calm"
"","","","","","html-slider-response","126","1352927","0.0-122.0","a341nnssqg","NaN","<div style=""width:500px;"">
                            <p style=""font-size:50px; font-weight:bold;""
                            >calm</p>
                            <div style=""width:240px; margin: auto;"">
                                <img src=""images/gray_16.png"" style= ""width:200px""alt=""img"">
                            </div>
                        </div>","-33","","0","images/gray_16.png","","","","calm"
"","","","","","html-slider-response","127","1353634","0.0-123.0","a341nnssqg","NaN","<div style=""width:500px;"">
                            <p style=""font-size:50px; font-weight:bold;""
                            >calm</p>
                            <div style=""width:240px; margin: auto;"">
                                <img src=""images/gray_44.png"" style= ""width:200px""alt=""img"">
                            </div>
                        </div>","-30","","0","images/gray_44.png","","","","calm"
"","","","","","html-slider-response","128","1354517","0.0-124.0","a341nnssqg","NaN","<div style=""width:500px;"">
                            <p style=""font-size:50px; font-weight:bold;""
                            >calm</p>
                            <div style=""width:240px; margin: auto;"">
                                <img src=""images/gray_01.png"" style= ""width:200px""alt=""img"">
                            </div>
                        </div>","-30","","0","images/gray_01.png","","","","calm"
"","","","","","html-slider-response","129","1355311","0.0-125.0","a341nnssqg","NaN","<div style=""width:500px;"">
                            <p style=""font-size:50px; font-weight:bold;""
                            >calm</p>
                            <div style=""width:240px; margin: auto;"">
                                <img src=""images/gray_30.png"" style= ""width:200px""alt=""img"">
                            </div>
                        </div>","-30","","0","images/gray_30.png","","","","calm"
"","","","","","html-slider-response","130","1356154","0.0-126.0","a341nnssqg","NaN","<div style=""width:500px;"">
                            <p style=""font-size:50px; font-weight:bold;""
                            >calm</p>
                            <div style=""width:240px; margin: auto;"">
                                <img src=""images/gray_06.png"" style= ""width:200px""alt=""img"">
                            </div>
                        </div>","-30","","0","images/gray_06.png","","","","calm"
"","","","","","html-slider-response","131","1356964","0.0-127.0","a341nnssqg","NaN","<div style=""width:500px;"">
                            <p style=""font-size:50px; font-weight:bold;""
                            >calm</p>
                            <div style=""width:240px; margin: auto;"">
                                <img src=""images/gray_24.png"" style= ""width:200px""alt=""img"">
                            </div>
                        </div>","-26","","0","images/gray_24.png","","","","calm"
"","","","","","html-slider-response","132","1357847","0.0-128.0","a341nnssqg","NaN","<div style=""width:500px;"">
                            <p style=""font-size:50px; font-weight:bold;""
                            >calm</p>
                            <div style=""width:240px; margin: auto;"">
                                <img src=""images/gray_13.png"" style= ""width:200px""alt=""img"">
                            </div>
                        </div>","-26","","0","images/gray_13.png","","","","calm"
"","","","","","html-slider-response","133","1358634","0.0-129.0","a341nnssqg","NaN","<div style=""width:500px;"">
                            <p style=""font-size:50px; font-weight:bold;""
                            >calm</p>
                            <div style=""width:240px; margin: auto;"">
                                <img src=""images/gray_36.png"" style= ""width:200px""alt=""img"">
                            </div>
                        </div>","-26","","0","images/gray_36.png","","","","calm"
"","","","","","html-slider-response","134","1359437","0.0-130.0","a341nnssqg","NaN","<div style=""width:500px;"">
                            <p style=""font-size:50px; font-weight:bold;""
                            >calm</p>
                            <div style=""width:240px; margin: auto;"">
                                <img src=""images/gray_04.png"" style= ""width:200px""alt=""img"">
                            </div>
                        </div>","-26","","0","images/gray_04.png","","","","calm"
"","","","","","html-slider-response","135","1360241","0.0-131.0","a341nnssqg","NaN","<div style=""width:500px;"">
                            <p style=""font-size:50px; font-weight:bold;""
                            >calm</p>
                            <div style=""width:240px; margin: auto;"">
                                <img src=""images/gray_38.png"" style= ""width:200px""alt=""img"">
                            </div>
                        </div>","-27","","0","images/gray_38.png","","","","calm"
"","","","","","html-slider-response","136","1361037","0.0-132.0","a341nnssqg","NaN","<div style=""width:500px;"">
                            <p style=""font-size:50px; font-weight:bold;""
                            >calm</p>
                            <div style=""width:240px; margin: auto;"">
                                <img src=""images/gray_34.png"" style= ""width:200px""alt=""img"">
                            </div>
                        </div>","-27","","0","images/gray_34.png","","","","calm"
"","","","","","html-slider-response","137","1361853","0.0-133.0","a341nnssqg","NaN","<div style=""width:500px;"">
                            <p style=""font-size:50px; font-weight:bold;""
                            >calm</p>
                            <div style=""width:240px; margin: auto;"">
                                <img src=""images/gray_26.png"" style= ""width:200px""alt=""img"">
                            </div>
                        </div>","-27","","0","images/gray_26.png","","","","calm"
"","","","","","html-slider-response","138","1362873","0.0-134.0","a341nnssqg","NaN","<div style=""width:500px;"">
                            <p style=""font-size:50px; font-weight:bold;""
                            >calm</p>
                            <div style=""width:240px; margin: auto;"">
                                <img src=""images/gray_10.png"" style= ""width:200px""alt=""img"">
                            </div>
                        </div>","-28","","0","images/gray_10.png","","","","calm"
"","","","","","html-slider-response","139","1363710","0.0-135.0","a341nnssqg","NaN","<div style=""width:500px;"">
                            <p style=""font-size:50px; font-weight:bold;""
                            >calm</p>
                            <div style=""width:240px; margin: auto;"">
                                <img src=""images/gray_09.png"" style= ""width:200px""alt=""img"">
                            </div>
                        </div>","-28","","0","images/gray_09.png","","","","calm"
"","","","","","html-slider-response","140","1364559","0.0-136.0","a341nnssqg","NaN","<div style=""width:500px;"">
                            <p style=""font-size:50px; font-weight:bold;""
                            >calm</p>
                            <div style=""width:240px; margin: auto;"">
                                <img src=""images/gray_11.png"" style= ""width:200px""alt=""img"">
                            </div>
                        </div>","-28","","0","images/gray_11.png","","","","calm"
"","","","","","html-slider-response","141","1365354","0.0-137.0","a341nnssqg","NaN","<div style=""width:500px;"">
                            <p style=""font-size:50px; font-weight:bold;""
                            >calm</p>
                            <div style=""width:240px; margin: auto;"">
                                <img src=""images/gray_31.png"" style= ""width:200px""alt=""img"">
                            </div>
                        </div>","-28","","0","images/gray_31.png","","","","calm"
"","","","","","html-slider-response","142","1366148","0.0-138.0","a341nnssqg","NaN","<div style=""width:500px;"">
                            <p style=""font-size:50px; font-weight:bold;""
                            >calm</p>
                            <div style=""width:240px; margin: auto;"">
                                <img src=""images/gray_43.png"" style= ""width:200px""alt=""img"">
                            </div>
                        </div>","-28","","0","images/gray_43.png","","","","calm"
"","","","","","html-slider-response","143","1366999","0.0-139.0","a341nnssqg","NaN","<div style=""width:500px;"">
                            <p style=""font-size:50px; font-weight:bold;""
                            >calm</p>
                            <div style=""width:240px; margin: auto;"">
                                <img src=""images/gray_02.png"" style= ""width:200px""alt=""img"">
                            </div>
                        </div>","-28","","0","images/gray_02.png","","","","calm"
"","","","","","html-slider-response","144","1367858","0.0-140.0","a341nnssqg","NaN","<div style=""width:500px;"">
                            <p style=""font-size:50px; font-weight:bold;""
                            >calm</p>
                            <div style=""width:240px; margin: auto;"">
                                <img src=""images/gray_42.png"" style= ""width:200px""alt=""img"">
                            </div>
                        </div>","-28","","0","images/gray_42.png","","","","calm"
"","","","","","html-slider-response","145","1368757","0.0-141.0","a341nnssqg","NaN","<div style=""width:500px;"">
                            <p style=""font-size:50px; font-weight:bold;""
                            >calm</p>
                            <div style=""width:240px; margin: auto;"">
                                <img src=""images/gray_15.png"" style= ""width:200px""alt=""img"">
                            </div>
                        </div>","-28","","0","images/gray_15.png","","","","calm"
"","","","","","html-slider-response","146","1369678","0.0-142.0","a341nnssqg","NaN","<div style=""width:500px;"">
                            <p style=""font-size:50px; font-weight:bold;""
                            >calm</p>
                            <div style=""width:240px; margin: auto;"">
                                <img src=""images/gray_12.png"" style= ""width:200px""alt=""img"">
                            </div>
                        </div>","-28","","0","images/gray_12.png","","","","calm"
"","","","","","html-slider-response","147","1370562","0.0-143.0","a341nnssqg","NaN","<div style=""width:500px;"">
                            <p style=""font-size:50px; font-weight:bold;""
                            >calm</p>
                            <div style=""width:240px; margin: auto;"">
                                <img src=""images/gray_40.png"" style= ""width:200px""alt=""img"">
                            </div>
                        </div>","-28","","0","images/gray_40.png","","","","calm"
"","","","","","html-slider-response","148","1371333","0.0-144.0","a341nnssqg","NaN","<div style=""width:500px;"">
                            <p style=""font-size:50px; font-weight:bold;""
                            >calm</p>
                            <div style=""width:240px; margin: auto;"">
                                <img src=""images/gray_28.png"" style= ""width:200px""alt=""img"">
                            </div>
                        </div>","-28","","0","images/gray_28.png","","","","calm"
"","","","","","html-slider-response","149","1372152","0.0-145.0","a341nnssqg","NaN","<div style=""width:500px;"">
                            <p style=""font-size:50px; font-weight:bold;""
                            >calm</p>
                            <div style=""width:240px; margin: auto;"">
                                <img src=""images/gray_23.png"" style= ""width:200px""alt=""img"">
                            </div>
                        </div>","-28","","0","images/gray_23.png","","","","calm"
"","","","","","html-slider-response","150","1372937","0.0-146.0","a341nnssqg","NaN","<div style=""width:500px;"">
                            <p style=""font-size:50px; font-weight:bold;""
                            >calm</p>
                            <div style=""width:240px; margin: auto;"">
                                <img src=""images/gray_07.png"" style= ""width:200px""alt=""img"">
                            </div>
                        </div>","-28","","0","images/gray_07.png","","","","calm"
"","","","","","html-slider-response","151","1373853","0.0-147.0","a341nnssqg","NaN","<div style=""width:500px;"">
                            <p style=""font-size:50px; font-weight:bold;""
                            >calm</p>
                            <div style=""width:240px; margin: auto;"">
                                <img src=""images/gray_03.png"" style= ""width:200px""alt=""img"">
                            </div>
                        </div>","-28","","0","images/gray_03.png","","","","calm"
"","","","","","html-slider-response","152","1374631","0.0-148.0","a341nnssqg","NaN","<div style=""width:500px;"">
                            <p style=""font-size:50px; font-weight:bold;""
                            >calm</p>
                            <div style=""width:240px; margin: auto;"">
                                <img src=""images/gray_19.png"" style= ""width:200px""alt=""img"">
                            </div>
                        </div>","-28","","0","images/gray_19.png","","","","calm"
"","","","","","html-slider-response","153","1375602","0.0-149.0","a341nnssqg","NaN","<div style=""width:500px;"">
                            <p style=""font-size:50px; font-weight:bold;""
                            >calm</p>
                            <div style=""width:240px; margin: auto;"">
                                <img src=""images/gray_20.png"" style= ""width:200px""alt=""img"">
                            </div>
                        </div>","-28","","0","images/gray_20.png","","","","calm"
"","","","","","html-button-response","154","1378287","0.0-150.0","a341nnssqg","2183","<p>Great Job! You've finished block 3.<br></br> You have 5 block(s) left to go.<br></br></p>","0","","","","","","",""
"","","","","","html-button-response","155","1380326","0.0-151.0","a341nnssqg","2038","<p>In this block of trials, you will be asked to rate how much you associate each map with:</p > <p style = 'font-size:150%; font-weight: bold'>trustworthy</p><br></br>","0","","","","","","",""
"","","","","","html-slider-response","156","1383592","0.0-152.0","a341nnssqg","NaN","<div style=""width:500px;"">
                            <p style=""font-size:50px; font-weight:bold;""
                            >trustworthy</p>
                            <div style=""width:240px; margin: auto;"">
                                <img src=""images/gray_04.png"" style= ""width:200px""alt=""img"">
                            </div>
                        </div>","-194","","0","images/gray_04.png","","","","trustworthy"
"","","","","","html-slider-response","157","1387243","0.0-153.0","a341nnssqg","NaN","<div style=""width:500px;"">
                            <p style=""font-size:50px; font-weight:bold;""
                            >trustworthy</p>
                            <div style=""width:240px; margin: auto;"">
                                <img src=""images/gray_17.png"" style= ""width:200px""alt=""img"">
                            </div>
                        </div>","-126","","0","images/gray_17.png","","","","trustworthy"
"","","","","","html-slider-response","158","1388551","0.0-154.0","a341nnssqg","NaN","<div style=""width:500px;"">
                            <p style=""font-size:50px; font-weight:bold;""
                            >trustworthy</p>
                            <div style=""width:240px; margin: auto;"">
                                <img src=""images/gray_13.png"" style= ""width:200px""alt=""img"">
                            </div>
                        </div>","-141","","0","images/gray_13.png","","","","trustworthy"
"","","","","","html-slider-response","159","1389418","0.0-155.0","a341nnssqg","NaN","<div style=""width:500px;"">
                            <p style=""font-size:50px; font-weight:bold;""
                            >trustworthy</p>
                            <div style=""width:240px; margin: auto;"">
                                <img src=""images/gray_05.png"" style= ""width:200px""alt=""img"">
                            </div>
                        </div>","-143","","0","images/gray_05.png","","","","trustworthy"
"","","","","","html-slider-response","160","1390147","0.0-156.0","a341nnssqg","NaN","<div style=""width:500px;"">
                            <p style=""font-size:50px; font-weight:bold;""
                            >trustworthy</p>
                            <div style=""width:240px; margin: auto;"">
                                <img src=""images/gray_03.png"" style= ""width:200px""alt=""img"">
                            </div>
                        </div>","-143","","0","images/gray_03.png","","","","trustworthy"
"","","","","","html-slider-response","161","1390847","0.0-157.0","a341nnssqg","NaN","<div style=""width:500px;"">
                            <p style=""font-size:50px; font-weight:bold;""
                            >trustworthy</p>
                            <div style=""width:240px; margin: auto;"">
                                <img src=""images/gray_30.png"" style= ""width:200px""alt=""img"">
                            </div>
                        </div>","-143","","0","images/gray_30.png","","","","trustworthy"
"","","","","","html-slider-response","162","1391489","0.0-158.0","a341nnssqg","NaN","<div style=""width:500px;"">
                            <p style=""font-size:50px; font-weight:bold;""
                            >trustworthy</p>
                            <div style=""width:240px; margin: auto;"">
                                <img src=""images/gray_42.png"" style= ""width:200px""alt=""img"">
                            </div>
                        </div>","-142","","0","images/gray_42.png","","","","trustworthy"
"","","","","","html-slider-response","163","1392154","0.0-159.0","a341nnssqg","NaN","<div style=""width:500px;"">
                            <p style=""font-size:50px; font-weight:bold;""
                            >trustworthy</p>
                            <div style=""width:240px; margin: auto;"">
                                <img src=""images/gray_22.png"" style= ""width:200px""alt=""img"">
                            </div>
                        </div>","-142","","0","images/gray_22.png","","","","trustworthy"
"","","","","","html-slider-response","164","1392820","0.0-160.0","a341nnssqg","NaN","<div style=""width:500px;"">
                            <p style=""font-size:50px; font-weight:bold;""
                            >trustworthy</p>
                            <div style=""width:240px; margin: auto;"">
                                <img src=""images/gray_35.png"" style= ""width:200px""alt=""img"">
                            </div>
                        </div>","-142","","0","images/gray_35.png","","","","trustworthy"
"","","","","","html-slider-response","165","1394242","0.0-161.0","a341nnssqg","NaN","<div style=""width:500px;"">
                            <p style=""font-size:50px; font-weight:bold;""
                            >trustworthy</p>
                            <div style=""width:240px; margin: auto;"">
                                <img src=""images/gray_20.png"" style= ""width:200px""alt=""img"">
                            </div>
                        </div>","-142","","0","images/gray_20.png","","","","trustworthy"
"","","","","","html-slider-response","166","1394953","0.0-162.0","a341nnssqg","NaN","<div style=""width:500px;"">
                            <p style=""font-size:50px; font-weight:bold;""
                            >trustworthy</p>
                            <div style=""width:240px; margin: auto;"">
                                <img src=""images/gray_33.png"" style= ""width:200px""alt=""img"">
                            </div>
                        </div>","-142","","0","images/gray_33.png","","","","trustworthy"
"","","","","","html-slider-response","167","1395695","0.0-163.0","a341nnssqg","NaN","<div style=""width:500px;"">
                            <p style=""font-size:50px; font-weight:bold;""
                            >trustworthy</p>
                            <div style=""width:240px; margin: auto;"">
                                <img src=""images/gray_08.png"" style= ""width:200px""alt=""img"">
                            </div>
                        </div>","-142","","0","images/gray_08.png","","","","trustworthy"
"","","","","","html-slider-response","168","1396359","0.0-164.0","a341nnssqg","NaN","<div style=""width:500px;"">
                            <p style=""font-size:50px; font-weight:bold;""
                            >trustworthy</p>
                            <div style=""width:240px; margin: auto;"">
                                <img src=""images/gray_39.png"" style= ""width:200px""alt=""img"">
                            </div>
                        </div>","-142","","0","images/gray_39.png","","","","trustworthy"
"","","","","","html-slider-response","169","1397025","0.0-165.0","a341nnssqg","NaN","<div style=""width:500px;"">
                            <p style=""font-size:50px; font-weight:bold;""
                            >trustworthy</p>
                            <div style=""width:240px; margin: auto;"">
                                <img src=""images/gray_27.png"" style= ""width:200px""alt=""img"">
                            </div>
                        </div>","-142","","0","images/gray_27.png","","","","trustworthy"
"","","","","","html-slider-response","170","1397981","0.0-166.0","a341nnssqg","NaN","<div style=""width:500px;"">
                            <p style=""font-size:50px; font-weight:bold;""
                            >trustworthy</p>
                            <div style=""width:240px; margin: auto;"">
                                <img src=""images/gray_07.png"" style= ""width:200px""alt=""img"">
                            </div>
                        </div>","-142","","0","images/gray_07.png","","","","trustworthy"
"","","","","","html-slider-response","171","1399169","0.0-167.0","a341nnssqg","NaN","<div style=""width:500px;"">
                            <p style=""font-size:50px; font-weight:bold;""
                            >trustworthy</p>
                            <div style=""width:240px; margin: auto;"">
                                <img src=""images/gray_14.png"" style= ""width:200px""alt=""img"">
                            </div>
                        </div>","-142","","0","images/gray_14.png","","","","trustworthy"
"","","","","","html-slider-response","172","1400155","0.0-168.0","a341nnssqg","NaN","<div style=""width:500px;"">
                            <p style=""font-size:50px; font-weight:bold;""
                            >trustworthy</p>
                            <div style=""width:240px; margin: auto;"">
                                <img src=""images/gray_44.png"" style= ""width:200px""alt=""img"">
                            </div>
                        </div>","-142","","0","images/gray_44.png","","","","trustworthy"
"","","","","","html-slider-response","173","1400990","0.0-169.0","a341nnssqg","NaN","<div style=""width:500px;"">
                            <p style=""font-size:50px; font-weight:bold;""
                            >trustworthy</p>
                            <div style=""width:240px; margin: auto;"">
                                <img src=""images/gray_37.png"" style= ""width:200px""alt=""img"">
                            </div>
                        </div>","-142","","0","images/gray_37.png","","","","trustworthy"
"","","","","","html-slider-response","174","1401785","0.0-170.0","a341nnssqg","NaN","<div style=""width:500px;"">
                            <p style=""font-size:50px; font-weight:bold;""
                            >trustworthy</p>
                            <div style=""width:240px; margin: auto;"">
                                <img src=""images/gray_12.png"" style= ""width:200px""alt=""img"">
                            </div>
                        </div>","-142","","0","images/gray_12.png","","","","trustworthy"
"","","","","","html-slider-response","175","1402684","0.0-171.0","a341nnssqg","NaN","<div style=""width:500px;"">
                            <p style=""font-size:50px; font-weight:bold;""
                            >trustworthy</p>
                            <div style=""width:240px; margin: auto;"">
                                <img src=""images/gray_26.png"" style= ""width:200px""alt=""img"">
                            </div>
                        </div>","-142","","0","images/gray_26.png","","","","trustworthy"
"","","","","","html-slider-response","176","1403391","0.0-172.0","a341nnssqg","NaN","<div style=""width:500px;"">
                            <p style=""font-size:50px; font-weight:bold;""
                            >trustworthy</p>
                            <div style=""width:240px; margin: auto;"">
                                <img src=""images/gray_43.png"" style= ""width:200px""alt=""img"">
                            </div>
                        </div>","-142","","0","images/gray_43.png","","","","trustworthy"
"","","","","","html-slider-response","177","1404177","0.0-173.0","a341nnssqg","NaN","<div style=""width:500px;"">
                            <p style=""font-size:50px; font-weight:bold;""
                            >trustworthy</p>
                            <div style=""width:240px; margin: auto;"">
                                <img src=""images/gray_02.png"" style= ""width:200px""alt=""img"">
                            </div>
                        </div>","-142","","0","images/gray_02.png","","","","trustworthy"
"","","","","","html-slider-response","178","1404907","0.0-174.0","a341nnssqg","NaN","<div style=""width:500px;"">
                            <p style=""font-size:50px; font-weight:bold;""
                            >trustworthy</p>
                            <div style=""width:240px; margin: auto;"">
                                <img src=""images/gray_09.png"" style= ""width:200px""alt=""img"">
                            </div>
                        </div>","-142","","0","images/gray_09.png","","","","trustworthy"
"","","","","","html-slider-response","179","1405693","0.0-175.0","a341nnssqg","NaN","<div style=""width:500px;"">
                            <p style=""font-size:50px; font-weight:bold;""
                            >trustworthy</p>
                            <div style=""width:240px; margin: auto;"">
                                <img src=""images/gray_32.png"" style= ""width:200px""alt=""img"">
                            </div>
                        </div>","-142","","0","images/gray_32.png","","","","trustworthy"
"","","","","","html-slider-response","180","1406448","0.0-176.0","a341nnssqg","NaN","<div style=""width:500px;"">
                            <p style=""font-size:50px; font-weight:bold;""
                            >trustworthy</p>
                            <div style=""width:240px; margin: auto;"">
                                <img src=""images/gray_16.png"" style= ""width:200px""alt=""img"">
                            </div>
                        </div>","-141","","0","images/gray_16.png","","","","trustworthy"
"","","","","","html-slider-response","181","1407290","0.0-177.0","a341nnssqg","NaN","<div style=""width:500px;"">
                            <p style=""font-size:50px; font-weight:bold;""
                            >trustworthy</p>
                            <div style=""width:240px; margin: auto;"">
                                <img src=""images/gray_01.png"" style= ""width:200px""alt=""img"">
                            </div>
                        </div>","-141","","0","images/gray_01.png","","","","trustworthy"
"","","","","","html-slider-response","182","1408229","0.0-178.0","a341nnssqg","NaN","<div style=""width:500px;"">
                            <p style=""font-size:50px; font-weight:bold;""
                            >trustworthy</p>
                            <div style=""width:240px; margin: auto;"">
                                <img src=""images/gray_15.png"" style= ""width:200px""alt=""img"">
                            </div>
                        </div>","-141","","0","images/gray_15.png","","","","trustworthy"
"","","","","","html-slider-response","183","1409041","0.0-179.0","a341nnssqg","NaN","<div style=""width:500px;"">
                            <p style=""font-size:50px; font-weight:bold;""
                            >trustworthy</p>
                            <div style=""width:240px; margin: auto;"">
                                <img src=""images/gray_40.png"" style= ""width:200px""alt=""img"">
                            </div>
                        </div>","-141","","0","images/gray_40.png","","","","trustworthy"
"","","","","","html-slider-response","184","1409882","0.0-180.0","a341nnssqg","NaN","<div style=""width:500px;"">
                            <p style=""font-size:50px; font-weight:bold;""
                            >trustworthy</p>
                            <div style=""width:240px; margin: auto;"">
                                <img src=""images/gray_29.png"" style= ""width:200px""alt=""img"">
                            </div>
                        </div>","-141","","0","images/gray_29.png","","","","trustworthy"
"","","","","","html-slider-response","185","1410758","0.0-181.0","a341nnssqg","NaN","<div style=""width:500px;"">
                            <p style=""font-size:50px; font-weight:bold;""
                            >trustworthy</p>
                            <div style=""width:240px; margin: auto;"">
                                <img src=""images/gray_23.png"" style= ""width:200px""alt=""img"">
                            </div>
                        </div>","-141","","0","images/gray_23.png","","","","trustworthy"
"","","","","","html-slider-response","186","1411535","0.0-182.0","a341nnssqg","NaN","<div style=""width:500px;"">
                            <p style=""font-size:50px; font-weight:bold;""
                            >trustworthy</p>
                            <div style=""width:240px; margin: auto;"">
                                <img src=""images/gray_24.png"" style= ""width:200px""alt=""img"">
                            </div>
                        </div>","-141","","0","images/gray_24.png","","","","trustworthy"
"","","","","","html-slider-response","187","1412379","0.0-183.0","a341nnssqg","NaN","<div style=""width:500px;"">
                            <p style=""font-size:50px; font-weight:bold;""
                            >trustworthy</p>
                            <div style=""width:240px; margin: auto;"">
                                <img src=""images/gray_10.png"" style= ""width:200px""alt=""img"">
                            </div>
                        </div>","-142","","0","images/gray_10.png","","","","trustworthy"
"","","","","","html-slider-response","188","1413174","0.0-184.0","a341nnssqg","NaN","<div style=""width:500px;"">
                            <p style=""font-size:50px; font-weight:bold;""
                            >trustworthy</p>
                            <div style=""width:240px; margin: auto;"">
                                <img src=""images/gray_34.png"" style= ""width:200px""alt=""img"">
                            </div>
                        </div>","-142","","0","images/gray_34.png","","","","trustworthy"
"","","","","","html-slider-response","189","1414089","0.0-185.0","a341nnssqg","NaN","<div style=""width:500px;"">
                            <p style=""font-size:50px; font-weight:bold;""
                            >trustworthy</p>
                            <div style=""width:240px; margin: auto;"">
                                <img src=""images/gray_36.png"" style= ""width:200px""alt=""img"">
                            </div>
                        </div>","-142","","0","images/gray_36.png","","","","trustworthy"
"","","","","","html-slider-response","190","1414965","0.0-186.0","a341nnssqg","NaN","<div style=""width:500px;"">
                            <p style=""font-size:50px; font-weight:bold;""
                            >trustworthy</p>
                            <div style=""width:240px; margin: auto;"">
                                <img src=""images/gray_21.png"" style= ""width:200px""alt=""img"">
                            </div>
                        </div>","-142","","0","images/gray_21.png","","","","trustworthy"
"","","","","","html-slider-response","191","1415758","0.0-187.0","a341nnssqg","NaN","<div style=""width:500px;"">
                            <p style=""font-size:50px; font-weight:bold;""
                            >trustworthy</p>
                            <div style=""width:240px; margin: auto;"">
                                <img src=""images/gray_11.png"" style= ""width:200px""alt=""img"">
                            </div>
                        </div>","-142","","0","images/gray_11.png","","","","trustworthy"
"","","","","","html-slider-response","192","1416817","0.0-188.0","a341nnssqg","NaN","<div style=""width:500px;"">
                            <p style=""font-size:50px; font-weight:bold;""
                            >trustworthy</p>
                            <div style=""width:240px; margin: auto;"">
                                <img src=""images/gray_31.png"" style= ""width:200px""alt=""img"">
                            </div>
                        </div>","-142","","0","images/gray_31.png","","","","trustworthy"
"","","","","","html-slider-response","193","1417579","0.0-189.0","a341nnssqg","NaN","<div style=""width:500px;"">
                            <p style=""font-size:50px; font-weight:bold;""
                            >trustworthy</p>
                            <div style=""width:240px; margin: auto;"">
                                <img src=""images/gray_25.png"" style= ""width:200px""alt=""img"">
                            </div>
                        </div>","-142","","0","images/gray_25.png","","","","trustworthy"
"","","","","","html-slider-response","194","1418317","0.0-190.0","a341nnssqg","NaN","<div style=""width:500px;"">
                            <p style=""font-size:50px; font-weight:bold;""
                            >trustworthy</p>
                            <div style=""width:240px; margin: auto;"">
                                <img src=""images/gray_28.png"" style= ""width:200px""alt=""img"">
                            </div>
                        </div>","-142","","0","images/gray_28.png","","","","trustworthy"
"","","","","","html-slider-response","195","1419104","0.0-191.0","a341nnssqg","NaN","<div style=""width:500px;"">
                            <p style=""font-size:50px; font-weight:bold;""
                            >trustworthy</p>
                            <div style=""width:240px; margin: auto;"">
                                <img src=""images/gray_41.png"" style= ""width:200px""alt=""img"">
                            </div>
                        </div>","-142","","0","images/gray_41.png","","","","trustworthy"
"","","","","","html-slider-response","196","1419971","0.0-192.0","a341nnssqg","NaN","<div style=""width:500px;"">
                            <p style=""font-size:50px; font-weight:bold;""
                            >trustworthy</p>
                            <div style=""width:240px; margin: auto;"">
                                <img src=""images/gray_18.png"" style= ""width:200px""alt=""img"">
                            </div>
                        </div>","-141","","0","images/gray_18.png","","","","trustworthy"
"","","","","","html-slider-response","197","1420895","0.0-193.0","a341nnssqg","NaN","<div style=""width:500px;"">
                            <p style=""font-size:50px; font-weight:bold;""
                            >trustworthy</p>
                            <div style=""width:240px; margin: auto;"">
                                <img src=""images/gray_19.png"" style= ""width:200px""alt=""img"">
                            </div>
                        </div>","-141","","0","images/gray_19.png","","","","trustworthy"
"","","","","","html-slider-response","198","1421739","0.0-194.0","a341nnssqg","NaN","<div style=""width:500px;"">
                            <p style=""font-size:50px; font-weight:bold;""
                            >trustworthy</p>
