"success","timeout","failed_images","failed_audio","failed_video","trial_type","trial_index","time_elapsed","internal_node_id","subject_id","rt","stimulus","response","question_order","slider_start","image_path","practiceTrial","practiceTrialNum","correct","concept"
"true","false","[]","[]","[]","preload","0","227","0.0-0.0","ajbyb59k26","","","","","","","","","",""
"","","","","","html-button-response","1","13719","0.0-1.0","ajbyb59k26","13491","Welcome to our experiment!<p>At the bottom of this screen, you will see a button that says ""Begin Experiment"".<br>Please only click that button when you are ready to complete the 25 minute experiment in one sitting.</p><p> Once you click that button, it will not be possible to restart the experiment.","0","","","","","","",""
"true","","","","","fullscreen","2","16970","0.0-2.0","ajbyb59k26","2247","","","","","","","","",""
"","","","","","survey-multi-select","3","47803","0.0-3.0","ajbyb59k26","30828","","{""Consent"":[""<strong>I consent</strong>""]}","[0]","","","","","",""
"","","","","","html-button-response","4","49150","0.0-4.0","ajbyb59k26","1342","Welcome! <p> This experiment involves two parts: demographic information, followed by the experimental task.<p> It will take about 25 minutes to complete both parts.","0","","","","","","",""
"","","","","","survey-text","5","79104","0.0-5.0","ajbyb59k26","29940","","{""Age"":""21"",""Gender"":""Female"",""Race/ethnicity"":""White/Caucasian "",""Languages"":""English, Proficient in Spanish""}","","","","","","",""
"","","","","","html-slider-response","6","174650","0.0-6.0","ajbyb59k26","95546","
            <div style='text-align:left; font-size:20px; line-height:25px; width: 1200px;'>
                During this experiment you will be asked to rate how much you associate maps with    different concepts.<br> Below, you can see some examples of the maps you will be asked to rate. Next to the maps
    is the list of concepts.<br>You will be asked    to rate how much you associate each map with each concept on a scale from 'not at all' to 'very much' like the
    one below. <br><br>
    Now, please look at the list of concepts and maps. For each concept, think about the map you associate 'very
    much' with the concept.<br>     When you see that map during the experiment, please rate it near the 'very much' endpoint of the
    scale.<br>Now, please think about which map you associate 'not at all'     with each concept. When you see that map during the experiment, please rate it near the 'not at all' endpoint
    of the scale.<br>
    Please use the full range of the scale. That is, if a map is somewhat associated with the concept, you would
    click partway between the middle point and right side of the scale.    You will be asked to rate each map for a given concept before moving on to the next concept.<br><br>Press the
    'Continue' button for instructions on how to use the slider.    <br><br>
</div>

<div style=""width: 500px; margin: 0 auto;"">
    <div style=""text-align: left; width: 200px; float: left;"">
        <p style=""font-size:25px; line-height:18px;"">calm</p>
        <p style=""font-size:25px; line-height:18px;"">exciting</p>
        <p style=""font-size:25px;line-height:18px;"">positive</p>
        <p style=""font-size:25px;line-height:18px;"">negative</p>
        <p style=""font-size:25px;line-height:18px;"">serious</p>
        <p style=""font-size:25px;line-height:18px;"">playful</p>
        <p style=""font-size:25px;line-height:18px;"">trustworthy</p>
        <p style=""font-size:25px;line-height:18px;"">disturbing</p>
    </div>
    <div style=""width: 200px; float: right; padding-top:15px; padding-right:40px"">
        <br>
        <br>
        <img src=""maps_anchoring.png"" alt=""img"" style=""max-width:500px"">
    </div>
    <div style=""clear: both;""></div>
</div>
            ","null","","0","maps_anchoring.png","true","","",""
"","","","","","html-button-response","7","180917","0.0-7.0","ajbyb59k26","6266","<div style=""width:800px;""><p style=""text-align:left"">To move the slider, click and drag your cursor to the location of the scale where you would like to make your rating and then let go. When you let go of the slider, your response will be recorded and the next trial will begin. <br>
            We are interested in your initial impressions of each map for the given concept, so please go with your first intuition. <br>
            Before you begin the experiment, there will be four training trials for you to practice using the scale. <br>
             When you are ready to start the training trials, please click ""Continue"".</p><br></div>","0","","","","","","",""
"","","","","","html-slider-response","8","185412","0.0-8.0-0.0","ajbyb59k26","NaN","<div style=""width:500px;"">
                            <p style=""font-size:25px;"">Please move the slider all the way to the <br> right endpoint of the scale</p>

                            </div>
                        </div>","200","","0","","true","0","true",""
"","","","","","html-button-response","9","187399","0.0-8.0-1.0","ajbyb59k26","1484","<p align='center'><b>Good job!</b> Click on 'Continue' to proceed.</p>","0","","","","","","",""
"","","","","","html-slider-response","10","189878","0.0-9.0-0.0","ajbyb59k26","NaN","<div style=""width:500px;"">
                            <p style=""font-size:25px;"">Please move the slider all the way to the <br> left endpoint of the scale</p>

                            </div>
                        </div>","-200","","0","","true","1","true",""
"","","","","","html-button-response","11","191766","0.0-9.0-1.0","ajbyb59k26","1386","<p align='center'><b>Good job!</b> Click on 'Continue' to proceed.</p>","0","","","","","","",""
"","","","","","html-slider-response","12","195678","0.0-10.0-0.0","ajbyb59k26","NaN","<div style=""width:500px;"">
                            <p style=""font-size:25px;"">Please move the slider halfway between the center and right endpoint of the scale</p>

                            </div>
                        </div>","91","","0","","true","2","true",""
"","","","","","html-button-response","13","197016","0.0-10.0-1.0","ajbyb59k26","835","<p align='center'><b>Good job!</b> Click on 'Continue' to proceed.</p>","0","","","","","","",""
"","","","","","html-slider-response","14","199394","0.0-11.0-0.0","ajbyb59k26","NaN","<div style=""width:500px;"">
                            <p style=""font-size:25px;"">Please move the slider halfway between the center and left endpoint of the scale</p>

                            </div>
                        </div>","-98","","0","","true","3","true",""
"","","","","","html-button-response","15","200798","0.0-11.0-1.0","ajbyb59k26","901","<p align='center'><b>Good job!</b> Click on 'Continue' to proceed.</p>","0","","","","","","",""
"","","","","","html-button-response","16","203716","0.0-12.0","ajbyb59k26","2917","<p>Great job! You've completed the practice trials. Now you will begin the main task.</p>","0","","","","","","",""
"","","","","","html-button-response","17","207933","0.0-13.0","ajbyb59k26","4215","<p>In this block of trials, you will be asked to rate how much you associate each map with:</p > <p style = 'font-size:150%; font-weight: bold'>serious</p><br></br>","0","","","","","","",""
"","","","","","html-slider-response","18","212892","0.0-14.0","ajbyb59k26","NaN","<div style=""width:500px;"">
                            <p style=""font-size:50px; font-weight:bold;""
                            >serious</p>
                            <div style=""width:240px; margin: auto;"">
                                <img src=""images/gray_39.png"" style= ""width:200px""alt=""img"">
                            </div>
                        </div>","17","","0","images/gray_39.png","","","","serious"
"","","","","","html-slider-response","19","217960","0.0-15.0","ajbyb59k26","NaN","<div style=""width:500px;"">
                            <p style=""font-size:50px; font-weight:bold;""
                            >serious</p>
                            <div style=""width:240px; margin: auto;"">
                                <img src=""images/gray_32.png"" style= ""width:200px""alt=""img"">
                            </div>
                        </div>","48","","0","images/gray_32.png","","","","serious"
"","","","","","html-slider-response","20","221242","0.0-16.0","ajbyb59k26","NaN","<div style=""width:500px;"">
                            <p style=""font-size:50px; font-weight:bold;""
                            >serious</p>
                            <div style=""width:240px; margin: auto;"">
                                <img src=""images/gray_04.png"" style= ""width:200px""alt=""img"">
                            </div>
                        </div>","38","","0","images/gray_04.png","","","","serious"
"","","","","","html-slider-response","21","224678","0.0-17.0","ajbyb59k26","NaN","<div style=""width:500px;"">
                            <p style=""font-size:50px; font-weight:bold;""
                            >serious</p>
                            <div style=""width:240px; margin: auto;"">
                                <img src=""images/gray_27.png"" style= ""width:200px""alt=""img"">
                            </div>
                        </div>","82","","0","images/gray_27.png","","","","serious"
"","","","","","html-slider-response","22","227877","0.0-18.0","ajbyb59k26","NaN","<div style=""width:500px;"">
                            <p style=""font-size:50px; font-weight:bold;""
                            >serious</p>
                            <div style=""width:240px; margin: auto;"">
                                <img src=""images/gray_30.png"" style= ""width:200px""alt=""img"">
                            </div>
                        </div>","87","","0","images/gray_30.png","","","","serious"
"","","","","","html-slider-response","23","230526","0.0-19.0","ajbyb59k26","NaN","<div style=""width:500px;"">
                            <p style=""font-size:50px; font-weight:bold;""
                            >serious</p>
                            <div style=""width:240px; margin: auto;"">
                                <img src=""images/gray_18.png"" style= ""width:200px""alt=""img"">
                            </div>
                        </div>","-42","","0","images/gray_18.png","","","","serious"
"","","","","","html-slider-response","24","233743","0.0-20.0","ajbyb59k26","NaN","<div style=""width:500px;"">
                            <p style=""font-size:50px; font-weight:bold;""
                            >serious</p>
                            <div style=""width:240px; margin: auto;"">
                                <img src=""images/gray_42.png"" style= ""width:200px""alt=""img"">
                            </div>
                        </div>","39","","0","images/gray_42.png","","","","serious"
"","","","","","html-slider-response","25","238893","0.0-21.0","ajbyb59k26","NaN","<div style=""width:500px;"">
                            <p style=""font-size:50px; font-weight:bold;""
                            >serious</p>
                            <div style=""width:240px; margin: auto;"">
                                <img src=""images/gray_41.png"" style= ""width:200px""alt=""img"">
                            </div>
                        </div>","79","","0","images/gray_41.png","","","","serious"
"","","","","","html-slider-response","26","241694","0.0-22.0","ajbyb59k26","NaN","<div style=""width:500px;"">
                            <p style=""font-size:50px; font-weight:bold;""
                            >serious</p>
                            <div style=""width:240px; margin: auto;"">
                                <img src=""images/gray_25.png"" style= ""width:200px""alt=""img"">
                            </div>
                        </div>","48","","0","images/gray_25.png","","","","serious"
"","","","","","html-slider-response","27","244694","0.0-23.0","ajbyb59k26","NaN","<div style=""width:500px;"">
                            <p style=""font-size:50px; font-weight:bold;""
                            >serious</p>
                            <div style=""width:240px; margin: auto;"">
                                <img src=""images/gray_02.png"" style= ""width:200px""alt=""img"">
                            </div>
                        </div>","120","","0","images/gray_02.png","","","","serious"
"","","","","","html-slider-response","28","247942","0.0-24.0","ajbyb59k26","NaN","<div style=""width:500px;"">
                            <p style=""font-size:50px; font-weight:bold;""
                            >serious</p>
                            <div style=""width:240px; margin: auto;"">
                                <img src=""images/gray_35.png"" style= ""width:200px""alt=""img"">
                            </div>
                        </div>","44","","0","images/gray_35.png","","","","serious"
"","","","","","html-slider-response","29","249995","0.0-25.0","ajbyb59k26","NaN","<div style=""width:500px;"">
                            <p style=""font-size:50px; font-weight:bold;""
                            >serious</p>
                            <div style=""width:240px; margin: auto;"">
                                <img src=""images/gray_01.png"" style= ""width:200px""alt=""img"">
                            </div>
                        </div>","67","","0","images/gray_01.png","","","","serious"
"","","","","","html-slider-response","30","252144","0.0-26.0","ajbyb59k26","NaN","<div style=""width:500px;"">
                            <p style=""font-size:50px; font-weight:bold;""
                            >serious</p>
                            <div style=""width:240px; margin: auto;"">
                                <img src=""images/gray_16.png"" style= ""width:200px""alt=""img"">
                            </div>
                        </div>","47","","0","images/gray_16.png","","","","serious"
"","","","","","html-slider-response","31","254593","0.0-27.0","ajbyb59k26","NaN","<div style=""width:500px;"">
                            <p style=""font-size:50px; font-weight:bold;""
                            >serious</p>
                            <div style=""width:240px; margin: auto;"">
                                <img src=""images/gray_38.png"" style= ""width:200px""alt=""img"">
                            </div>
                        </div>","-67","","0","images/gray_38.png","","","","serious"
"","","","","","html-slider-response","32","256510","0.0-28.0","ajbyb59k26","NaN","<div style=""width:500px;"">
                            <p style=""font-size:50px; font-weight:bold;""
                            >serious</p>
                            <div style=""width:240px; margin: auto;"">
                                <img src=""images/gray_11.png"" style= ""width:200px""alt=""img"">
                            </div>
                        </div>","27","","0","images/gray_11.png","","","","serious"
"","","","","","html-slider-response","33","258477","0.0-29.0","ajbyb59k26","NaN","<div style=""width:500px;"">
                            <p style=""font-size:50px; font-weight:bold;""
                            >serious</p>
                            <div style=""width:240px; margin: auto;"">
                                <img src=""images/gray_24.png"" style= ""width:200px""alt=""img"">
                            </div>
                        </div>","-58","","0","images/gray_24.png","","","","serious"
"","","","","","html-slider-response","34","260660","0.0-30.0","ajbyb59k26","NaN","<div style=""width:500px;"">
                            <p style=""font-size:50px; font-weight:bold;""
                            >serious</p>
                            <div style=""width:240px; margin: auto;"">
                                <img src=""images/gray_19.png"" style= ""width:200px""alt=""img"">
                            </div>
                        </div>","125","","0","images/gray_19.png","","","","serious"
"","","","","","html-slider-response","35","262726","0.0-31.0","ajbyb59k26","NaN","<div style=""width:500px;"">
                            <p style=""font-size:50px; font-weight:bold;""
                            >serious</p>
                            <div style=""width:240px; margin: auto;"">
                                <img src=""images/gray_23.png"" style= ""width:200px""alt=""img"">
                            </div>
                        </div>","72","","0","images/gray_23.png","","","","serious"
"","","","","","html-slider-response","36","264844","0.0-32.0","ajbyb59k26","NaN","<div style=""width:500px;"">
                            <p style=""font-size:50px; font-weight:bold;""
                            >serious</p>
                            <div style=""width:240px; margin: auto;"">
                                <img src=""images/gray_43.png"" style= ""width:200px""alt=""img"">
                            </div>
                        </div>","-20","","0","images/gray_43.png","","","","serious"
"","","","","","html-slider-response","37","267544","0.0-33.0","ajbyb59k26","NaN","<div style=""width:500px;"">
                            <p style=""font-size:50px; font-weight:bold;""
                            >serious</p>
                            <div style=""width:240px; margin: auto;"">
                                <img src=""images/gray_03.png"" style= ""width:200px""alt=""img"">
                            </div>
                        </div>","-14","","0","images/gray_03.png","","","","serious"
"","","","","","html-slider-response","38","269712","0.0-34.0","ajbyb59k26","NaN","<div style=""width:500px;"">
                            <p style=""font-size:50px; font-weight:bold;""
                            >serious</p>
                            <div style=""width:240px; margin: auto;"">
                                <img src=""images/gray_40.png"" style= ""width:200px""alt=""img"">
                            </div>
                        </div>","33","","0","images/gray_40.png","","","","serious"
"","","","","","html-slider-response","39","272260","0.0-35.0","ajbyb59k26","NaN","<div style=""width:500px;"">
                            <p style=""font-size:50px; font-weight:bold;""
                            >serious</p>
                            <div style=""width:240px; margin: auto;"">
                                <img src=""images/gray_17.png"" style= ""width:200px""alt=""img"">
                            </div>
                        </div>","-32","","0","images/gray_17.png","","","","serious"
"","","","","","html-slider-response","40","278743","0.0-36.0","ajbyb59k26","NaN","<div style=""width:500px;"">
                            <p style=""font-size:50px; font-weight:bold;""
                            >serious</p>
                            <div style=""width:240px; margin: auto;"">
                                <img src=""images/gray_09.png"" style= ""width:200px""alt=""img"">
                            </div>
                        </div>","10","","0","images/gray_09.png","","","","serious"
"","","","","","html-slider-response","41","282744","0.0-37.0","ajbyb59k26","NaN","<div style=""width:500px;"">
                            <p style=""font-size:50px; font-weight:bold;""
                            >serious</p>
                            <div style=""width:240px; margin: auto;"">
                                <img src=""images/gray_26.png"" style= ""width:200px""alt=""img"">
                            </div>
                        </div>","71","","0","images/gray_26.png","","","","serious"
"","","","","","html-slider-response","42","284776","0.0-38.0","ajbyb59k26","NaN","<div style=""width:500px;"">
                            <p style=""font-size:50px; font-weight:bold;""
                            >serious</p>
                            <div style=""width:240px; margin: auto;"">
                                <img src=""images/gray_06.png"" style= ""width:200px""alt=""img"">
                            </div>
                        </div>","28","","0","images/gray_06.png","","","","serious"
"","","","","","html-slider-response","43","287459","0.0-39.0","ajbyb59k26","NaN","<div style=""width:500px;"">
                            <p style=""font-size:50px; font-weight:bold;""
                            >serious</p>
                            <div style=""width:240px; margin: auto;"">
                                <img src=""images/gray_21.png"" style= ""width:200px""alt=""img"">
                            </div>
                        </div>","138","","0","images/gray_21.png","","","","serious"
"","","","","","html-slider-response","44","289877","0.0-40.0","ajbyb59k26","NaN","<div style=""width:500px;"">
                            <p style=""font-size:50px; font-weight:bold;""
                            >serious</p>
                            <div style=""width:240px; margin: auto;"">
                                <img src=""images/gray_08.png"" style= ""width:200px""alt=""img"">
                            </div>
                        </div>","147","","0","images/gray_08.png","","","","serious"
"","","","","","html-slider-response","45","292110","0.0-41.0","ajbyb59k26","NaN","<div style=""width:500px;"">
                            <p style=""font-size:50px; font-weight:bold;""
                            >serious</p>
                            <div style=""width:240px; margin: auto;"">
                                <img src=""images/gray_22.png"" style= ""width:200px""alt=""img"">
                            </div>
                        </div>","-59","","0","images/gray_22.png","","","","serious"
"","","","","","html-slider-response","46","296127","0.0-42.0","ajbyb59k26","NaN","<div style=""width:500px;"">
                            <p style=""font-size:50px; font-weight:bold;""
                            >serious</p>
                            <div style=""width:240px; margin: auto;"">
                                <img src=""images/gray_13.png"" style= ""width:200px""alt=""img"">
                            </div>
                        </div>","-75","","0","images/gray_13.png","","","","serious"
"","","","","","html-slider-response","47","299159","0.0-43.0","ajbyb59k26","NaN","<div style=""width:500px;"">
                            <p style=""font-size:50px; font-weight:bold;""
                            >serious</p>
                            <div style=""width:240px; margin: auto;"">
                                <img src=""images/gray_28.png"" style= ""width:200px""alt=""img"">
                            </div>
                        </div>","36","","0","images/gray_28.png","","","","serious"
"","","","","","html-slider-response","48","301693","0.0-44.0","ajbyb59k26","NaN","<div style=""width:500px;"">
                            <p style=""font-size:50px; font-weight:bold;""
                            >serious</p>
                            <div style=""width:240px; margin: auto;"">
                                <img src=""images/gray_14.png"" style= ""width:200px""alt=""img"">
                            </div>
                        </div>","46","","0","images/gray_14.png","","","","serious"
"","","","","","html-slider-response","49","303677","0.0-45.0","ajbyb59k26","NaN","<div style=""width:500px;"">
                            <p style=""font-size:50px; font-weight:bold;""
                            >serious</p>
                            <div style=""width:240px; margin: auto;"">
                                <img src=""images/gray_12.png"" style= ""width:200px""alt=""img"">
                            </div>
                        </div>","-55","","0","images/gray_12.png","","","","serious"
"","","","","","html-slider-response","50","307777","0.0-46.0","ajbyb59k26","NaN","<div style=""width:500px;"">
                            <p style=""font-size:50px; font-weight:bold;""
                            >serious</p>
                            <div style=""width:240px; margin: auto;"">
                                <img src=""images/gray_07.png"" style= ""width:200px""alt=""img"">
                            </div>
                        </div>","74","","0","images/gray_07.png","","","","serious"
"","","","","","html-slider-response","51","310143","0.0-47.0","ajbyb59k26","NaN","<div style=""width:500px;"">
                            <p style=""font-size:50px; font-weight:bold;""
                            >serious</p>
                            <div style=""width:240px; margin: auto;"">
                                <img src=""images/gray_37.png"" style= ""width:200px""alt=""img"">
                            </div>
                        </div>","-81","","0","images/gray_37.png","","","","serious"
"","","","","","html-slider-response","52","312210","0.0-48.0","ajbyb59k26","NaN","<div style=""width:500px;"">
                            <p style=""font-size:50px; font-weight:bold;""
                            >serious</p>
                            <div style=""width:240px; margin: auto;"">
                                <img src=""images/gray_29.png"" style= ""width:200px""alt=""img"">
                            </div>
                        </div>","-74","","0","images/gray_29.png","","","","serious"
"","","","","","html-slider-response","53","314427","0.0-49.0","ajbyb59k26","NaN","<div style=""width:500px;"">
                            <p style=""font-size:50px; font-weight:bold;""
                            >serious</p>
                            <div style=""width:240px; margin: auto;"">
                                <img src=""images/gray_36.png"" style= ""width:200px""alt=""img"">
                            </div>
                        </div>","73","","0","images/gray_36.png","","","","serious"
"","","","","","html-slider-response","54","316927","0.0-50.0","ajbyb59k26","NaN","<div style=""width:500px;"">
                            <p style=""font-size:50px; font-weight:bold;""
                            >serious</p>
                            <div style=""width:240px; margin: auto;"">
                                <img src=""images/gray_33.png"" style= ""width:200px""alt=""img"">
                            </div>
                        </div>","82","","0","images/gray_33.png","","","","serious"
"","","","","","html-slider-response","55","319393","0.0-51.0","ajbyb59k26","NaN","<div style=""width:500px;"">
                            <p style=""font-size:50px; font-weight:bold;""
                            >serious</p>
                            <div style=""width:240px; margin: auto;"">
                                <img src=""images/gray_05.png"" style= ""width:200px""alt=""img"">
                            </div>
                        </div>","70","","0","images/gray_05.png","","","","serious"
"","","","","","html-slider-response","56","321427","0.0-52.0","ajbyb59k26","NaN","<div style=""width:500px;"">
                            <p style=""font-size:50px; font-weight:bold;""
                            >serious</p>
                            <div style=""width:240px; margin: auto;"">
                                <img src=""images/gray_34.png"" style= ""width:200px""alt=""img"">
                            </div>
                        </div>","-56","","0","images/gray_34.png","","","","serious"
"","","","","","html-slider-response","57","323661","0.0-53.0","ajbyb59k26","NaN","<div style=""width:500px;"">
                            <p style=""font-size:50px; font-weight:bold;""
                            >serious</p>
                            <div style=""width:240px; margin: auto;"">
                                <img src=""images/gray_10.png"" style= ""width:200px""alt=""img"">
                            </div>
                        </div>","113","","0","images/gray_10.png","","","","serious"
"","","","","","html-slider-response","58","325825","0.0-54.0","ajbyb59k26","NaN","<div style=""width:500px;"">
                            <p style=""font-size:50px; font-weight:bold;""
                            >serious</p>
                            <div style=""width:240px; margin: auto;"">
                                <img src=""images/gray_15.png"" style= ""width:200px""alt=""img"">
                            </div>
                        </div>","42","","0","images/gray_15.png","","","","serious"
"","","","","","html-slider-response","59","327775","0.0-55.0","ajbyb59k26","NaN","<div style=""width:500px;"">
                            <p style=""font-size:50px; font-weight:bold;""
                            >serious</p>
                            <div style=""width:240px; margin: auto;"">
                                <img src=""images/gray_20.png"" style= ""width:200px""alt=""img"">
                            </div>
                        </div>","-57","","0","images/gray_20.png","","","","serious"
"","","","","","html-slider-response","60","332576","0.0-56.0","ajbyb59k26","NaN","<div style=""width:500px;"">
                            <p style=""font-size:50px; font-weight:bold;""
                            >serious</p>
                            <div style=""width:240px; margin: auto;"">
                                <img src=""images/gray_44.png"" style= ""width:200px""alt=""img"">
                            </div>
                        </div>","78","","0","images/gray_44.png","","","","serious"
"","","","","","html-slider-response","61","334726","0.0-57.0","ajbyb59k26","NaN","<div style=""width:500px;"">
                            <p style=""font-size:50px; font-weight:bold;""
                            >serious</p>
                            <div style=""width:240px; margin: auto;"">
                                <img src=""images/gray_31.png"" style= ""width:200px""alt=""img"">
                            </div>
                        </div>","-80","","0","images/gray_31.png","","","","serious"
"","","","","","html-button-response","62","341215","0.0-58.0","ajbyb59k26","5988","<p>Great Job! You've finished block 1.<br></br> You have 7 block(s) left to go.<br></br></p>","0","","","","","","",""
"","","","","","html-button-response","63","379365","0.0-59.0","ajbyb59k26","38149","<p>In this block of trials, you will be asked to rate how much you associate each map with:</p > <p style = 'font-size:150%; font-weight: bold'>playful</p><br></br>","0","","","","","","",""
"","","","","","html-slider-response","64","382909","0.0-60.0","ajbyb59k26","NaN","<div style=""width:500px;"">
                            <p style=""font-size:50px; font-weight:bold;""
                            >playful</p>
                            <div style=""width:240px; margin: auto;"">
                                <img src=""images/gray_28.png"" style= ""width:200px""alt=""img"">
                            </div>
                        </div>","-70","","0","images/gray_28.png","","","","playful"
"","","","","","html-slider-response","65","387859","0.0-61.0","ajbyb59k26","NaN","<div style=""width:500px;"">
                            <p style=""font-size:50px; font-weight:bold;""
                            >playful</p>
                            <div style=""width:240px; margin: auto;"">
                                <img src=""images/gray_16.png"" style= ""width:200px""alt=""img"">
                            </div>
                        </div>","-70","","0","images/gray_16.png","","","","playful"
"","","","","","html-slider-response","66","392309","0.0-62.0","ajbyb59k26","NaN","<div style=""width:500px;"">
                            <p style=""font-size:50px; font-weight:bold;""
                            >playful</p>
                            <div style=""width:240px; margin: auto;"">
                                <img src=""images/gray_38.png"" style= ""width:200px""alt=""img"">
                            </div>
                        </div>","2","","0","images/gray_38.png","","","","playful"
"","","","","","html-slider-response","67","395259","0.0-63.0","ajbyb59k26","NaN","<div style=""width:500px;"">
                            <p style=""font-size:50px; font-weight:bold;""
                            >playful</p>
                            <div style=""width:240px; margin: auto;"">
                                <img src=""images/gray_44.png"" style= ""width:200px""alt=""img"">
                            </div>
                        </div>","-121","","0","images/gray_44.png","","","","playful"
"","","","","","html-slider-response","68","397508","0.0-64.0","ajbyb59k26","NaN","<div style=""width:500px;"">
                            <p style=""font-size:50px; font-weight:bold;""
                            >playful</p>
                            <div style=""width:240px; margin: auto;"">
                                <img src=""images/gray_23.png"" style= ""width:200px""alt=""img"">
                            </div>
                        </div>","-152","","0","images/gray_23.png","","","","playful"
"","","","","","html-slider-response","69","399142","0.0-65.0","ajbyb59k26","NaN","<div style=""width:500px;"">
                            <p style=""font-size:50px; font-weight:bold;""
                            >playful</p>
                            <div style=""width:240px; margin: auto;"">
                                <img src=""images/gray_01.png"" style= ""width:200px""alt=""img"">
                            </div>
                        </div>","-177","","0","images/gray_01.png","","","","playful"
"","","","","","html-slider-response","70","401326","0.0-66.0","ajbyb59k26","NaN","<div style=""width:500px;"">
                            <p style=""font-size:50px; font-weight:bold;""
                            >playful</p>
                            <div style=""width:240px; margin: auto;"">
                                <img src=""images/gray_24.png"" style= ""width:200px""alt=""img"">
                            </div>
                        </div>","-142","","0","images/gray_24.png","","","","playful"
"","","","","","html-slider-response","71","403225","0.0-67.0","ajbyb59k26","NaN","<div style=""width:500px;"">
                            <p style=""font-size:50px; font-weight:bold;""
                            >playful</p>
                            <div style=""width:240px; margin: auto;"">
                                <img src=""images/gray_06.png"" style= ""width:200px""alt=""img"">
                            </div>
                        </div>","-120","","0","images/gray_06.png","","","","playful"
"","","","","","html-slider-response","72","405443","0.0-68.0","ajbyb59k26","NaN","<div style=""width:500px;"">
                            <p style=""font-size:50px; font-weight:bold;""
                            >playful</p>
                            <div style=""width:240px; margin: auto;"">
                                <img src=""images/gray_05.png"" style= ""width:200px""alt=""img"">
                            </div>
                        </div>","-165","","0","images/gray_05.png","","","","playful"
"","","","","","html-slider-response","73","408824","0.0-69.0","ajbyb59k26","NaN","<div style=""width:500px;"">
                            <p style=""font-size:50px; font-weight:bold;""
                            >playful</p>
                            <div style=""width:240px; margin: auto;"">
                                <img src=""images/gray_22.png"" style= ""width:200px""alt=""img"">
                            </div>
                        </div>","14","","0","images/gray_22.png","","","","playful"
"","","","","","html-slider-response","74","410726","0.0-70.0","ajbyb59k26","NaN","<div style=""width:500px;"">
                            <p style=""font-size:50px; font-weight:bold;""
                            >playful</p>
                            <div style=""width:240px; margin: auto;"">
                                <img src=""images/gray_17.png"" style= ""width:200px""alt=""img"">
                            </div>
                        </div>","-23","","0","images/gray_17.png","","","","playful"
"","","","","","html-slider-response","75","412475","0.0-71.0","ajbyb59k26","NaN","<div style=""width:500px;"">
                            <p style=""font-size:50px; font-weight:bold;""
                            >playful</p>
                            <div style=""width:240px; margin: auto;"">
                                <img src=""images/gray_37.png"" style= ""width:200px""alt=""img"">
                            </div>
                        </div>","-26","","0","images/gray_37.png","","","","playful"
"","","","","","html-slider-response","76","414359","0.0-72.0","ajbyb59k26","NaN","<div style=""width:500px;"">
                            <p style=""font-size:50px; font-weight:bold;""
                            >playful</p>
                            <div style=""width:240px; margin: auto;"">
                                <img src=""images/gray_14.png"" style= ""width:200px""alt=""img"">
                            </div>
                        </div>","-50","","0","images/gray_14.png","","","","playful"
"","","","","","html-slider-response","77","421442","0.0-73.0","ajbyb59k26","NaN","<div style=""width:500px;"">
                            <p style=""font-size:50px; font-weight:bold;""
                            >playful</p>
                            <div style=""width:240px; margin: auto;"">
                                <img src=""images/gray_33.png"" style= ""width:200px""alt=""img"">
                            </div>
                        </div>","-74","","0","images/gray_33.png","","","","playful"
"","","","","","html-slider-response","78","424158","0.0-74.0","ajbyb59k26","NaN","<div style=""width:500px;"">
                            <p style=""font-size:50px; font-weight:bold;""
                            >playful</p>
                            <div style=""width:240px; margin: auto;"">
                                <img src=""images/gray_21.png"" style= ""width:200px""alt=""img"">
                            </div>
                        </div>","50","","0","images/gray_21.png","","","","playful"
"","","","","","html-slider-response","79","425941","0.0-75.0","ajbyb59k26","NaN","<div style=""width:500px;"">
                            <p style=""font-size:50px; font-weight:bold;""
                            >playful</p>
                            <div style=""width:240px; margin: auto;"">
                                <img src=""images/gray_02.png"" style= ""width:200px""alt=""img"">
                            </div>
                        </div>","-26","","0","images/gray_02.png","","","","playful"
"","","","","","html-slider-response","80","427725","0.0-76.0","ajbyb59k26","NaN","<div style=""width:500px;"">
                            <p style=""font-size:50px; font-weight:bold;""
                            >playful</p>
                            <div style=""width:240px; margin: auto;"">
                                <img src=""images/gray_20.png"" style= ""width:200px""alt=""img"">
                            </div>
                        </div>","-63","","0","images/gray_20.png","","","","playful"
"","","","","","html-slider-response","81","431291","0.0-77.0","ajbyb59k26","NaN","<div style=""width:500px;"">
                            <p style=""font-size:50px; font-weight:bold;""
                            >playful</p>
                            <div style=""width:240px; margin: auto;"">
                                <img src=""images/gray_30.png"" style= ""width:200px""alt=""img"">
                            </div>
                        </div>","-133","","0","images/gray_30.png","","","","playful"
"","","","","","html-slider-response","82","433992","0.0-78.0","ajbyb59k26","NaN","<div style=""width:500px;"">
                            <p style=""font-size:50px; font-weight:bold;""
                            >playful</p>
                            <div style=""width:240px; margin: auto;"">
                                <img src=""images/gray_07.png"" style= ""width:200px""alt=""img"">
                            </div>
                        </div>","54","","0","images/gray_07.png","","","","playful"
"","","","","","html-slider-response","83","436892","0.0-79.0","ajbyb59k26","NaN","<div style=""width:500px;"">
                            <p style=""font-size:50px; font-weight:bold;""
                            >playful</p>
                            <div style=""width:240px; margin: auto;"">
                                <img src=""images/gray_41.png"" style= ""width:200px""alt=""img"">
                            </div>
                        </div>","-159","","0","images/gray_41.png","","","","playful"
"","","","","","html-slider-response","84","439392","0.0-80.0","ajbyb59k26","NaN","<div style=""width:500px;"">
                            <p style=""font-size:50px; font-weight:bold;""
                            >playful</p>
                            <div style=""width:240px; margin: auto;"">
                                <img src=""images/gray_36.png"" style= ""width:200px""alt=""img"">
                            </div>
                        </div>","-157","","0","images/gray_36.png","","","","playful"
"","","","","","html-slider-response","85","441775","0.0-81.0","ajbyb59k26","NaN","<div style=""width:500px;"">
                            <p style=""font-size:50px; font-weight:bold;""
                            >playful</p>
                            <div style=""width:240px; margin: auto;"">
                                <img src=""images/gray_18.png"" style= ""width:200px""alt=""img"">
                            </div>
                        </div>","89","","0","images/gray_18.png","","","","playful"
"","","","","","html-slider-response","86","482224","0.0-82.0","ajbyb59k26","NaN","<div style=""width:500px;"">
                            <p style=""font-size:50px; font-weight:bold;""
                            >playful</p>
                            <div style=""width:240px; margin: auto;"">
                                <img src=""images/gray_09.png"" style= ""width:200px""alt=""img"">
                            </div>
                        </div>","-94","","0","images/gray_09.png","","","","playful"
"","","","","","html-slider-response","87","483925","0.0-83.0","ajbyb59k26","NaN","<div style=""width:500px;"">
                            <p style=""font-size:50px; font-weight:bold;""
                            >playful</p>
                            <div style=""width:240px; margin: auto;"">
                                <img src=""images/gray_11.png"" style= ""width:200px""alt=""img"">
                            </div>
                        </div>","-94","","0","images/gray_11.png","","","","playful"
"","","","","","html-slider-response","88","485243","0.0-84.0","ajbyb59k26","NaN","<div style=""width:500px;"">
                            <p style=""font-size:50px; font-weight:bold;""
                            >playful</p>
                            <div style=""width:240px; margin: auto;"">
                                <img src=""images/gray_31.png"" style= ""width:200px""alt=""img"">
                            </div>
                        </div>","-94","","0","images/gray_31.png","","","","playful"
"","","","","","html-slider-response","89","486508","0.0-85.0","ajbyb59k26","NaN","<div style=""width:500px;"">
                            <p style=""font-size:50px; font-weight:bold;""
                            >playful</p>
                            <div style=""width:240px; margin: auto;"">
                                <img src=""images/gray_40.png"" style= ""width:200px""alt=""img"">
                            </div>
                        </div>","-94","","0","images/gray_40.png","","","","playful"
"","","","","","html-slider-response","90","487707","0.0-86.0","ajbyb59k26","NaN","<div style=""width:500px;"">
                            <p style=""font-size:50px; font-weight:bold;""
                            >playful</p>
                            <div style=""width:240px; margin: auto;"">
                                <img src=""images/gray_29.png"" style= ""width:200px""alt=""img"">
                            </div>
                        </div>","-94","","0","images/gray_29.png","","","","playful"
"","","","","","html-slider-response","91","489025","0.0-87.0","ajbyb59k26","NaN","<div style=""width:500px;"">
                            <p style=""font-size:50px; font-weight:bold;""
                            >playful</p>
                            <div style=""width:240px; margin: auto;"">
                                <img src=""images/gray_08.png"" style= ""width:200px""alt=""img"">
                            </div>
                        </div>","-94","","0","images/gray_08.png","","","","playful"
"","","","","","html-slider-response","92","490124","0.0-88.0","ajbyb59k26","NaN","<div style=""width:500px;"">
                            <p style=""font-size:50px; font-weight:bold;""
                            >playful</p>
                            <div style=""width:240px; margin: auto;"">
                                <img src=""images/gray_03.png"" style= ""width:200px""alt=""img"">
                            </div>
                        </div>","-94","","0","images/gray_03.png","","","","playful"
"","","","","","html-slider-response","93","491092","0.0-89.0","ajbyb59k26","NaN","<div style=""width:500px;"">
                            <p style=""font-size:50px; font-weight:bold;""
                            >playful</p>
                            <div style=""width:240px; margin: auto;"">
                                <img src=""images/gray_19.png"" style= ""width:200px""alt=""img"">
                            </div>
                        </div>","-94","","0","images/gray_19.png","","","","playful"
"","","","","","html-slider-response","94","493507","0.0-90.0","ajbyb59k26","NaN","<div style=""width:500px;"">
                            <p style=""font-size:50px; font-weight:bold;""
                            >playful</p>
                            <div style=""width:240px; margin: auto;"">
                                <img src=""images/gray_35.png"" style= ""width:200px""alt=""img"">
                            </div>
                        </div>","41","","0","images/gray_35.png","","","","playful"
"","","","","","html-slider-response","95","495075","0.0-91.0","ajbyb59k26","NaN","<div style=""width:500px;"">
                            <p style=""font-size:50px; font-weight:bold;""
                            >playful</p>
                            <div style=""width:240px; margin: auto;"">
                                <img src=""images/gray_34.png"" style= ""width:200px""alt=""img"">
                            </div>
                        </div>","-32","","0","images/gray_34.png","","","","playful"
"","","","","","html-slider-response","96","496891","0.0-92.0","ajbyb59k26","NaN","<div style=""width:500px;"">
                            <p style=""font-size:50px; font-weight:bold;""
                            >playful</p>
                            <div style=""width:240px; margin: auto;"">
                                <img src=""images/gray_32.png"" style= ""width:200px""alt=""img"">
                            </div>
                        </div>","-88","","0","images/gray_32.png","","","","playful"
"","","","","","html-slider-response","97","498290","0.0-93.0","ajbyb59k26","NaN","<div style=""width:500px;"">
                            <p style=""font-size:50px; font-weight:bold;""
                            >playful</p>
                            <div style=""width:240px; margin: auto;"">
                                <img src=""images/gray_15.png"" style= ""width:200px""alt=""img"">
                            </div>
                        </div>","-90","","0","images/gray_15.png","","","","playful"
"","","","","","html-slider-response","98","499391","0.0-94.0","ajbyb59k26","NaN","<div style=""width:500px;"">
                            <p style=""font-size:50px; font-weight:bold;""
                            >playful</p>
                            <div style=""width:240px; margin: auto;"">
                                <img src=""images/gray_39.png"" style= ""width:200px""alt=""img"">
                            </div>
                        </div>","-91","","0","images/gray_39.png","","","","playful"
"","","","","","html-slider-response","99","500507","0.0-95.0","ajbyb59k26","NaN","<div style=""width:500px;"">
                            <p style=""font-size:50px; font-weight:bold;""
                            >playful</p>
                            <div style=""width:240px; margin: auto;"">
                                <img src=""images/gray_27.png"" style= ""width:200px""alt=""img"">
                            </div>
                        </div>","-91","","0","images/gray_27.png","","","","playful"
"","","","","","html-slider-response","100","501441","0.0-96.0","ajbyb59k26","NaN","<div style=""width:500px;"">
                            <p style=""font-size:50px; font-weight:bold;""
                            >playful</p>
                            <div style=""width:240px; margin: auto;"">
                                <img src=""images/gray_10.png"" style= ""width:200px""alt=""img"">
                            </div>
                        </div>","-91","","0","images/gray_10.png","","","","playful"
"","","","","","html-slider-response","101","502392","0.0-97.0","ajbyb59k26","NaN","<div style=""width:500px;"">
                            <p style=""font-size:50px; font-weight:bold;""
                            >playful</p>
                            <div style=""width:240px; margin: auto;"">
                                <img src=""images/gray_25.png"" style= ""width:200px""alt=""img"">
                            </div>
                        </div>","-91","","0","images/gray_25.png","","","","playful"
"","","","","","html-slider-response","102","503374","0.0-98.0","ajbyb59k26","NaN","<div style=""width:500px;"">
                            <p style=""font-size:50px; font-weight:bold;""
                            >playful</p>
                            <div style=""width:240px; margin: auto;"">
                                <img src=""images/gray_26.png"" style= ""width:200px""alt=""img"">
                            </div>
                        </div>","-91","","0","images/gray_26.png","","","","playful"
"","","","","","html-slider-response","103","505625","0.0-99.0","ajbyb59k26","NaN","<div style=""width:500px;"">
                            <p style=""font-size:50px; font-weight:bold;""
                            >playful</p>
                            <div style=""width:240px; margin: auto;"">
                                <img src=""images/gray_43.png"" style= ""width:200px""alt=""img"">
                            </div>
                        </div>","63","","0","images/gray_43.png","","","","playful"
"","","","","","html-slider-response","104","507275","0.0-100.0","ajbyb59k26","NaN","<div style=""width:500px;"">
                            <p style=""font-size:50px; font-weight:bold;""
                            >playful</p>
                            <div style=""width:240px; margin: auto;"">
                                <img src=""images/gray_12.png"" style= ""width:200px""alt=""img"">
                            </div>
                        </div>","79","","0","images/gray_12.png","","","","playful"
"","","","","","html-slider-response","105","509057","0.0-101.0","ajbyb59k26","NaN","<div style=""width:500px;"">
                            <p style=""font-size:50px; font-weight:bold;""
                            >playful</p>
                            <div style=""width:240px; margin: auto;"">
                                <img src=""images/gray_42.png"" style= ""width:200px""alt=""img"">
                            </div>
                        </div>","79","","0","images/gray_42.png","","","","playful"
"","","","","","html-slider-response","106","510091","0.0-102.0","ajbyb59k26","NaN","<div style=""width:500px;"">
                            <p style=""font-size:50px; font-weight:bold;""
                            >playful</p>
                            <div style=""width:240px; margin: auto;"">
                                <img src=""images/gray_13.png"" style= ""width:200px""alt=""img"">
                            </div>
                        </div>","79","","0","images/gray_13.png","","","","playful"
"","","","","","html-slider-response","107","511274","0.0-103.0","ajbyb59k26","NaN","<div style=""width:500px;"">
                            <p style=""font-size:50px; font-weight:bold;""
                            >playful</p>
                            <div style=""width:240px; margin: auto;"">
                                <img src=""images/gray_04.png"" style= ""width:200px""alt=""img"">
                            </div>
                        </div>","79","","0","images/gray_04.png","","","","playful"
"","","","","","html-button-response","108","513197","0.0-104.0","ajbyb59k26","1420","<p>Great Job! You've finished block 2.<br></br> You have 6 block(s) left to go.<br></br></p>","0","","","","","","",""
"","","","","","html-button-response","109","514264","0.0-105.0","ajbyb59k26","1065","<p>In this block of trials, you will be asked to rate how much you associate each map with:</p > <p style = 'font-size:150%; font-weight: bold'>positive</p><br></br>","0","","","","","","",""
"","","","","","html-slider-response","110","516441","0.0-106.0","ajbyb59k26","NaN","<div style=""width:500px;"">
                            <p style=""font-size:50px; font-weight:bold;""
                            >positive</p>
                            <div style=""width:240px; margin: auto;"">
                                <img src=""images/gray_36.png"" style= ""width:200px""alt=""img"">
                            </div>
                        </div>","-161","","0","images/gray_36.png","","","","positive"
"","","","","","html-slider-response","111","517658","0.0-107.0","ajbyb59k26","NaN","<div style=""width:500px;"">
                            <p style=""font-size:50px; font-weight:bold;""
                            >positive</p>
                            <div style=""width:240px; margin: auto;"">
                                <img src=""images/gray_19.png"" style= ""width:200px""alt=""img"">
                            </div>
                        </div>","-160","","0","images/gray_19.png","","","","positive"
"","","","","","html-slider-response","112","519407","0.0-108.0","ajbyb59k26","NaN","<div style=""width:500px;"">
                            <p style=""font-size:50px; font-weight:bold;""
                            >positive</p>
                            <div style=""width:240px; margin: auto;"">
                                <img src=""images/gray_38.png"" style= ""width:200px""alt=""img"">
                            </div>
                        </div>","-160","","0","images/gray_38.png","","","","positive"
"","","","","","html-slider-response","113","520822","0.0-109.0","ajbyb59k26","NaN","<div style=""width:500px;"">
                            <p style=""font-size:50px; font-weight:bold;""
                            >positive</p>
                            <div style=""width:240px; margin: auto;"">
                                <img src=""images/gray_28.png"" style= ""width:200px""alt=""img"">
                            </div>
                        </div>","-158","","0","images/gray_28.png","","","","positive"
"","","","","","html-slider-response","114","521823","0.0-110.0","ajbyb59k26","NaN","<div style=""width:500px;"">
                            <p style=""font-size:50px; font-weight:bold;""
                            >positive</p>
                            <div style=""width:240px; margin: auto;"">
                                <img src=""images/gray_20.png"" style= ""width:200px""alt=""img"">
                            </div>
                        </div>","-158","","0","images/gray_20.png","","","","positive"
"","","","","","html-slider-response","115","522824","0.0-111.0","ajbyb59k26","NaN","<div style=""width:500px;"">
                            <p style=""font-size:50px; font-weight:bold;""
                            >positive</p>
                            <div style=""width:240px; margin: auto;"">
                                <img src=""images/gray_15.png"" style= ""width:200px""alt=""img"">
                            </div>
                        </div>","-158","","0","images/gray_15.png","","","","positive"
"","","","","","html-slider-response","116","523825","0.0-112.0","ajbyb59k26","NaN","<div style=""width:500px;"">
                            <p style=""font-size:50px; font-weight:bold;""
                            >positive</p>
                            <div style=""width:240px; margin: auto;"">
                                <img src=""images/gray_42.png"" style= ""width:200px""alt=""img"">
                            </div>
                        </div>","-158","","0","images/gray_42.png","","","","positive"
"","","","","","html-slider-response","117","525958","0.0-113.0","ajbyb59k26","NaN","<div style=""width:500px;"">
                            <p style=""font-size:50px; font-weight:bold;""
                            >positive</p>
                            <div style=""width:240px; margin: auto;"">
                                <img src=""images/gray_33.png"" style= ""width:200px""alt=""img"">
                            </div>
                        </div>","-158","","0","images/gray_33.png","","","","positive"
"","","","","","html-slider-response","118","528407","0.0-114.0","ajbyb59k26","NaN","<div style=""width:500px;"">
                            <p style=""font-size:50px; font-weight:bold;""
                            >positive</p>
                            <div style=""width:240px; margin: auto;"">
                                <img src=""images/gray_31.png"" style= ""width:200px""alt=""img"">
                            </div>
                        </div>","121","","0","images/gray_31.png","","","","positive"
"","","","","","html-slider-response","119","530242","0.0-115.0","ajbyb59k26","NaN","<div style=""width:500px;"">
                            <p style=""font-size:50px; font-weight:bold;""
                            >positive</p>
                            <div style=""width:240px; margin: auto;"">
                                <img src=""images/gray_30.png"" style= ""width:200px""alt=""img"">
                            </div>
                        </div>","-94","","0","images/gray_30.png","","","","positive"
"","","","","","html-slider-response","120","532507","0.0-116.0","ajbyb59k26","NaN","<div style=""width:500px;"">
                            <p style=""font-size:50px; font-weight:bold;""
                            >positive</p>
                            <div style=""width:240px; margin: auto;"">
                                <img src=""images/gray_05.png"" style= ""width:200px""alt=""img"">
                            </div>
                        </div>","-103","","0","images/gray_05.png","","","","positive"
"","","","","","html-slider-response","121","533841","0.0-117.0","ajbyb59k26","NaN","<div style=""width:500px;"">
                            <p style=""font-size:50px; font-weight:bold;""
                            >positive</p>
                            <div style=""width:240px; margin: auto;"">
                                <img src=""images/gray_39.png"" style= ""width:200px""alt=""img"">
                            </div>
                        </div>","-103","","0","images/gray_39.png","","","","positive"
"","","","","","html-slider-response","122","535025","0.0-118.0","ajbyb59k26","NaN","<div style=""width:500px;"">
                            <p style=""font-size:50px; font-weight:bold;""
                            >positive</p>
                            <div style=""width:240px; margin: auto;"">
                                <img src=""images/gray_37.png"" style= ""width:200px""alt=""img"">
                            </div>
                        </div>","-103","","0","images/gray_37.png","","","","positive"
"","","","","","html-slider-response","123","538274","0.0-119.0","ajbyb59k26","NaN","<div style=""width:500px;"">
                            <p style=""font-size:50px; font-weight:bold;""
                            >positive</p>
                            <div style=""width:240px; margin: auto;"">
                                <img src=""images/gray_07.png"" style= ""width:200px""alt=""img"">
                            </div>
                        </div>","54","","0","images/gray_07.png","","","","positive"
"","","","","","html-slider-response","124","540224","0.0-120.0","ajbyb59k26","NaN","<div style=""width:500px;"">
                            <p style=""font-size:50px; font-weight:bold;""
                            >positive</p>
                            <div style=""width:240px; margin: auto;"">
                                <img src=""images/gray_16.png"" style= ""width:200px""alt=""img"">
                            </div>
                        </div>","-122","","0","images/gray_16.png","","","","positive"
"","","","","","html-slider-response","125","543274","0.0-121.0","ajbyb59k26","NaN","<div style=""width:500px;"">
                            <p style=""font-size:50px; font-weight:bold;""
                            >positive</p>
                            <div style=""width:240px; margin: auto;"">
                                <img src=""images/gray_09.png"" style= ""width:200px""alt=""img"">
                            </div>
                        </div>","-147","","0","images/gray_09.png","","","","positive"
"","","","","","html-slider-response","126","547623","0.0-122.0","ajbyb59k26","NaN","<div style=""width:500px;"">
                            <p style=""font-size:50px; font-weight:bold;""
                            >positive</p>
                            <div style=""width:240px; margin: auto;"">
                                <img src=""images/gray_02.png"" style= ""width:200px""alt=""img"">
                            </div>
                        </div>","-147","","0","images/gray_02.png","","","","positive"
"","","","","","html-slider-response","127","549440","0.0-123.0","ajbyb59k26","NaN","<div style=""width:500px;"">
                            <p style=""font-size:50px; font-weight:bold;""
                            >positive</p>
                            <div style=""width:240px; margin: auto;"">
                                <img src=""images/gray_34.png"" style= ""width:200px""alt=""img"">
                            </div>
                        </div>","100","","0","images/gray_34.png","","","","positive"
"","","","","","html-slider-response","128","551324","0.0-124.0","ajbyb59k26","NaN","<div style=""width:500px;"">
                            <p style=""font-size:50px; font-weight:bold;""
                            >positive</p>
                            <div style=""width:240px; margin: auto;"">
                                <img src=""images/gray_40.png"" style= ""width:200px""alt=""img"">
                            </div>
                        </div>","-107","","0","images/gray_40.png","","","","positive"
"","","","","","html-slider-response","129","554974","0.0-125.0","ajbyb59k26","NaN","<div style=""width:500px;"">
                            <p style=""font-size:50px; font-weight:bold;""
                            >positive</p>
                            <div style=""width:240px; margin: auto;"">
                                <img src=""images/gray_17.png"" style= ""width:200px""alt=""img"">
                            </div>
                        </div>","33","","0","images/gray_17.png","","","","positive"
"","","","","","html-slider-response","130","556756","0.0-126.0","ajbyb59k26","NaN","<div style=""width:500px;"">
                            <p style=""font-size:50px; font-weight:bold;""
                            >positive</p>
                            <div style=""width:240px; margin: auto;"">
                                <img src=""images/gray_13.png"" style= ""width:200px""alt=""img"">
                            </div>
                        </div>","-66","","0","images/gray_13.png","","","","positive"
"","","","","","html-slider-response","131","558725","0.0-127.0","ajbyb59k26","NaN","<div style=""width:500px;"">
                            <p style=""font-size:50px; font-weight:bold;""
                            >positive</p>
                            <div style=""width:240px; margin: auto;"">
                                <img src=""images/gray_03.png"" style= ""width:200px""alt=""img"">
                            </div>
                        </div>","31","","0","images/gray_03.png","","","","positive"
"","","","","","html-slider-response","132","561909","0.0-128.0","ajbyb59k26","NaN","<div style=""width:500px;"">
                            <p style=""font-size:50px; font-weight:bold;""
                            >positive</p>
                            <div style=""width:240px; margin: auto;"">
                                <img src=""images/gray_11.png"" style= ""width:200px""alt=""img"">
                            </div>
                        </div>","154","","0","images/gray_11.png","","","","positive"
"","","","","","html-slider-response","133","564374","0.0-129.0","ajbyb59k26","NaN","<div style=""width:500px;"">
                            <p style=""font-size:50px; font-weight:bold;""
                            >positive</p>
                            <div style=""width:240px; margin: auto;"">
                                <img src=""images/gray_22.png"" style= ""width:200px""alt=""img"">
                            </div>
                        </div>","-109","","0","images/gray_22.png","","","","positive"
"","","","","","html-slider-response","134","573608","0.0-130.0","ajbyb59k26","NaN","<div style=""width:500px;"">
                            <p style=""font-size:50px; font-weight:bold;""
                            >positive</p>
                            <div style=""width:240px; margin: auto;"">
                                <img src=""images/gray_29.png"" style= ""width:200px""alt=""img"">
                            </div>
                        </div>","103","","0","images/gray_29.png","","","","positive"
"","","","","","html-slider-response","135","575856","0.0-131.0","ajbyb59k26","NaN","<div style=""width:500px;"">
                            <p style=""font-size:50px; font-weight:bold;""
                            >positive</p>
                            <div style=""width:240px; margin: auto;"">
                                <img src=""images/gray_04.png"" style= ""width:200px""alt=""img"">
                            </div>
                        </div>","-91","","0","images/gray_04.png","","","","positive"
"","","","","","html-slider-response","136","577357","0.0-132.0","ajbyb59k26","NaN","<div style=""width:500px;"">
                            <p style=""font-size:50px; font-weight:bold;""
                            >positive</p>
                            <div style=""width:240px; margin: auto;"">
                                <img src=""images/gray_32.png"" style= ""width:200px""alt=""img"">
                            </div>
                        </div>","-99","","0","images/gray_32.png","","","","positive"
"","","","","","html-slider-response","137","578507","0.0-133.0","ajbyb59k26","NaN","<div style=""width:500px;"">
                            <p style=""font-size:50px; font-weight:bold;""
                            >positive</p>
                            <div style=""width:240px; margin: auto;"">
                                <img src=""images/gray_25.png"" style= ""width:200px""alt=""img"">
                            </div>
                        </div>","-99","","0","images/gray_25.png","","","","positive"
"","","","","","html-slider-response","138","579458","0.0-134.0","ajbyb59k26","NaN","<div style=""width:500px;"">
                            <p style=""font-size:50px; font-weight:bold;""
                            >positive</p>
                            <div style=""width:240px; margin: auto;"">
                                <img src=""images/gray_27.png"" style= ""width:200px""alt=""img"">
                            </div>
                        </div>","-99","","0","images/gray_27.png","","","","positive"
"","","","","","html-slider-response","139","580440","0.0-135.0","ajbyb59k26","NaN","<div style=""width:500px;"">
                            <p style=""font-size:50px; font-weight:bold;""
                            >positive</p>
                            <div style=""width:240px; margin: auto;"">
                                <img src=""images/gray_35.png"" style= ""width:200px""alt=""img"">
                            </div>
                        </div>","-99","","0","images/gray_35.png","","","","positive"
"","","","","","html-slider-response","140","581673","0.0-136.0","ajbyb59k26","NaN","<div style=""width:500px;"">
                            <p style=""font-size:50px; font-weight:bold;""
                            >positive</p>
                            <div style=""width:240px; margin: auto;"">
                                <img src=""images/gray_43.png"" style= ""width:200px""alt=""img"">
                            </div>
                        </div>","-149","","0","images/gray_43.png","","","","positive"
"","","","","","html-slider-response","141","582690","0.0-137.0","ajbyb59k26","NaN","<div style=""width:500px;"">
                            <p style=""font-size:50px; font-weight:bold;""
                            >positive</p>
                            <div style=""width:240px; margin: auto;"">
                                <img src=""images/gray_26.png"" style= ""width:200px""alt=""img"">
                            </div>
                        </div>","-144","","0","images/gray_26.png","","","","positive"
"","","","","","html-slider-response","142","583591","0.0-138.0","ajbyb59k26","NaN","<div style=""width:500px;"">
                            <p style=""font-size:50px; font-weight:bold;""
                            >positive</p>
                            <div style=""width:240px; margin: auto;"">
                                <img src=""images/gray_24.png"" style= ""width:200px""alt=""img"">
                            </div>
                        </div>","-144","","0","images/gray_24.png","","","","positive"
"","","","","","html-slider-response","143","584574","0.0-139.0","ajbyb59k26","NaN","<div style=""width:500px;"">
                            <p style=""font-size:50px; font-weight:bold;""
                            >positive</p>
                            <div style=""width:240px; margin: auto;"">
                                <img src=""images/gray_01.png"" style= ""width:200px""alt=""img"">
                            </div>
                        </div>","-144","","0","images/gray_01.png","","","","positive"
"","","","","","html-slider-response","144","585541","0.0-140.0","ajbyb59k26","NaN","<div style=""width:500px;"">
                            <p style=""font-size:50px; font-weight:bold;""
                            >positive</p>
                            <div style=""width:240px; margin: auto;"">
                                <img src=""images/gray_06.png"" style= ""width:200px""alt=""img"">
                            </div>
                        </div>","-144","","0","images/gray_06.png","","","","positive"
"","","","","","html-slider-response","145","587441","0.0-141.0","ajbyb59k26","NaN","<div style=""width:500px;"">
                            <p style=""font-size:50px; font-weight:bold;""
                            >positive</p>
                            <div style=""width:240px; margin: auto;"">
                                <img src=""images/gray_23.png"" style= ""width:200px""alt=""img"">
                            </div>
                        </div>","138","","0","images/gray_23.png","","","","positive"
"","","","","","html-slider-response","146","589122","0.0-142.0","ajbyb59k26","NaN","<div style=""width:500px;"">
                            <p style=""font-size:50px; font-weight:bold;""
                            >positive</p>
                            <div style=""width:240px; margin: auto;"">
                                <img src=""images/gray_14.png"" style= ""width:200px""alt=""img"">
                            </div>
                        </div>","54","","0","images/gray_14.png","","","","positive"
"","","","","","html-slider-response","147","591406","0.0-143.0","ajbyb59k26","NaN","<div style=""width:500px;"">
                            <p style=""font-size:50px; font-weight:bold;""
                            >positive</p>
                            <div style=""width:240px; margin: auto;"">
                                <img src=""images/gray_44.png"" style= ""width:200px""alt=""img"">
                            </div>
                        </div>","-65","","0","images/gray_44.png","","","","positive"
"","","","","","html-slider-response","148","592791","0.0-144.0","ajbyb59k26","NaN","<div style=""width:500px;"">
                            <p style=""font-size:50px; font-weight:bold;""
                            >positive</p>
                            <div style=""width:240px; margin: auto;"">
                                <img src=""images/gray_41.png"" style= ""width:200px""alt=""img"">
                            </div>
                        </div>","-65","","0","images/gray_41.png","","","","positive"
"","","","","","html-slider-response","149","595174","0.0-145.0","ajbyb59k26","NaN","<div style=""width:500px;"">
                            <p style=""font-size:50px; font-weight:bold;""
                            >positive</p>
                            <div style=""width:240px; margin: auto;"">
                                <img src=""images/gray_21.png"" style= ""width:200px""alt=""img"">
                            </div>
                        </div>","129","","0","images/gray_21.png","","","","positive"
"","","","","","html-slider-response","150","597040","0.0-146.0","ajbyb59k26","NaN","<div style=""width:500px;"">
                            <p style=""font-size:50px; font-weight:bold;""
                            >positive</p>
                            <div style=""width:240px; margin: auto;"">
                                <img src=""images/gray_12.png"" style= ""width:200px""alt=""img"">
                            </div>
                        </div>","-80","","0","images/gray_12.png","","","","positive"
"","","","","","html-slider-response","151","598424","0.0-147.0","ajbyb59k26","NaN","<div style=""width:500px;"">
                            <p style=""font-size:50px; font-weight:bold;""
                            >positive</p>
                            <div style=""width:240px; margin: auto;"">
                                <img src=""images/gray_08.png"" style= ""width:200px""alt=""img"">
                            </div>
                        </div>","-80","","0","images/gray_08.png","","","","positive"
"","","","","","html-slider-response","152","599556","0.0-148.0","ajbyb59k26","NaN","<div style=""width:500px;"">
                            <p style=""font-size:50px; font-weight:bold;""
                            >positive</p>
                            <div style=""width:240px; margin: auto;"">
                                <img src=""images/gray_18.png"" style= ""width:200px""alt=""img"">
                            </div>
                        </div>","-80","","0","images/gray_18.png","","","","positive"
"","","","","","html-slider-response","153","601024","0.0-149.0","ajbyb59k26","NaN","<div style=""width:500px;"">
                            <p style=""font-size:50px; font-weight:bold;""
                            >positive</p>
                            <div style=""width:240px; margin: auto;"">
                                <img src=""images/gray_10.png"" style= ""width:200px""alt=""img"">
                            </div>
                        </div>","-80","","0","images/gray_10.png","","","","positive"
"","","","","","html-button-response","154","606079","0.0-150.0","ajbyb59k26","4552","<p>Great Job! You've finished block 3.<br></br> You have 5 block(s) left to go.<br></br></p>","0","","","","","","",""
"","","","","","html-button-response","155","609530","0.0-151.0","ajbyb59k26","3449","<p>In this block of trials, you will be asked to rate how much you associate each map with:</p > <p style = 'font-size:150%; font-weight: bold'>negative</p><br></br>","0","","","","","","",""
"","","","","","html-slider-response","156","614707","0.0-152.0","ajbyb59k26","NaN","<div style=""width:500px;"">
                            <p style=""font-size:50px; font-weight:bold;""
                            >negative</p>
                            <div style=""width:240px; margin: auto;"">
                                <img src=""images/gray_43.png"" style= ""width:200px""alt=""img"">
                            </div>
                        </div>","-94","","0","images/gray_43.png","","","","negative"
"","","","","","html-slider-response","157","616524","0.0-153.0","ajbyb59k26","NaN","<div style=""width:500px;"">
                            <p style=""font-size:50px; font-weight:bold;""
                            >negative</p>
                            <div style=""width:240px; margin: auto;"">
                                <img src=""images/gray_18.png"" style= ""width:200px""alt=""img"">
                            </div>
                        </div>","90","","0","images/gray_18.png","","","","negative"
"","","","","","html-slider-response","158","618674","0.0-154.0","ajbyb59k26","NaN","<div style=""width:500px;"">
                            <p style=""font-size:50px; font-weight:bold;""
                            >negative</p>
                            <div style=""width:240px; margin: auto;"">
                                <img src=""images/gray_09.png"" style= ""width:200px""alt=""img"">
                            </div>
                        </div>","68","","0","images/gray_09.png","","","","negative"
"","","","","","html-slider-response","159","739858","0.0-155.0","ajbyb59k26","NaN","<div style=""width:500px;"">
                            <p style=""font-size:50px; font-weight:bold;""
                            >negative</p>
                            <div style=""width:240px; margin: auto;"">
                                <img src=""images/gray_20.png"" style= ""width:200px""alt=""img"">
                            </div>
                        </div>","68","","0","images/gray_20.png","","","","negative"
"","","","","","html-slider-response","160","741155","0.0-156.0","ajbyb59k26","NaN","<div style=""width:500px;"">
                            <p style=""font-size:50px; font-weight:bold;""
                            >negative</p>
                            <div style=""width:240px; margin: auto;"">
                                <img src=""images/gray_06.png"" style= ""width:200px""alt=""img"">
                            </div>
                        </div>","68","","0","images/gray_06.png","","","","negative"
"","","","","","html-slider-response","161","744873","0.0-157.0","ajbyb59k26","NaN","<div style=""width:500px;"">
                            <p style=""font-size:50px; font-weight:bold;""
                            >negative</p>
                            <div style=""width:240px; margin: auto;"">
                                <img src=""images/gray_42.png"" style= ""width:200px""alt=""img"">
                            </div>
                        </div>","41","","0","images/gray_42.png","","","","negative"
"","","","","","html-slider-response","162","746857","0.0-158.0","ajbyb59k26","NaN","<div style=""width:500px;"">
                            <p style=""font-size:50px; font-weight:bold;""
                            >negative</p>
                            <div style=""width:240px; margin: auto;"">
                                <img src=""images/gray_11.png"" style= ""width:200px""alt=""img"">
                            </div>
                        </div>","178","","0","images/gray_11.png","","","","negative"
"","","","","","html-slider-response","163","748106","0.0-159.0","ajbyb59k26","NaN","<div style=""width:500px;"">
                            <p style=""font-size:50px; font-weight:bold;""
                            >negative</p>
                            <div style=""width:240px; margin: auto;"">
                                <img src=""images/gray_16.png"" style= ""width:200px""alt=""img"">
                            </div>
                        </div>","178","","0","images/gray_16.png","","","","negative"
"","","","","","html-slider-response","164","749689","0.0-160.0","ajbyb59k26","NaN","<div style=""width:500px;"">
                            <p style=""font-size:50px; font-weight:bold;""
                            >negative</p>
                            <div style=""width:240px; margin: auto;"">
                                <img src=""images/gray_41.png"" style= ""width:200px""alt=""img"">
                            </div>
                        </div>","154","","0","images/gray_41.png","","","","negative"
"","","","","","html-slider-response","165","753756","0.0-161.0","ajbyb59k26","NaN","<div style=""width:500px;"">
                            <p style=""font-size:50px; font-weight:bold;""
                            >negative</p>
                            <div style=""width:240px; margin: auto;"">
                                <img src=""images/gray_21.png"" style= ""width:200px""alt=""img"">
                            </div>
                        </div>","-16","","0","images/gray_21.png","","","","negative"
"","","","","","html-slider-response","166","756023","0.0-162.0","ajbyb59k26","NaN","<div style=""width:500px;"">
                            <p style=""font-size:50px; font-weight:bold;""
                            >negative</p>
                            <div style=""width:240px; margin: auto;"">
                                <img src=""images/gray_27.png"" style= ""width:200px""alt=""img"">
                            </div>
                        </div>","157","","0","images/gray_27.png","","","","negative"
"","","","","","html-slider-response","167","758622","0.0-163.0","ajbyb59k26","NaN","<div style=""width:500px;"">
                            <p style=""font-size:50px; font-weight:bold;""
                            >negative</p>
                            <div style=""width:240px; margin: auto;"">
                                <img src=""images/gray_01.png"" style= ""width:200px""alt=""img"">
                            </div>
                        </div>","-89","","0","images/gray_01.png","","","","negative"
"","","","","","html-slider-response","168","761322","0.0-164.0","ajbyb59k26","NaN","<div style=""width:500px;"">
                            <p style=""font-size:50px; font-weight:bold;""
                            >negative</p>
                            <div style=""width:240px; margin: auto;"">
                                <img src=""images/gray_19.png"" style= ""width:200px""alt=""img"">
                            </div>
                        </div>","45","","0","images/gray_19.png","","","","negative"
"","","","","","html-slider-response","169","763255","0.0-165.0","ajbyb59k26","NaN","<div style=""width:500px;"">
                            <p style=""font-size:50px; font-weight:bold;""
                            >negative</p>
                            <div style=""width:240px; margin: auto;"">
                                <img src=""images/gray_32.png"" style= ""width:200px""alt=""img"">
                            </div>
                        </div>","-45","","0","images/gray_32.png","","","","negative"
"","","","","","html-slider-response","170","767772","0.0-166.0","ajbyb59k26","NaN","<div style=""width:500px;"">
                            <p style=""font-size:50px; font-weight:bold;""
                            >negative</p>
                            <div style=""width:240px; margin: auto;"">
                                <img src=""images/gray_12.png"" style= ""width:200px""alt=""img"">
                            </div>
                        </div>","-122","","0","images/gray_12.png","","","","negative"
"","","","","","html-slider-response","171","769874","0.0-167.0","ajbyb59k26","NaN","<div style=""width:500px;"">
                            <p style=""font-size:50px; font-weight:bold;""
                            >negative</p>
                            <div style=""width:240px; margin: auto;"">
                                <img src=""images/gray_07.png"" style= ""width:200px""alt=""img"">
                            </div>
                        </div>","106","","0","images/gray_07.png","","","","negative"
"","","","","","html-slider-response","172","772906","0.0-168.0","ajbyb59k26","NaN","<div style=""width:500px;"">
                            <p style=""font-size:50px; font-weight:bold;""
                            >negative</p>
                            <div style=""width:240px; margin: auto;"">
                                <img src=""images/gray_34.png"" style= ""width:200px""alt=""img"">
                            </div>
                        </div>","-155","","0","images/gray_34.png","","","","negative"
"","","","","","html-slider-response","173","775607","0.0-169.0","ajbyb59k26","NaN","<div style=""width:500px;"">
                            <p style=""font-size:50px; font-weight:bold;""
                            >negative</p>
                            <div style=""width:240px; margin: auto;"">
                                <img src=""images/gray_13.png"" style= ""width:200px""alt=""img"">
                            </div>
                        </div>","26","","0","images/gray_13.png","","","","negative"
"","","","","","html-slider-response","174","777773","0.0-170.0","ajbyb59k26","NaN","<div style=""width:500px;"">
                            <p style=""font-size:50px; font-weight:bold;""
                            >negative</p>
                            <div style=""width:240px; margin: auto;"">
                                <img src=""images/gray_31.png"" style= ""width:200px""alt=""img"">
                            </div>
                        </div>","-177","","0","images/gray_31.png","","","","negative"
"","","","","","html-slider-response","175","779339","0.0-171.0","ajbyb59k26","NaN","<div style=""width:500px;"">
                            <p style=""font-size:50px; font-weight:bold;""
                            >negative</p>
                            <div style=""width:240px; margin: auto;"">
                                <img src=""images/gray_29.png"" style= ""width:200px""alt=""img"">
                            </div>
                        </div>","-177","","0","images/gray_29.png","","","","negative"
"","","","","","html-slider-response","176","781672","0.0-172.0","ajbyb59k26","NaN","<div style=""width:500px;"">
                            <p style=""font-size:50px; font-weight:bold;""
                            >negative</p>
                            <div style=""width:240px; margin: auto;"">
                                <img src=""images/gray_44.png"" style= ""width:200px""alt=""img"">
                            </div>
                        </div>","118","","0","images/gray_44.png","","","","negative"
"","","","","","html-slider-response","177","783640","0.0-173.0","ajbyb59k26","NaN","<div style=""width:500px;"">
                            <p style=""font-size:50px; font-weight:bold;""
                            >negative</p>
                            <div style=""width:240px; margin: auto;"">
                                <img src=""images/gray_30.png"" style= ""width:200px""alt=""img"">
                            </div>
                        </div>","178","","0","images/gray_30.png","","","","negative"
"","","","","","html-slider-response","178","785172","0.0-174.0","ajbyb59k26","NaN","<div style=""width:500px;"">
                            <p style=""font-size:50px; font-weight:bold;""
                            >negative</p>
                            <div style=""width:240px; margin: auto;"">
                                <img src=""images/gray_10.png"" style= ""width:200px""alt=""img"">
                            </div>
                        </div>","171","","0","images/gray_10.png","","","","negative"
"","","","","","html-slider-response","179","788039","0.0-175.0","ajbyb59k26","NaN","<div style=""width:500px;"">
                            <p style=""font-size:50px; font-weight:bold;""
                            >negative</p>
                            <div style=""width:240px; margin: auto;"">
                                <img src=""images/gray_35.png"" style= ""width:200px""alt=""img"">
                            </div>
                        </div>","-54","","0","images/gray_35.png","","","","negative"
"","","","","","html-slider-response","180","790605","0.0-176.0","ajbyb59k26","NaN","<div style=""width:500px;"">
                            <p style=""font-size:50px; font-weight:bold;""
                            >negative</p>
                            <div style=""width:240px; margin: auto;"">
                                <img src=""images/gray_15.png"" style= ""width:200px""alt=""img"">
                            </div>
                        </div>","-18","","0","images/gray_15.png","","","","negative"
"","","","","","html-slider-response","181","978453","0.0-177.0","ajbyb59k26","NaN","<div style=""width:500px;"">
                            <p style=""font-size:50px; font-weight:bold;""
                            >negative</p>
                            <div style=""width:240px; margin: auto;"">
                                <img src=""images/gray_25.png"" style= ""width:200px""alt=""img"">
                            </div>
                        </div>","73","","0","images/gray_25.png","","","","negative"
"","","","","","html-slider-response","182","981553","0.0-178.0","ajbyb59k26","NaN","<div style=""width:500px;"">
                            <p style=""font-size:50px; font-weight:bold;""
                            >negative</p>
                            <div style=""width:240px; margin: auto;"">
                                <img src=""images/gray_14.png"" style= ""width:200px""alt=""img"">
                            </div>
                        </div>","121","","0","images/gray_14.png","","","","negative"
"","","","","","html-slider-response","183","983486","0.0-179.0","ajbyb59k26","NaN","<div style=""width:500px;"">
                            <p style=""font-size:50px; font-weight:bold;""
                            >negative</p>
                            <div style=""width:240px; margin: auto;"">
                                <img src=""images/gray_39.png"" style= ""width:200px""alt=""img"">
                            </div>
                        </div>","-30","","0","images/gray_39.png","","","","negative"
"","","","","","html-slider-response","184","985185","0.0-180.0","ajbyb59k26","NaN","<div style=""width:500px;"">
                            <p style=""font-size:50px; font-weight:bold;""
                            >negative</p>
                            <div style=""width:240px; margin: auto;"">
                                <img src=""images/gray_37.png"" style= ""width:200px""alt=""img"">
                            </div>
                        </div>","51","","0","images/gray_37.png","","","","negative"
"","","","","","html-slider-response","185","986773","0.0-181.0","ajbyb59k26","NaN","<div style=""width:500px;"">
                            <p style=""font-size:50px; font-weight:bold;""
                            >negative</p>
                            <div style=""width:240px; margin: auto;"">
                                <img src=""images/gray_02.png"" style= ""width:200px""alt=""img"">
                            </div>
                        </div>","66","","0","images/gray_02.png","","","","negative"
"","","","","","html-slider-response","186","988219","0.0-182.0","ajbyb59k26","NaN","<div style=""width:500px;"">
                            <p style=""font-size:50px; font-weight:bold;""
                            >negative</p>
                            <div style=""width:240px; margin: auto;"">
                                <img src=""images/gray_23.png"" style= ""width:200px""alt=""img"">
                            </div>
                        </div>","106","","0","images/gray_23.png","","","","negative"
"","","","","","html-slider-response","187","990270","0.0-183.0","ajbyb59k26","NaN","<div style=""width:500px;"">
                            <p style=""font-size:50px; font-weight:bold;""
                            >negative</p>
                            <div style=""width:240px; margin: auto;"">
                                <img src=""images/gray_38.png"" style= ""width:200px""alt=""img"">
                            </div>
                        </div>","-105","","0","images/gray_38.png","","","","negative"
"","","","","","html-slider-response","188","992771","0.0-184.0","ajbyb59k26","NaN","<div style=""width:500px;"">
                            <p style=""font-size:50px; font-weight:bold;""
                            >negative</p>
                            <div style=""width:240px; margin: auto;"">
                                <img src=""images/gray_22.png"" style= ""width:200px""alt=""img"">
                            </div>
                        </div>","-105","","0","images/gray_22.png","","","","negative"
"","","","","","html-slider-response","189","995369","0.0-185.0","ajbyb59k26","NaN","<div style=""width:500px;"">
                            <p style=""font-size:50px; font-weight:bold;""
                            >negative</p>
                            <div style=""width:240px; margin: auto;"">
                                <img src=""images/gray_28.png"" style= ""width:200px""alt=""img"">
                            </div>
                        </div>","142","","0","images/gray_28.png","","","","negative"
"","","","","","html-slider-response","190","996637","0.0-186.0","ajbyb59k26","NaN","<div style=""width:500px;"">
                            <p style=""font-size:50px; font-weight:bold;""
                            >negative</p>
                            <div style=""width:240px; margin: auto;"">
                                <img src=""images/gray_05.png"" style= ""width:200px""alt=""img"">
                            </div>
                        </div>","142","","0","images/gray_05.png","","","","negative"
"","","","","","html-slider-response","191","998188","0.0-187.0","ajbyb59k26","NaN","<div style=""width:500px;"">
                            <p style=""font-size:50px; font-weight:bold;""
                            >negative</p>
                            <div style=""width:240px; margin: auto;"">
                                <img src=""images/gray_26.png"" style= ""width:200px""alt=""img"">
                            </div>
                        </div>","142","","0","images/gray_26.png","","","","negative"
"","","","","","html-slider-response","192","999404","0.0-188.0","ajbyb59k26","NaN","<div style=""width:500px;"">
                            <p style=""font-size:50px; font-weight:bold;""
                            >negative</p>
                            <div style=""width:240px; margin: auto;"">
                                <img src=""images/gray_40.png"" style= ""width:200px""alt=""img"">
                            </div>
                        </div>","142","","0","images/gray_40.png","","","","negative"
"","","","","","html-slider-response","193","1001453","0.0-189.0","ajbyb59k26","NaN","<div style=""width:500px;"">
                            <p style=""font-size:50px; font-weight:bold;""
                            >negative</p>
                            <div style=""width:240px; margin: auto;"">
                                <img src=""images/gray_17.png"" style= ""width:200px""alt=""img"">
                            </div>
                        </div>","166","","0","images/gray_17.png","","","","negative"
"","","","","","html-slider-response","194","1003287","0.0-190.0","ajbyb59k26","NaN","<div style=""width:500px;"">
                            <p style=""font-size:50px; font-weight:bold;""
                            >negative</p>
                            <div style=""width:240px; margin: auto;"">
                                <img src=""images/gray_33.png"" style= ""width:200px""alt=""img"">
                            </div>
                        </div>","186","","0","images/gray_33.png","","","","negative"
"","","","","","html-slider-response","195","1006237","0.0-191.0","ajbyb59k26","NaN","<div style=""width:500px;"">
                            <p style=""font-size:50px; font-weight:bold;""
                            >negative</p>
                            <div style=""width:240px; margin: auto;"">
                                <img src=""images/gray_36.png"" style= ""width:200px""alt=""img"">
                            </div>
                        </div>","182","","0","images/gray_36.png","","","","negative"
"","","","","","html-slider-response","196","1007702","0.0-192.0","ajbyb59k26","NaN","<div style=""width:500px;"">
                            <p style=""font-size:50px; font-weight:bold;""
                            >negative</p>
                            <div style=""width:240px; margin: auto;"">
                                <img src=""images/gray_04.png"" style= ""width:200px""alt=""img"">
                            </div>
                        </div>","182","","0","images/gray_04.png","","","","negative"
"","","","","","html-slider-response","197","1008937","0.0-193.0","ajbyb59k26","NaN","<div style=""width:500px;"">
                            <p style=""font-size:50px; font-weight:bold;""
                            >negative</p>
                            <div style=""width:240px; margin: auto;"">
                                <img src=""images/gray_03.png"" style= ""width:200px""alt=""img"">
                            </div>
                        </div>","182","","0","images/gray_03.png","","","","negative"
"","","","","","html-slider-response","198","1011020","0.0-194.0","ajbyb59k26","NaN","<div style=""width:500px;"">
                            <p style=""font-size:50px; font-weight:bold;""
                            >negative</p>
                            <div style=""width:240px; margin: auto;"">
                                <img src=""images/gray_24.png"" style= ""width:200px""alt=""img"">
                            </div>
                        </div>","-30","","0","images/gray_24.png","","","","negative"
