"success","timeout","failed_images","failed_audio","failed_video","trial_type","trial_index","time_elapsed","internal_node_id","subject_id","rt","stimulus","response","question_order","slider_start","image_path","practiceTrial","practiceTrialNum","correct","concept"
"true","false","[]","[]","[]","preload","0","880","0.0-0.0","b0lo9pdn60","","","","","","","","","",""
"","","","","","html-button-response","1","2151","0.0-1.0","b0lo9pdn60","1271","Welcome to our experiment!<p>At the bottom of this screen, you will see a button that says ""Begin Experiment"".<br>Please only click that button when you are ready to complete the 25 minute experiment in one sitting.</p><p> Once you click that button, it will not be possible to restart the experiment.","0","","","","","","",""
"true","","","","","fullscreen","2","3889","0.0-2.0","b0lo9pdn60","726","","","","","","","","",""
"","","","","","survey-multi-select","3","11461","0.0-3.0","b0lo9pdn60","7571","","{""Consent"":[""<strong>I consent</strong>""]}","[0]","","","","","",""
"","","","","","html-button-response","4","14187","0.0-4.0","b0lo9pdn60","2725","Welcome! <p> This experiment involves two parts: demographic information, followed by the experimental task.<p> It will take about 25 minutes to complete both parts.","0","","","","","","",""
"","","","","","survey-text","5","35704","0.0-5.0","b0lo9pdn60","21510","","{""Age"":""21"",""Gender"":""male"",""Race/ethnicity"":""asian"",""Languages"":""chinese english""}","","","","","","",""
"","","","","","html-slider-response","6","50498","0.0-6.0","b0lo9pdn60","14792","
            <div style='text-align:left; font-size:20px; line-height:25px; width: 1200px;'>
                During this experiment you will be asked to rate how much you associate maps with    different concepts.<br> Below, you can see some examples of the maps you will be asked to rate. Next to the maps
    is the list of concepts.<br>You will be asked    to rate how much you associate each map with each concept on a scale from 'not at all' to 'very much' like the
    one below. <br><br>
    Now, please look at the list of concepts and maps. For each concept, think about the map you associate 'very
    much' with the concept.<br>     When you see that map during the experiment, please rate it near the 'very much' endpoint of the
    scale.<br>Now, please think about which map you associate 'not at all'     with each concept. When you see that map during the experiment, please rate it near the 'not at all' endpoint
    of the scale.<br>
    Please use the full range of the scale. That is, if a map is somewhat associated with the concept, you would
    click partway between the middle point and right side of the scale.    You will be asked to rate each map for a given concept before moving on to the next concept.<br><br>Press the
    'Continue' button for instructions on how to use the slider.    <br><br>
</div>

<div style=""width: 500px; margin: 0 auto;"">
    <div style=""text-align: left; width: 200px; float: left;"">
        <p style=""font-size:25px; line-height:18px;"">calm</p>
        <p style=""font-size:25px; line-height:18px;"">exciting</p>
        <p style=""font-size:25px;line-height:18px;"">positive</p>
        <p style=""font-size:25px;line-height:18px;"">negative</p>
        <p style=""font-size:25px;line-height:18px;"">serious</p>
        <p style=""font-size:25px;line-height:18px;"">playful</p>
        <p style=""font-size:25px;line-height:18px;"">trustworthy</p>
        <p style=""font-size:25px;line-height:18px;"">disturbing</p>
    </div>
    <div style=""width: 200px; float: right; padding-top:15px; padding-right:40px"">
        <br>
        <br>
        <img src=""maps_anchoring.png"" alt=""img"" style=""max-width:500px"">
    </div>
    <div style=""clear: both;""></div>
</div>
            ","-46","","0","maps_anchoring.png","true","","",""
"","","","","","html-button-response","7","55918","0.0-7.0","b0lo9pdn60","5419","<div style=""width:800px;""><p style=""text-align:left"">To move the slider, click and drag your cursor to the location of the scale where you would like to make your rating and then let go. When you let go of the slider, your response will be recorded and the next trial will begin. <br>
            We are interested in your initial impressions of each map for the given concept, so please go with your first intuition. <br>
            Before you begin the experiment, there will be four training trials for you to practice using the scale. <br>
             When you are ready to start the training trials, please click ""Continue"".</p><br></div>","0","","","","","","",""
"","","","","","html-slider-response","8","58576","0.0-8.0-0.0","b0lo9pdn60","NaN","<div style=""width:500px;"">
                            <p style=""font-size:25px;"">Please move the slider all the way to the <br> right endpoint of the scale</p>

                            </div>
                        </div>","200","","0","","true","0","true",""
"","","","","","html-button-response","9","59968","0.0-8.0-1.0","b0lo9pdn60","890","<p align='center'><b>Good job!</b> Click on 'Continue' to proceed.</p>","0","","","","","","",""
"","","","","","html-slider-response","10","60951","0.0-9.0-0.0","b0lo9pdn60","NaN","<div style=""width:500px;"">
                            <p style=""font-size:25px;"">Please move the slider all the way to the <br> left endpoint of the scale</p>

                            </div>
                        </div>","-200","","0","","true","1","true",""
"","","","","","html-button-response","11","62504","0.0-9.0-1.0","b0lo9pdn60","1047","<p align='center'><b>Good job!</b> Click on 'Continue' to proceed.</p>","0","","","","","","",""
"","","","","","html-slider-response","12","64192","0.0-10.0-0.0","b0lo9pdn60","NaN","<div style=""width:500px;"">
                            <p style=""font-size:25px;"">Please move the slider halfway between the center and right endpoint of the scale</p>

                            </div>
                        </div>","1","","0","","true","2","false",""
"","","","","","html-button-response","13","66306","0.0-10.0-1.0","b0lo9pdn60","1613","<p align='center'><b>Not quite!</b> The slider was not placed near the instructed located. Click on 'Continue' to try again. </p>","0","","","","","","",""
"","","","","","html-slider-response","14","70510","0.0-10.1-0.1","b0lo9pdn60","NaN","<div style=""width:500px;"">
                            <p style=""font-size:25px;"">Please move the slider halfway between the center and right endpoint of the scale</p>

                            </div>
                        </div>","108","","0","","true","2","true",""
"","","","","","html-button-response","15","71736","0.0-10.1-1.1","b0lo9pdn60","722","<p align='center'><b>Good job!</b> Click on 'Continue' to proceed.</p>","0","","","","","","",""
"","","","","","html-slider-response","16","73240","0.0-11.0-0.0","b0lo9pdn60","NaN","<div style=""width:500px;"">
                            <p style=""font-size:25px;"">Please move the slider halfway between the center and left endpoint of the scale</p>

                            </div>
                        </div>","-102","","0","","true","3","true",""
"","","","","","html-button-response","17","74332","0.0-11.0-1.0","b0lo9pdn60","591","<p align='center'><b>Good job!</b> Click on 'Continue' to proceed.</p>","0","","","","","","",""
"","","","","","html-button-response","18","75006","0.0-12.0","b0lo9pdn60","674","<p>Great job! You've completed the practice trials. Now you will begin the main task.</p>","0","","","","","","",""
"","","","","","html-button-response","19","83166","0.0-13.0","b0lo9pdn60","8158","<p>In this block of trials, you will be asked to rate how much you associate each map with:</p > <p style = 'font-size:150%; font-weight: bold'>exciting</p><br></br>","0","","","","","","",""
"","","","","","html-slider-response","20","85942","0.0-14.0","b0lo9pdn60","NaN","<div style=""width:500px;"">
                            <p style=""font-size:50px; font-weight:bold;""
                            >exciting</p>
                            <div style=""width:240px; margin: auto;"">
                                <img src=""images/gray_30.png"" style= ""width:200px""alt=""img"">
                            </div>
                        </div>","-120","","0","images/gray_30.png","","","","exciting"
"","","","","","html-slider-response","21","88350","0.0-15.0","b0lo9pdn60","NaN","<div style=""width:500px;"">
                            <p style=""font-size:50px; font-weight:bold;""
                            >exciting</p>
                            <div style=""width:240px; margin: auto;"">
                                <img src=""images/gray_22.png"" style= ""width:200px""alt=""img"">
                            </div>
                        </div>","-151","","0","images/gray_22.png","","","","exciting"
"","","","","","html-slider-response","22","90673","0.0-16.0","b0lo9pdn60","NaN","<div style=""width:500px;"">
                            <p style=""font-size:50px; font-weight:bold;""
                            >exciting</p>
                            <div style=""width:240px; margin: auto;"">
                                <img src=""images/gray_38.png"" style= ""width:200px""alt=""img"">
                            </div>
                        </div>","-163","","0","images/gray_38.png","","","","exciting"
"","","","","","html-slider-response","23","92209","0.0-17.0","b0lo9pdn60","NaN","<div style=""width:500px;"">
                            <p style=""font-size:50px; font-weight:bold;""
                            >exciting</p>
                            <div style=""width:240px; margin: auto;"">
                                <img src=""images/gray_43.png"" style= ""width:200px""alt=""img"">
                            </div>
                        </div>","-106","","0","images/gray_43.png","","","","exciting"
"","","","","","html-slider-response","24","94232","0.0-18.0","b0lo9pdn60","NaN","<div style=""width:500px;"">
                            <p style=""font-size:50px; font-weight:bold;""
                            >exciting</p>
                            <div style=""width:240px; margin: auto;"">
                                <img src=""images/gray_12.png"" style= ""width:200px""alt=""img"">
                            </div>
                        </div>","-118","","0","images/gray_12.png","","","","exciting"
"","","","","","html-slider-response","25","95593","0.0-19.0","b0lo9pdn60","NaN","<div style=""width:500px;"">
                            <p style=""font-size:50px; font-weight:bold;""
                            >exciting</p>
                            <div style=""width:240px; margin: auto;"">
                                <img src=""images/gray_18.png"" style= ""width:200px""alt=""img"">
                            </div>
                        </div>","122","","0","images/gray_18.png","","","","exciting"
"","","","","","html-slider-response","26","97074","0.0-20.0","b0lo9pdn60","NaN","<div style=""width:500px;"">
                            <p style=""font-size:50px; font-weight:bold;""
                            >exciting</p>
                            <div style=""width:240px; margin: auto;"">
                                <img src=""images/gray_01.png"" style= ""width:200px""alt=""img"">
                            </div>
                        </div>","139","","0","images/gray_01.png","","","","exciting"
"","","","","","html-slider-response","27","98378","0.0-21.0","b0lo9pdn60","NaN","<div style=""width:500px;"">
                            <p style=""font-size:50px; font-weight:bold;""
                            >exciting</p>
                            <div style=""width:240px; margin: auto;"">
                                <img src=""images/gray_27.png"" style= ""width:200px""alt=""img"">
                            </div>
                        </div>","126","","0","images/gray_27.png","","","","exciting"
"","","","","","html-slider-response","28","99566","0.0-22.0","b0lo9pdn60","NaN","<div style=""width:500px;"">
                            <p style=""font-size:50px; font-weight:bold;""
                            >exciting</p>
                            <div style=""width:240px; margin: auto;"">
                                <img src=""images/gray_33.png"" style= ""width:200px""alt=""img"">
                            </div>
                        </div>","96","","0","images/gray_33.png","","","","exciting"
"","","","","","html-slider-response","29","101182","0.0-23.0","b0lo9pdn60","NaN","<div style=""width:500px;"">
                            <p style=""font-size:50px; font-weight:bold;""
                            >exciting</p>
                            <div style=""width:240px; margin: auto;"">
                                <img src=""images/gray_31.png"" style= ""width:200px""alt=""img"">
                            </div>
                        </div>","114","","0","images/gray_31.png","","","","exciting"
"","","","","","html-slider-response","30","102624","0.0-24.0","b0lo9pdn60","NaN","<div style=""width:500px;"">
                            <p style=""font-size:50px; font-weight:bold;""
                            >exciting</p>
                            <div style=""width:240px; margin: auto;"">
                                <img src=""images/gray_09.png"" style= ""width:200px""alt=""img"">
                            </div>
                        </div>","120","","0","images/gray_09.png","","","","exciting"
"","","","","","html-slider-response","31","104333","0.0-25.0","b0lo9pdn60","NaN","<div style=""width:500px;"">
                            <p style=""font-size:50px; font-weight:bold;""
                            >exciting</p>
                            <div style=""width:240px; margin: auto;"">
                                <img src=""images/gray_37.png"" style= ""width:200px""alt=""img"">
                            </div>
                        </div>","-108","","0","images/gray_37.png","","","","exciting"
"","","","","","html-slider-response","32","106517","0.0-26.0","b0lo9pdn60","NaN","<div style=""width:500px;"">
                            <p style=""font-size:50px; font-weight:bold;""
                            >exciting</p>
                            <div style=""width:240px; margin: auto;"">
                                <img src=""images/gray_25.png"" style= ""width:200px""alt=""img"">
                            </div>
                        </div>","-116","","0","images/gray_25.png","","","","exciting"
"","","","","","html-slider-response","33","107976","0.0-27.0","b0lo9pdn60","NaN","<div style=""width:500px;"">
                            <p style=""font-size:50px; font-weight:bold;""
                            >exciting</p>
                            <div style=""width:240px; margin: auto;"">
                                <img src=""images/gray_19.png"" style= ""width:200px""alt=""img"">
                            </div>
                        </div>","118","","0","images/gray_19.png","","","","exciting"
"","","","","","html-slider-response","34","109449","0.0-28.0","b0lo9pdn60","NaN","<div style=""width:500px;"">
                            <p style=""font-size:50px; font-weight:bold;""
                            >exciting</p>
                            <div style=""width:240px; margin: auto;"">
                                <img src=""images/gray_24.png"" style= ""width:200px""alt=""img"">
                            </div>
                        </div>","96","","0","images/gray_24.png","","","","exciting"
"","","","","","html-slider-response","35","111058","0.0-29.0","b0lo9pdn60","NaN","<div style=""width:500px;"">
                            <p style=""font-size:50px; font-weight:bold;""
                            >exciting</p>
                            <div style=""width:240px; margin: auto;"">
                                <img src=""images/gray_11.png"" style= ""width:200px""alt=""img"">
                            </div>
                        </div>","-192","","0","images/gray_11.png","","","","exciting"
"","","","","","html-slider-response","36","112469","0.0-30.0","b0lo9pdn60","NaN","<div style=""width:500px;"">
                            <p style=""font-size:50px; font-weight:bold;""
                            >exciting</p>
                            <div style=""width:240px; margin: auto;"">
                                <img src=""images/gray_36.png"" style= ""width:200px""alt=""img"">
                            </div>
                        </div>","-134","","0","images/gray_36.png","","","","exciting"
"","","","","","html-slider-response","37","113977","0.0-31.0","b0lo9pdn60","NaN","<div style=""width:500px;"">
                            <p style=""font-size:50px; font-weight:bold;""
                            >exciting</p>
                            <div style=""width:240px; margin: auto;"">
                                <img src=""images/gray_06.png"" style= ""width:200px""alt=""img"">
                            </div>
                        </div>","-96","","0","images/gray_06.png","","","","exciting"
"","","","","","html-slider-response","38","115183","0.0-32.0","b0lo9pdn60","NaN","<div style=""width:500px;"">
                            <p style=""font-size:50px; font-weight:bold;""
                            >exciting</p>
                            <div style=""width:240px; margin: auto;"">
                                <img src=""images/gray_17.png"" style= ""width:200px""alt=""img"">
                            </div>
                        </div>","140","","0","images/gray_17.png","","","","exciting"
"","","","","","html-slider-response","39","116203","0.0-33.0","b0lo9pdn60","NaN","<div style=""width:500px;"">
                            <p style=""font-size:50px; font-weight:bold;""
                            >exciting</p>
                            <div style=""width:240px; margin: auto;"">
                                <img src=""images/gray_26.png"" style= ""width:200px""alt=""img"">
                            </div>
                        </div>","-118","","0","images/gray_26.png","","","","exciting"
"","","","","","html-slider-response","40","116982","0.0-34.0","b0lo9pdn60","NaN","<div style=""width:500px;"">
                            <p style=""font-size:50px; font-weight:bold;""
                            >exciting</p>
                            <div style=""width:240px; margin: auto;"">
                                <img src=""images/gray_04.png"" style= ""width:200px""alt=""img"">
                            </div>
                        </div>","147","","0","images/gray_04.png","","","","exciting"
"","","","","","html-slider-response","41","117805","0.0-35.0","b0lo9pdn60","NaN","<div style=""width:500px;"">
                            <p style=""font-size:50px; font-weight:bold;""
                            >exciting</p>
                            <div style=""width:240px; margin: auto;"">
                                <img src=""images/gray_14.png"" style= ""width:200px""alt=""img"">
                            </div>
                        </div>","-90","","0","images/gray_14.png","","","","exciting"
"","","","","","html-slider-response","42","118787","0.0-36.0","b0lo9pdn60","NaN","<div style=""width:500px;"">
                            <p style=""font-size:50px; font-weight:bold;""
                            >exciting</p>
                            <div style=""width:240px; margin: auto;"">
                                <img src=""images/gray_02.png"" style= ""width:200px""alt=""img"">
                            </div>
                        </div>","-94","","0","images/gray_02.png","","","","exciting"
"","","","","","html-slider-response","43","120206","0.0-37.0","b0lo9pdn60","NaN","<div style=""width:500px;"">
                            <p style=""font-size:50px; font-weight:bold;""
                            >exciting</p>
                            <div style=""width:240px; margin: auto;"">
                                <img src=""images/gray_13.png"" style= ""width:200px""alt=""img"">
                            </div>
                        </div>","-81","","0","images/gray_13.png","","","","exciting"
"","","","","","html-slider-response","44","121455","0.0-38.0","b0lo9pdn60","NaN","<div style=""width:500px;"">
                            <p style=""font-size:50px; font-weight:bold;""
                            >exciting</p>
                            <div style=""width:240px; margin: auto;"">
                                <img src=""images/gray_07.png"" style= ""width:200px""alt=""img"">
                            </div>
                        </div>","-146","","0","images/gray_07.png","","","","exciting"
"","","","","","html-slider-response","45","122295","0.0-39.0","b0lo9pdn60","NaN","<div style=""width:500px;"">
                            <p style=""font-size:50px; font-weight:bold;""
                            >exciting</p>
                            <div style=""width:240px; margin: auto;"">
                                <img src=""images/gray_20.png"" style= ""width:200px""alt=""img"">
                            </div>
                        </div>","-112","","0","images/gray_20.png","","","","exciting"
"","","","","","html-slider-response","46","123848","0.0-40.0","b0lo9pdn60","NaN","<div style=""width:500px;"">
                            <p style=""font-size:50px; font-weight:bold;""
                            >exciting</p>
                            <div style=""width:240px; margin: auto;"">
                                <img src=""images/gray_39.png"" style= ""width:200px""alt=""img"">
                            </div>
                        </div>","-110","","0","images/gray_39.png","","","","exciting"
"","","","","","html-slider-response","47","125570","0.0-41.0","b0lo9pdn60","NaN","<div style=""width:500px;"">
                            <p style=""font-size:50px; font-weight:bold;""
                            >exciting</p>
                            <div style=""width:240px; margin: auto;"">
                                <img src=""images/gray_15.png"" style= ""width:200px""alt=""img"">
                            </div>
                        </div>","-86","","0","images/gray_15.png","","","","exciting"
"","","","","","html-slider-response","48","127188","0.0-42.0","b0lo9pdn60","NaN","<div style=""width:500px;"">
                            <p style=""font-size:50px; font-weight:bold;""
                            >exciting</p>
                            <div style=""width:240px; margin: auto;"">
                                <img src=""images/gray_34.png"" style= ""width:200px""alt=""img"">
                            </div>
                        </div>","-107","","0","images/gray_34.png","","","","exciting"
"","","","","","html-slider-response","49","128930","0.0-43.0","b0lo9pdn60","NaN","<div style=""width:500px;"">
                            <p style=""font-size:50px; font-weight:bold;""
                            >exciting</p>
                            <div style=""width:240px; margin: auto;"">
                                <img src=""images/gray_21.png"" style= ""width:200px""alt=""img"">
                            </div>
                        </div>","-101","","0","images/gray_21.png","","","","exciting"
"","","","","","html-slider-response","50","130102","0.0-44.0","b0lo9pdn60","NaN","<div style=""width:500px;"">
                            <p style=""font-size:50px; font-weight:bold;""
                            >exciting</p>
                            <div style=""width:240px; margin: auto;"">
                                <img src=""images/gray_32.png"" style= ""width:200px""alt=""img"">
                            </div>
                        </div>","-138","","0","images/gray_32.png","","","","exciting"
"","","","","","html-slider-response","51","131536","0.0-45.0","b0lo9pdn60","NaN","<div style=""width:500px;"">
                            <p style=""font-size:50px; font-weight:bold;""
                            >exciting</p>
                            <div style=""width:240px; margin: auto;"">
                                <img src=""images/gray_41.png"" style= ""width:200px""alt=""img"">
                            </div>
                        </div>","-150","","0","images/gray_41.png","","","","exciting"
"","","","","","html-slider-response","52","132944","0.0-46.0","b0lo9pdn60","NaN","<div style=""width:500px;"">
                            <p style=""font-size:50px; font-weight:bold;""
                            >exciting</p>
                            <div style=""width:240px; margin: auto;"">
                                <img src=""images/gray_28.png"" style= ""width:200px""alt=""img"">
                            </div>
                        </div>","-118","","0","images/gray_28.png","","","","exciting"
"","","","","","html-slider-response","53","134561","0.0-47.0","b0lo9pdn60","NaN","<div style=""width:500px;"">
                            <p style=""font-size:50px; font-weight:bold;""
                            >exciting</p>
                            <div style=""width:240px; margin: auto;"">
                                <img src=""images/gray_35.png"" style= ""width:200px""alt=""img"">
                            </div>
                        </div>","-130","","0","images/gray_35.png","","","","exciting"
"","","","","","html-slider-response","54","135768","0.0-48.0","b0lo9pdn60","NaN","<div style=""width:500px;"">
                            <p style=""font-size:50px; font-weight:bold;""
                            >exciting</p>
                            <div style=""width:240px; margin: auto;"">
                                <img src=""images/gray_05.png"" style= ""width:200px""alt=""img"">
                            </div>
                        </div>","-112","","0","images/gray_05.png","","","","exciting"
"","","","","","html-slider-response","55","137333","0.0-49.0","b0lo9pdn60","NaN","<div style=""width:500px;"">
                            <p style=""font-size:50px; font-weight:bold;""
                            >exciting</p>
                            <div style=""width:240px; margin: auto;"">
                                <img src=""images/gray_23.png"" style= ""width:200px""alt=""img"">
                            </div>
                        </div>","-126","","0","images/gray_23.png","","","","exciting"
"","","","","","html-slider-response","56","138642","0.0-50.0","b0lo9pdn60","NaN","<div style=""width:500px;"">
                            <p style=""font-size:50px; font-weight:bold;""
                            >exciting</p>
                            <div style=""width:240px; margin: auto;"">
                                <img src=""images/gray_40.png"" style= ""width:200px""alt=""img"">
                            </div>
                        </div>","90","","0","images/gray_40.png","","","","exciting"
"","","","","","html-slider-response","57","140169","0.0-51.0","b0lo9pdn60","NaN","<div style=""width:500px;"">
                            <p style=""font-size:50px; font-weight:bold;""
                            >exciting</p>
                            <div style=""width:240px; margin: auto;"">
                                <img src=""images/gray_10.png"" style= ""width:200px""alt=""img"">
                            </div>
                        </div>","132","","0","images/gray_10.png","","","","exciting"
"","","","","","html-slider-response","58","141243","0.0-52.0","b0lo9pdn60","NaN","<div style=""width:500px;"">
                            <p style=""font-size:50px; font-weight:bold;""
                            >exciting</p>
                            <div style=""width:240px; margin: auto;"">
                                <img src=""images/gray_42.png"" style= ""width:200px""alt=""img"">
                            </div>
                        </div>","-146","","0","images/gray_42.png","","","","exciting"
"","","","","","html-slider-response","59","142668","0.0-53.0","b0lo9pdn60","NaN","<div style=""width:500px;"">
                            <p style=""font-size:50px; font-weight:bold;""
                            >exciting</p>
                            <div style=""width:240px; margin: auto;"">
                                <img src=""images/gray_44.png"" style= ""width:200px""alt=""img"">
                            </div>
                        </div>","105","","0","images/gray_44.png","","","","exciting"
"","","","","","html-slider-response","60","143780","0.0-54.0","b0lo9pdn60","NaN","<div style=""width:500px;"">
                            <p style=""font-size:50px; font-weight:bold;""
                            >exciting</p>
                            <div style=""width:240px; margin: auto;"">
                                <img src=""images/gray_03.png"" style= ""width:200px""alt=""img"">
                            </div>
                        </div>","-123","","0","images/gray_03.png","","","","exciting"
"","","","","","html-slider-response","61","145529","0.0-55.0","b0lo9pdn60","NaN","<div style=""width:500px;"">
                            <p style=""font-size:50px; font-weight:bold;""
                            >exciting</p>
                            <div style=""width:240px; margin: auto;"">
                                <img src=""images/gray_16.png"" style= ""width:200px""alt=""img"">
                            </div>
                        </div>","126","","0","images/gray_16.png","","","","exciting"
"","","","","","html-slider-response","62","146718","0.0-56.0","b0lo9pdn60","NaN","<div style=""width:500px;"">
                            <p style=""font-size:50px; font-weight:bold;""
                            >exciting</p>
                            <div style=""width:240px; margin: auto;"">
                                <img src=""images/gray_08.png"" style= ""width:200px""alt=""img"">
                            </div>
                        </div>","-114","","0","images/gray_08.png","","","","exciting"
"","","","","","html-slider-response","63","147956","0.0-57.0","b0lo9pdn60","NaN","<div style=""width:500px;"">
                            <p style=""font-size:50px; font-weight:bold;""
                            >exciting</p>
                            <div style=""width:240px; margin: auto;"">
                                <img src=""images/gray_29.png"" style= ""width:200px""alt=""img"">
                            </div>
                        </div>","-144","","0","images/gray_29.png","","","","exciting"
"","","","","","html-button-response","64","149413","0.0-58.0","b0lo9pdn60","941","<p>Great Job! You've finished block 1.<br></br> You have 7 block(s) left to go.<br></br></p>","0","","","","","","",""
"","","","","","html-button-response","65","150095","0.0-59.0","b0lo9pdn60","681","<p>In this block of trials, you will be asked to rate how much you associate each map with:</p > <p style = 'font-size:150%; font-weight: bold'>calm</p><br></br>","0","","","","","","",""
"","","","","","html-slider-response","66","150921","0.0-60.0","b0lo9pdn60","NaN","<div style=""width:500px;"">
                            <p style=""font-size:50px; font-weight:bold;""
                            >calm</p>
                            <div style=""width:240px; margin: auto;"">
                                <img src=""images/gray_07.png"" style= ""width:200px""alt=""img"">
                            </div>
                        </div>","-114","","0","images/gray_07.png","","","","calm"
"","","","","","html-slider-response","67","151774","0.0-61.0","b0lo9pdn60","NaN","<div style=""width:500px;"">
                            <p style=""font-size:50px; font-weight:bold;""
                            >calm</p>
                            <div style=""width:240px; margin: auto;"">
                                <img src=""images/gray_36.png"" style= ""width:200px""alt=""img"">
                            </div>
                        </div>","-128","","0","images/gray_36.png","","","","calm"
"","","","","","html-slider-response","68","152928","0.0-62.0","b0lo9pdn60","NaN","<div style=""width:500px;"">
                            <p style=""font-size:50px; font-weight:bold;""
                            >calm</p>
                            <div style=""width:240px; margin: auto;"">
                                <img src=""images/gray_42.png"" style= ""width:200px""alt=""img"">
                            </div>
                        </div>","94","","0","images/gray_42.png","","","","calm"
"","","","","","html-slider-response","69","153838","0.0-63.0","b0lo9pdn60","NaN","<div style=""width:500px;"">
                            <p style=""font-size:50px; font-weight:bold;""
                            >calm</p>
                            <div style=""width:240px; margin: auto;"">
                                <img src=""images/gray_40.png"" style= ""width:200px""alt=""img"">
                            </div>
                        </div>","112","","0","images/gray_40.png","","","","calm"
"","","","","","html-slider-response","70","155538","0.0-64.0","b0lo9pdn60","NaN","<div style=""width:500px;"">
                            <p style=""font-size:50px; font-weight:bold;""
                            >calm</p>
                            <div style=""width:240px; margin: auto;"">
                                <img src=""images/gray_31.png"" style= ""width:200px""alt=""img"">
                            </div>
                        </div>","121","","0","images/gray_31.png","","","","calm"
"","","","","","html-slider-response","71","157130","0.0-65.0","b0lo9pdn60","NaN","<div style=""width:500px;"">
                            <p style=""font-size:50px; font-weight:bold;""
                            >calm</p>
                            <div style=""width:240px; margin: auto;"">
                                <img src=""images/gray_15.png"" style= ""width:200px""alt=""img"">
                            </div>
                        </div>","-129","","0","images/gray_15.png","","","","calm"
"","","","","","html-slider-response","72","158321","0.0-66.0","b0lo9pdn60","NaN","<div style=""width:500px;"">
                            <p style=""font-size:50px; font-weight:bold;""
                            >calm</p>
                            <div style=""width:240px; margin: auto;"">
                                <img src=""images/gray_17.png"" style= ""width:200px""alt=""img"">
                            </div>
                        </div>","138","","0","images/gray_17.png","","","","calm"
"","","","","","html-slider-response","73","160058","0.0-67.0","b0lo9pdn60","NaN","<div style=""width:500px;"">
                            <p style=""font-size:50px; font-weight:bold;""
                            >calm</p>
                            <div style=""width:240px; margin: auto;"">
                                <img src=""images/gray_06.png"" style= ""width:200px""alt=""img"">
                            </div>
                        </div>","-113","","0","images/gray_06.png","","","","calm"
"","","","","","html-slider-response","74","161161","0.0-68.0","b0lo9pdn60","NaN","<div style=""width:500px;"">
                            <p style=""font-size:50px; font-weight:bold;""
                            >calm</p>
                            <div style=""width:240px; margin: auto;"">
                                <img src=""images/gray_30.png"" style= ""width:200px""alt=""img"">
                            </div>
                        </div>","108","","0","images/gray_30.png","","","","calm"
"","","","","","html-slider-response","75","162328","0.0-69.0","b0lo9pdn60","NaN","<div style=""width:500px;"">
                            <p style=""font-size:50px; font-weight:bold;""
                            >calm</p>
                            <div style=""width:240px; margin: auto;"">
                                <img src=""images/gray_44.png"" style= ""width:200px""alt=""img"">
                            </div>
                        </div>","118","","0","images/gray_44.png","","","","calm"
"","","","","","html-slider-response","76","163601","0.0-70.0","b0lo9pdn60","NaN","<div style=""width:500px;"">
                            <p style=""font-size:50px; font-weight:bold;""
                            >calm</p>
                            <div style=""width:240px; margin: auto;"">
                                <img src=""images/gray_39.png"" style= ""width:200px""alt=""img"">
                            </div>
                        </div>","147","","0","images/gray_39.png","","","","calm"
"","","","","","html-slider-response","77","164824","0.0-71.0","b0lo9pdn60","NaN","<div style=""width:500px;"">
                            <p style=""font-size:50px; font-weight:bold;""
                            >calm</p>
                            <div style=""width:240px; margin: auto;"">
                                <img src=""images/gray_08.png"" style= ""width:200px""alt=""img"">
                            </div>
                        </div>","-197","","0","images/gray_08.png","","","","calm"
"","","","","","html-slider-response","78","166244","0.0-72.0","b0lo9pdn60","NaN","<div style=""width:500px;"">
                            <p style=""font-size:50px; font-weight:bold;""
                            >calm</p>
                            <div style=""width:240px; margin: auto;"">
                                <img src=""images/gray_26.png"" style= ""width:200px""alt=""img"">
                            </div>
                        </div>","126","","0","images/gray_26.png","","","","calm"
"","","","","","html-slider-response","79","167658","0.0-73.0","b0lo9pdn60","NaN","<div style=""width:500px;"">
                            <p style=""font-size:50px; font-weight:bold;""
                            >calm</p>
                            <div style=""width:240px; margin: auto;"">
                                <img src=""images/gray_02.png"" style= ""width:200px""alt=""img"">
                            </div>
                        </div>","-126","","0","images/gray_02.png","","","","calm"
"","","","","","html-slider-response","80","168515","0.0-74.0","b0lo9pdn60","NaN","<div style=""width:500px;"">
                            <p style=""font-size:50px; font-weight:bold;""
                            >calm</p>
                            <div style=""width:240px; margin: auto;"">
                                <img src=""images/gray_14.png"" style= ""width:200px""alt=""img"">
                            </div>
                        </div>","116","","0","images/gray_14.png","","","","calm"
"","","","","","html-slider-response","81","169441","0.0-75.0","b0lo9pdn60","NaN","<div style=""width:500px;"">
                            <p style=""font-size:50px; font-weight:bold;""
                            >calm</p>
                            <div style=""width:240px; margin: auto;"">
                                <img src=""images/gray_35.png"" style= ""width:200px""alt=""img"">
                            </div>
                        </div>","134","","0","images/gray_35.png","","","","calm"
"","","","","","html-slider-response","82","170298","0.0-76.0","b0lo9pdn60","NaN","<div style=""width:500px;"">
                            <p style=""font-size:50px; font-weight:bold;""
                            >calm</p>
                            <div style=""width:240px; margin: auto;"">
                                <img src=""images/gray_16.png"" style= ""width:200px""alt=""img"">
                            </div>
                        </div>","126","","0","images/gray_16.png","","","","calm"
"","","","","","html-slider-response","83","171941","0.0-77.0","b0lo9pdn60","NaN","<div style=""width:500px;"">
                            <p style=""font-size:50px; font-weight:bold;""
                            >calm</p>
                            <div style=""width:240px; margin: auto;"">
                                <img src=""images/gray_27.png"" style= ""width:200px""alt=""img"">
                            </div>
                        </div>","-98","","0","images/gray_27.png","","","","calm"
"","","","","","html-slider-response","84","173048","0.0-78.0","b0lo9pdn60","NaN","<div style=""width:500px;"">
                            <p style=""font-size:50px; font-weight:bold;""
                            >calm</p>
                            <div style=""width:240px; margin: auto;"">
                                <img src=""images/gray_09.png"" style= ""width:200px""alt=""img"">
                            </div>
                        </div>","118","","0","images/gray_09.png","","","","calm"
"","","","","","html-slider-response","85","173953","0.0-79.0","b0lo9pdn60","NaN","<div style=""width:500px;"">
                            <p style=""font-size:50px; font-weight:bold;""
                            >calm</p>
                            <div style=""width:240px; margin: auto;"">
                                <img src=""images/gray_24.png"" style= ""width:200px""alt=""img"">
                            </div>
                        </div>","126","","0","images/gray_24.png","","","","calm"
"","","","","","html-slider-response","86","174908","0.0-80.0","b0lo9pdn60","NaN","<div style=""width:500px;"">
                            <p style=""font-size:50px; font-weight:bold;""
                            >calm</p>
                            <div style=""width:240px; margin: auto;"">
                                <img src=""images/gray_28.png"" style= ""width:200px""alt=""img"">
                            </div>
                        </div>","115","","0","images/gray_28.png","","","","calm"
"","","","","","html-slider-response","87","176294","0.0-81.0","b0lo9pdn60","NaN","<div style=""width:500px;"">
                            <p style=""font-size:50px; font-weight:bold;""
                            >calm</p>
                            <div style=""width:240px; margin: auto;"">
                                <img src=""images/gray_18.png"" style= ""width:200px""alt=""img"">
                            </div>
                        </div>","115","","0","images/gray_18.png","","","","calm"
"","","","","","html-slider-response","88","177650","0.0-82.0","b0lo9pdn60","NaN","<div style=""width:500px;"">
                            <p style=""font-size:50px; font-weight:bold;""
                            >calm</p>
                            <div style=""width:240px; margin: auto;"">
                                <img src=""images/gray_25.png"" style= ""width:200px""alt=""img"">
                            </div>
                        </div>","-153","","0","images/gray_25.png","","","","calm"
"","","","","","html-slider-response","89","178481","0.0-83.0","b0lo9pdn60","NaN","<div style=""width:500px;"">
                            <p style=""font-size:50px; font-weight:bold;""
                            >calm</p>
                            <div style=""width:240px; margin: auto;"">
                                <img src=""images/gray_20.png"" style= ""width:200px""alt=""img"">
                            </div>
                        </div>","115","","0","images/gray_20.png","","","","calm"
"","","","","","html-slider-response","90","179286","0.0-84.0","b0lo9pdn60","NaN","<div style=""width:500px;"">
                            <p style=""font-size:50px; font-weight:bold;""
                            >calm</p>
                            <div style=""width:240px; margin: auto;"">
                                <img src=""images/gray_11.png"" style= ""width:200px""alt=""img"">
                            </div>
                        </div>","123","","0","images/gray_11.png","","","","calm"
"","","","","","html-slider-response","91","180074","0.0-85.0","b0lo9pdn60","NaN","<div style=""width:500px;"">
                            <p style=""font-size:50px; font-weight:bold;""
                            >calm</p>
                            <div style=""width:240px; margin: auto;"">
                                <img src=""images/gray_19.png"" style= ""width:200px""alt=""img"">
                            </div>
                        </div>","123","","0","images/gray_19.png","","","","calm"
"","","","","","html-slider-response","92","180778","0.0-86.0","b0lo9pdn60","NaN","<div style=""width:500px;"">
                            <p style=""font-size:50px; font-weight:bold;""
                            >calm</p>
                            <div style=""width:240px; margin: auto;"">
                                <img src=""images/gray_05.png"" style= ""width:200px""alt=""img"">
                            </div>
                        </div>","123","","0","images/gray_05.png","","","","calm"
"","","","","","html-slider-response","93","181681","0.0-87.0","b0lo9pdn60","NaN","<div style=""width:500px;"">
                            <p style=""font-size:50px; font-weight:bold;""
                            >calm</p>
                            <div style=""width:240px; margin: auto;"">
                                <img src=""images/gray_04.png"" style= ""width:200px""alt=""img"">
                            </div>
                        </div>","123","","0","images/gray_04.png","","","","calm"
"","","","","","html-slider-response","94","182552","0.0-88.0","b0lo9pdn60","NaN","<div style=""width:500px;"">
                            <p style=""font-size:50px; font-weight:bold;""
                            >calm</p>
                            <div style=""width:240px; margin: auto;"">
                                <img src=""images/gray_01.png"" style= ""width:200px""alt=""img"">
                            </div>
                        </div>","123","","0","images/gray_01.png","","","","calm"
"","","","","","html-slider-response","95","183425","0.0-89.0","b0lo9pdn60","NaN","<div style=""width:500px;"">
                            <p style=""font-size:50px; font-weight:bold;""
                            >calm</p>
                            <div style=""width:240px; margin: auto;"">
                                <img src=""images/gray_12.png"" style= ""width:200px""alt=""img"">
                            </div>
                        </div>","123","","0","images/gray_12.png","","","","calm"
"","","","","","html-slider-response","96","184833","0.0-90.0","b0lo9pdn60","NaN","<div style=""width:500px;"">
                            <p style=""font-size:50px; font-weight:bold;""
                            >calm</p>
                            <div style=""width:240px; margin: auto;"">
                                <img src=""images/gray_29.png"" style= ""width:200px""alt=""img"">
                            </div>
                        </div>","104","","0","images/gray_29.png","","","","calm"
"","","","","","html-slider-response","97","186234","0.0-91.0","b0lo9pdn60","NaN","<div style=""width:500px;"">
                            <p style=""font-size:50px; font-weight:bold;""
                            >calm</p>
                            <div style=""width:240px; margin: auto;"">
                                <img src=""images/gray_33.png"" style= ""width:200px""alt=""img"">
                            </div>
                        </div>","130","","0","images/gray_33.png","","","","calm"
"","","","","","html-slider-response","98","187589","0.0-92.0","b0lo9pdn60","NaN","<div style=""width:500px;"">
                            <p style=""font-size:50px; font-weight:bold;""
                            >calm</p>
                            <div style=""width:240px; margin: auto;"">
                                <img src=""images/gray_38.png"" style= ""width:200px""alt=""img"">
                            </div>
                        </div>","-116","","0","images/gray_38.png","","","","calm"
"","","","","","html-slider-response","99","189352","0.0-93.0","b0lo9pdn60","NaN","<div style=""width:500px;"">
                            <p style=""font-size:50px; font-weight:bold;""
                            >calm</p>
                            <div style=""width:240px; margin: auto;"">
                                <img src=""images/gray_10.png"" style= ""width:200px""alt=""img"">
                            </div>
                        </div>","143","","0","images/gray_10.png","","","","calm"
"","","","","","html-slider-response","100","190530","0.0-94.0","b0lo9pdn60","NaN","<div style=""width:500px;"">
                            <p style=""font-size:50px; font-weight:bold;""
                            >calm</p>
                            <div style=""width:240px; margin: auto;"">
                                <img src=""images/gray_23.png"" style= ""width:200px""alt=""img"">
                            </div>
                        </div>","-145","","0","images/gray_23.png","","","","calm"
"","","","","","html-slider-response","101","192244","0.0-95.0","b0lo9pdn60","NaN","<div style=""width:500px;"">
                            <p style=""font-size:50px; font-weight:bold;""
                            >calm</p>
                            <div style=""width:240px; margin: auto;"">
                                <img src=""images/gray_13.png"" style= ""width:200px""alt=""img"">
                            </div>
                        </div>","-132","","0","images/gray_13.png","","","","calm"
"","","","","","html-slider-response","102","193642","0.0-96.0","b0lo9pdn60","NaN","<div style=""width:500px;"">
                            <p style=""font-size:50px; font-weight:bold;""
                            >calm</p>
                            <div style=""width:240px; margin: auto;"">
                                <img src=""images/gray_34.png"" style= ""width:200px""alt=""img"">
                            </div>
                        </div>","-150","","0","images/gray_34.png","","","","calm"
"","","","","","html-slider-response","103","195283","0.0-97.0","b0lo9pdn60","NaN","<div style=""width:500px;"">
                            <p style=""font-size:50px; font-weight:bold;""
                            >calm</p>
                            <div style=""width:240px; margin: auto;"">
                                <img src=""images/gray_03.png"" style= ""width:200px""alt=""img"">
                            </div>
                        </div>","127","","0","images/gray_03.png","","","","calm"
"","","","","","html-slider-response","104","196881","0.0-98.0","b0lo9pdn60","NaN","<div style=""width:500px;"">
                            <p style=""font-size:50px; font-weight:bold;""
                            >calm</p>
                            <div style=""width:240px; margin: auto;"">
                                <img src=""images/gray_22.png"" style= ""width:200px""alt=""img"">
                            </div>
                        </div>","90","","0","images/gray_22.png","","","","calm"
"","","","","","html-slider-response","105","198014","0.0-99.0","b0lo9pdn60","NaN","<div style=""width:500px;"">
                            <p style=""font-size:50px; font-weight:bold;""
                            >calm</p>
                            <div style=""width:240px; margin: auto;"">
                                <img src=""images/gray_41.png"" style= ""width:200px""alt=""img"">
                            </div>
                        </div>","-96","","0","images/gray_41.png","","","","calm"
"","","","","","html-slider-response","106","199093","0.0-100.0","b0lo9pdn60","NaN","<div style=""width:500px;"">
                            <p style=""font-size:50px; font-weight:bold;""
                            >calm</p>
                            <div style=""width:240px; margin: auto;"">
                                <img src=""images/gray_43.png"" style= ""width:200px""alt=""img"">
                            </div>
                        </div>","136","","0","images/gray_43.png","","","","calm"
"","","","","","html-slider-response","107","200357","0.0-101.0","b0lo9pdn60","NaN","<div style=""width:500px;"">
                            <p style=""font-size:50px; font-weight:bold;""
                            >calm</p>
                            <div style=""width:240px; margin: auto;"">
                                <img src=""images/gray_32.png"" style= ""width:200px""alt=""img"">
                            </div>
                        </div>","166","","0","images/gray_32.png","","","","calm"
"","","","","","html-slider-response","108","255880","0.0-102.0","b0lo9pdn60","NaN","<div style=""width:500px;"">
                            <p style=""font-size:50px; font-weight:bold;""
                            >calm</p>
                            <div style=""width:240px; margin: auto;"">
                                <img src=""images/gray_37.png"" style= ""width:200px""alt=""img"">
                            </div>
                        </div>","-184","","0","images/gray_37.png","","","","calm"
"","","","","","html-slider-response","109","257550","0.0-103.0","b0lo9pdn60","NaN","<div style=""width:500px;"">
                            <p style=""font-size:50px; font-weight:bold;""
                            >calm</p>
                            <div style=""width:240px; margin: auto;"">
                                <img src=""images/gray_21.png"" style= ""width:200px""alt=""img"">
                            </div>
                        </div>","-152","","0","images/gray_21.png","","","","calm"
"","","","","","html-button-response","110","258924","0.0-104.0","b0lo9pdn60","871","<p>Great Job! You've finished block 2.<br></br> You have 6 block(s) left to go.<br></br></p>","0","","","","","","",""
"","","","","","html-button-response","111","259543","0.0-105.0","b0lo9pdn60","619","<p>In this block of trials, you will be asked to rate how much you associate each map with:</p > <p style = 'font-size:150%; font-weight: bold'>disturbing</p><br></br>","0","","","","","","",""
"","","","","","html-slider-response","112","260764","0.0-106.0","b0lo9pdn60","NaN","<div style=""width:500px;"">
                            <p style=""font-size:50px; font-weight:bold;""
                            >disturbing</p>
                            <div style=""width:240px; margin: auto;"">
                                <img src=""images/gray_27.png"" style= ""width:200px""alt=""img"">
                            </div>
                        </div>","115","","0","images/gray_27.png","","","","disturbing"
"","","","","","html-slider-response","113","261552","0.0-107.0","b0lo9pdn60","NaN","<div style=""width:500px;"">
                            <p style=""font-size:50px; font-weight:bold;""
                            >disturbing</p>
                            <div style=""width:240px; margin: auto;"">
                                <img src=""images/gray_06.png"" style= ""width:200px""alt=""img"">
                            </div>
                        </div>","134","","0","images/gray_06.png","","","","disturbing"
"","","","","","html-slider-response","114","262219","0.0-108.0","b0lo9pdn60","NaN","<div style=""width:500px;"">
                            <p style=""font-size:50px; font-weight:bold;""
                            >disturbing</p>
                            <div style=""width:240px; margin: auto;"">
                                <img src=""images/gray_37.png"" style= ""width:200px""alt=""img"">
                            </div>
                        </div>","-130","","0","images/gray_37.png","","","","disturbing"
"","","","","","html-slider-response","115","262850","0.0-109.0","b0lo9pdn60","NaN","<div style=""width:500px;"">
                            <p style=""font-size:50px; font-weight:bold;""
                            >disturbing</p>
                            <div style=""width:240px; margin: auto;"">
                                <img src=""images/gray_42.png"" style= ""width:200px""alt=""img"">
                            </div>
                        </div>","127","","0","images/gray_42.png","","","","disturbing"
"","","","","","html-slider-response","116","264599","0.0-110.0","b0lo9pdn60","NaN","<div style=""width:500px;"">
                            <p style=""font-size:50px; font-weight:bold;""
                            >disturbing</p>
                            <div style=""width:240px; margin: auto;"">
                                <img src=""images/gray_21.png"" style= ""width:200px""alt=""img"">
                            </div>
                        </div>","138","","0","images/gray_21.png","","","","disturbing"
"","","","","","html-slider-response","117","265762","0.0-111.0","b0lo9pdn60","NaN","<div style=""width:500px;"">
                            <p style=""font-size:50px; font-weight:bold;""
                            >disturbing</p>
                            <div style=""width:240px; margin: auto;"">
                                <img src=""images/gray_24.png"" style= ""width:200px""alt=""img"">
                            </div>
                        </div>","137","","0","images/gray_24.png","","","","disturbing"
"","","","","","html-slider-response","118","267016","0.0-112.0","b0lo9pdn60","NaN","<div style=""width:500px;"">
                            <p style=""font-size:50px; font-weight:bold;""
                            >disturbing</p>
                            <div style=""width:240px; margin: auto;"">
                                <img src=""images/gray_41.png"" style= ""width:200px""alt=""img"">
                            </div>
                        </div>","121","","0","images/gray_41.png","","","","disturbing"
"","","","","","html-slider-response","119","268183","0.0-113.0","b0lo9pdn60","NaN","<div style=""width:500px;"">
                            <p style=""font-size:50px; font-weight:bold;""
                            >disturbing</p>
                            <div style=""width:240px; margin: auto;"">
                                <img src=""images/gray_39.png"" style= ""width:200px""alt=""img"">
                            </div>
                        </div>","132","","0","images/gray_39.png","","","","disturbing"
"","","","","","html-slider-response","120","269285","0.0-114.0","b0lo9pdn60","NaN","<div style=""width:500px;"">
                            <p style=""font-size:50px; font-weight:bold;""
                            >disturbing</p>
                            <div style=""width:240px; margin: auto;"">
                                <img src=""images/gray_03.png"" style= ""width:200px""alt=""img"">
                            </div>
                        </div>","152","","0","images/gray_03.png","","","","disturbing"
"","","","","","html-slider-response","121","270183","0.0-115.0","b0lo9pdn60","NaN","<div style=""width:500px;"">
                            <p style=""font-size:50px; font-weight:bold;""
                            >disturbing</p>
                            <div style=""width:240px; margin: auto;"">
                                <img src=""images/gray_38.png"" style= ""width:200px""alt=""img"">
                            </div>
                        </div>","135","","0","images/gray_38.png","","","","disturbing"
"","","","","","html-slider-response","122","271080","0.0-116.0","b0lo9pdn60","NaN","<div style=""width:500px;"">
                            <p style=""font-size:50px; font-weight:bold;""
                            >disturbing</p>
                            <div style=""width:240px; margin: auto;"">
                                <img src=""images/gray_26.png"" style= ""width:200px""alt=""img"">
                            </div>
                        </div>","135","","0","images/gray_26.png","","","","disturbing"
"","","","","","html-slider-response","123","271921","0.0-117.0","b0lo9pdn60","NaN","<div style=""width:500px;"">
                            <p style=""font-size:50px; font-weight:bold;""
                            >disturbing</p>
                            <div style=""width:240px; margin: auto;"">
                                <img src=""images/gray_28.png"" style= ""width:200px""alt=""img"">
                            </div>
                        </div>","-84","","0","images/gray_28.png","","","","disturbing"
"","","","","","html-slider-response","124","272714","0.0-118.0","b0lo9pdn60","NaN","<div style=""width:500px;"">
                            <p style=""font-size:50px; font-weight:bold;""
                            >disturbing</p>
                            <div style=""width:240px; margin: auto;"">
                                <img src=""images/gray_17.png"" style= ""width:200px""alt=""img"">
                            </div>
                        </div>","153","","0","images/gray_17.png","","","","disturbing"
"","","","","","html-slider-response","125","274710","0.0-119.0","b0lo9pdn60","NaN","<div style=""width:500px;"">
                            <p style=""font-size:50px; font-weight:bold;""
                            >disturbing</p>
                            <div style=""width:240px; margin: auto;"">
                                <img src=""images/gray_36.png"" style= ""width:200px""alt=""img"">
                            </div>
                        </div>","-131","","0","images/gray_36.png","","","","disturbing"
"","","","","","html-slider-response","126","275887","0.0-120.0","b0lo9pdn60","NaN","<div style=""width:500px;"">
                            <p style=""font-size:50px; font-weight:bold;""
                            >disturbing</p>
                            <div style=""width:240px; margin: auto;"">
                                <img src=""images/gray_35.png"" style= ""width:200px""alt=""img"">
                            </div>
                        </div>","107","","0","images/gray_35.png","","","","disturbing"
"","","","","","html-slider-response","127","276798","0.0-121.0","b0lo9pdn60","NaN","<div style=""width:500px;"">
                            <p style=""font-size:50px; font-weight:bold;""
                            >disturbing</p>
                            <div style=""width:240px; margin: auto;"">
                                <img src=""images/gray_12.png"" style= ""width:200px""alt=""img"">
                            </div>
                        </div>","105","","0","images/gray_12.png","","","","disturbing"
"","","","","","html-slider-response","128","277682","0.0-122.0","b0lo9pdn60","NaN","<div style=""width:500px;"">
                            <p style=""font-size:50px; font-weight:bold;""
                            >disturbing</p>
                            <div style=""width:240px; margin: auto;"">
                                <img src=""images/gray_43.png"" style= ""width:200px""alt=""img"">
                            </div>
                        </div>","130","","0","images/gray_43.png","","","","disturbing"
"","","","","","html-slider-response","129","278637","0.0-123.0","b0lo9pdn60","NaN","<div style=""width:500px;"">
                            <p style=""font-size:50px; font-weight:bold;""
                            >disturbing</p>
                            <div style=""width:240px; margin: auto;"">
                                <img src=""images/gray_02.png"" style= ""width:200px""alt=""img"">
                            </div>
                        </div>","120","","0","images/gray_02.png","","","","disturbing"
"","","","","","html-slider-response","130","280318","0.0-124.0","b0lo9pdn60","NaN","<div style=""width:500px;"">
                            <p style=""font-size:50px; font-weight:bold;""
                            >disturbing</p>
                            <div style=""width:240px; margin: auto;"">
                                <img src=""images/gray_16.png"" style= ""width:200px""alt=""img"">
                            </div>
                        </div>","-114","","0","images/gray_16.png","","","","disturbing"
"","","","","","html-slider-response","131","281524","0.0-125.0","b0lo9pdn60","NaN","<div style=""width:500px;"">
                            <p style=""font-size:50px; font-weight:bold;""
                            >disturbing</p>
                            <div style=""width:240px; margin: auto;"">
                                <img src=""images/gray_32.png"" style= ""width:200px""alt=""img"">
                            </div>
                        </div>","106","","0","images/gray_32.png","","","","disturbing"
"","","","","","html-slider-response","132","282746","0.0-126.0","b0lo9pdn60","NaN","<div style=""width:500px;"">
                            <p style=""font-size:50px; font-weight:bold;""
                            >disturbing</p>
                            <div style=""width:240px; margin: auto;"">
                                <img src=""images/gray_44.png"" style= ""width:200px""alt=""img"">
                            </div>
                        </div>","115","","0","images/gray_44.png","","","","disturbing"
"","","","","","html-slider-response","133","283694","0.0-127.0","b0lo9pdn60","NaN","<div style=""width:500px;"">
                            <p style=""font-size:50px; font-weight:bold;""
                            >disturbing</p>
                            <div style=""width:240px; margin: auto;"">
                                <img src=""images/gray_29.png"" style= ""width:200px""alt=""img"">
                            </div>
                        </div>","115","","0","images/gray_29.png","","","","disturbing"
"","","","","","html-slider-response","134","285043","0.0-128.0","b0lo9pdn60","NaN","<div style=""width:500px;"">
                            <p style=""font-size:50px; font-weight:bold;""
                            >disturbing</p>
                            <div style=""width:240px; margin: auto;"">
                                <img src=""images/gray_08.png"" style= ""width:200px""alt=""img"">
                            </div>
                        </div>","115","","0","images/gray_08.png","","","","disturbing"
"","","","","","html-slider-response","135","286068","0.0-129.0","b0lo9pdn60","NaN","<div style=""width:500px;"">
                            <p style=""font-size:50px; font-weight:bold;""
                            >disturbing</p>
                            <div style=""width:240px; margin: auto;"">
                                <img src=""images/gray_19.png"" style= ""width:200px""alt=""img"">
                            </div>
                        </div>","-171","","0","images/gray_19.png","","","","disturbing"
"","","","","","html-slider-response","136","286865","0.0-130.0","b0lo9pdn60","NaN","<div style=""width:500px;"">
                            <p style=""font-size:50px; font-weight:bold;""
                            >disturbing</p>
                            <div style=""width:240px; margin: auto;"">
                                <img src=""images/gray_10.png"" style= ""width:200px""alt=""img"">
                            </div>
                        </div>","100","","0","images/gray_10.png","","","","disturbing"
"","","","","","html-slider-response","137","288486","0.0-131.0","b0lo9pdn60","NaN","<div style=""width:500px;"">
                            <p style=""font-size:50px; font-weight:bold;""
                            >disturbing</p>
                            <div style=""width:240px; margin: auto;"">
                                <img src=""images/gray_18.png"" style= ""width:200px""alt=""img"">
                            </div>
                        </div>","119","","0","images/gray_18.png","","","","disturbing"
"","","","","","html-slider-response","138","289949","0.0-132.0","b0lo9pdn60","NaN","<div style=""width:500px;"">
                            <p style=""font-size:50px; font-weight:bold;""
                            >disturbing</p>
                            <div style=""width:240px; margin: auto;"">
                                <img src=""images/gray_20.png"" style= ""width:200px""alt=""img"">
                            </div>
                        </div>","-152","","0","images/gray_20.png","","","","disturbing"
"","","","","","html-slider-response","139","291865","0.0-133.0","b0lo9pdn60","NaN","<div style=""width:500px;"">
                            <p style=""font-size:50px; font-weight:bold;""
                            >disturbing</p>
                            <div style=""width:240px; margin: auto;"">
                                <img src=""images/gray_33.png"" style= ""width:200px""alt=""img"">
                            </div>
                        </div>","-146","","0","images/gray_33.png","","","","disturbing"
"","","","","","html-slider-response","140","292736","0.0-134.0","b0lo9pdn60","NaN","<div style=""width:500px;"">
                            <p style=""font-size:50px; font-weight:bold;""
                            >disturbing</p>
                            <div style=""width:240px; margin: auto;"">
                                <img src=""images/gray_22.png"" style= ""width:200px""alt=""img"">
                            </div>
                        </div>","124","","0","images/gray_22.png","","","","disturbing"
"","","","","","html-slider-response","141","293550","0.0-135.0","b0lo9pdn60","NaN","<div style=""width:500px;"">
                            <p style=""font-size:50px; font-weight:bold;""
                            >disturbing</p>
                            <div style=""width:240px; margin: auto;"">
                                <img src=""images/gray_05.png"" style= ""width:200px""alt=""img"">
                            </div>
                        </div>","123","","0","images/gray_05.png","","","","disturbing"
"","","","","","html-slider-response","142","294388","0.0-136.0","b0lo9pdn60","NaN","<div style=""width:500px;"">
                            <p style=""font-size:50px; font-weight:bold;""
                            >disturbing</p>
                            <div style=""width:240px; margin: auto;"">
                                <img src=""images/gray_15.png"" style= ""width:200px""alt=""img"">
                            </div>
                        </div>","118","","0","images/gray_15.png","","","","disturbing"
"","","","","","html-slider-response","143","295218","0.0-137.0","b0lo9pdn60","NaN","<div style=""width:500px;"">
                            <p style=""font-size:50px; font-weight:bold;""
                            >disturbing</p>
                            <div style=""width:240px; margin: auto;"">
                                <img src=""images/gray_09.png"" style= ""width:200px""alt=""img"">
                            </div>
                        </div>","134","","0","images/gray_09.png","","","","disturbing"
"","","","","","html-slider-response","144","295996","0.0-138.0","b0lo9pdn60","NaN","<div style=""width:500px;"">
                            <p style=""font-size:50px; font-weight:bold;""
                            >disturbing</p>
                            <div style=""width:240px; margin: auto;"">
                                <img src=""images/gray_34.png"" style= ""width:200px""alt=""img"">
                            </div>
                        </div>","134","","0","images/gray_34.png","","","","disturbing"
"","","","","","html-slider-response","145","297475","0.0-139.0","b0lo9pdn60","NaN","<div style=""width:500px;"">
                            <p style=""font-size:50px; font-weight:bold;""
                            >disturbing</p>
                            <div style=""width:240px; margin: auto;"">
                                <img src=""images/gray_13.png"" style= ""width:200px""alt=""img"">
                            </div>
                        </div>","-150","","0","images/gray_13.png","","","","disturbing"
"","","","","","html-slider-response","146","298260","0.0-140.0","b0lo9pdn60","NaN","<div style=""width:500px;"">
                            <p style=""font-size:50px; font-weight:bold;""
                            >disturbing</p>
                            <div style=""width:240px; margin: auto;"">
                                <img src=""images/gray_11.png"" style= ""width:200px""alt=""img"">
                            </div>
                        </div>","106","","0","images/gray_11.png","","","","disturbing"
"","","","","","html-slider-response","147","299192","0.0-141.0","b0lo9pdn60","NaN","<div style=""width:500px;"">
                            <p style=""font-size:50px; font-weight:bold;""
                            >disturbing</p>
                            <div style=""width:240px; margin: auto;"">
                                <img src=""images/gray_40.png"" style= ""width:200px""alt=""img"">
                            </div>
                        </div>","111","","0","images/gray_40.png","","","","disturbing"
"","","","","","html-slider-response","148","301489","0.0-142.0","b0lo9pdn60","NaN","<div style=""width:500px;"">
                            <p style=""font-size:50px; font-weight:bold;""
                            >disturbing</p>
                            <div style=""width:240px; margin: auto;"">
                                <img src=""images/gray_25.png"" style= ""width:200px""alt=""img"">
                            </div>
                        </div>","-139","","0","images/gray_25.png","","","","disturbing"
"","","","","","html-slider-response","149","302477","0.0-143.0","b0lo9pdn60","NaN","<div style=""width:500px;"">
                            <p style=""font-size:50px; font-weight:bold;""
                            >disturbing</p>
                            <div style=""width:240px; margin: auto;"">
                                <img src=""images/gray_01.png"" style= ""width:200px""alt=""img"">
                            </div>
                        </div>","123","","0","images/gray_01.png","","","","disturbing"
"","","","","","html-slider-response","150","303125","0.0-144.0","b0lo9pdn60","NaN","<div style=""width:500px;"">
                            <p style=""font-size:50px; font-weight:bold;""
                            >disturbing</p>
                            <div style=""width:240px; margin: auto;"">
                                <img src=""images/gray_04.png"" style= ""width:200px""alt=""img"">
                            </div>
                        </div>","120","","0","images/gray_04.png","","","","disturbing"
"","","","","","html-slider-response","151","304642","0.0-145.0","b0lo9pdn60","NaN","<div style=""width:500px;"">
                            <p style=""font-size:50px; font-weight:bold;""
                            >disturbing</p>
                            <div style=""width:240px; margin: auto;"">
                                <img src=""images/gray_23.png"" style= ""width:200px""alt=""img"">
                            </div>
                        </div>","124","","0","images/gray_23.png","","","","disturbing"
"","","","","","html-slider-response","152","305440","0.0-146.0","b0lo9pdn60","NaN","<div style=""width:500px;"">
                            <p style=""font-size:50px; font-weight:bold;""
                            >disturbing</p>
                            <div style=""width:240px; margin: auto;"">
                                <img src=""images/gray_30.png"" style= ""width:200px""alt=""img"">
                            </div>
                        </div>","112","","0","images/gray_30.png","","","","disturbing"
"","","","","","html-slider-response","153","307586","0.0-147.0","b0lo9pdn60","NaN","<div style=""width:500px;"">
                            <p style=""font-size:50px; font-weight:bold;""
                            >disturbing</p>
                            <div style=""width:240px; margin: auto;"">
                                <img src=""images/gray_14.png"" style= ""width:200px""alt=""img"">
                            </div>
                        </div>","-142","","0","images/gray_14.png","","","","disturbing"
"","","","","","html-slider-response","154","309124","0.0-148.0","b0lo9pdn60","NaN","<div style=""width:500px;"">
                            <p style=""font-size:50px; font-weight:bold;""
                            >disturbing</p>
                            <div style=""width:240px; margin: auto;"">
                                <img src=""images/gray_07.png"" style= ""width:200px""alt=""img"">
                            </div>
                        </div>","138","","0","images/gray_07.png","","","","disturbing"
"","","","","","html-slider-response","155","310963","0.0-149.0","b0lo9pdn60","NaN","<div style=""width:500px;"">
                            <p style=""font-size:50px; font-weight:bold;""
                            >disturbing</p>
                            <div style=""width:240px; margin: auto;"">
                                <img src=""images/gray_31.png"" style= ""width:200px""alt=""img"">
                            </div>
                        </div>","-153","","0","images/gray_31.png","","","","disturbing"
"","","","","","html-button-response","156","312445","0.0-150.0","b0lo9pdn60","973","<p>Great Job! You've finished block 3.<br></br> You have 5 block(s) left to go.<br></br></p>","0","","","","","","",""
"","","","","","html-button-response","157","313171","0.0-151.0","b0lo9pdn60","725","<p>In this block of trials, you will be asked to rate how much you associate each map with:</p > <p style = 'font-size:150%; font-weight: bold'>playful</p><br></br>","0","","","","","","",""
"","","","","","html-slider-response","158","314904","0.0-152.0","b0lo9pdn60","NaN","<div style=""width:500px;"">
                            <p style=""font-size:50px; font-weight:bold;""
                            >playful</p>
                            <div style=""width:240px; margin: auto;"">
                                <img src=""images/gray_28.png"" style= ""width:200px""alt=""img"">
                            </div>
                        </div>","-140","","0","images/gray_28.png","","","","playful"
"","","","","","html-slider-response","159","316180","0.0-153.0","b0lo9pdn60","NaN","<div style=""width:500px;"">
                            <p style=""font-size:50px; font-weight:bold;""
                            >playful</p>
                            <div style=""width:240px; margin: auto;"">
                                <img src=""images/gray_10.png"" style= ""width:200px""alt=""img"">
                            </div>
                        </div>","-145","","0","images/gray_10.png","","","","playful"
"","","","","","html-slider-response","160","317521","0.0-154.0","b0lo9pdn60","NaN","<div style=""width:500px;"">
                            <p style=""font-size:50px; font-weight:bold;""
                            >playful</p>
                            <div style=""width:240px; margin: auto;"">
                                <img src=""images/gray_40.png"" style= ""width:200px""alt=""img"">
                            </div>
                        </div>","-177","","0","images/gray_40.png","","","","playful"
"","","","","","html-slider-response","161","318818","0.0-155.0","b0lo9pdn60","NaN","<div style=""width:500px;"">
                            <p style=""font-size:50px; font-weight:bold;""
                            >playful</p>
                            <div style=""width:240px; margin: auto;"">
                                <img src=""images/gray_34.png"" style= ""width:200px""alt=""img"">
                            </div>
                        </div>","94","","0","images/gray_34.png","","","","playful"
"","","","","","html-slider-response","162","319846","0.0-156.0","b0lo9pdn60","NaN","<div style=""width:500px;"">
                            <p style=""font-size:50px; font-weight:bold;""
                            >playful</p>
                            <div style=""width:240px; margin: auto;"">
                                <img src=""images/gray_42.png"" style= ""width:200px""alt=""img"">
                            </div>
                        </div>","-54","","0","images/gray_42.png","","","","playful"
"","","","","","html-slider-response","163","320925","0.0-157.0","b0lo9pdn60","NaN","<div style=""width:500px;"">
                            <p style=""font-size:50px; font-weight:bold;""
                            >playful</p>
                            <div style=""width:240px; margin: auto;"">
                                <img src=""images/gray_12.png"" style= ""width:200px""alt=""img"">
                            </div>
                        </div>","0","","0","images/gray_12.png","","","","playful"
"","","","","","html-slider-response","164","321665","0.0-158.0","b0lo9pdn60","NaN","<div style=""width:500px;"">
                            <p style=""font-size:50px; font-weight:bold;""
                            >playful</p>
                            <div style=""width:240px; margin: auto;"">
                                <img src=""images/gray_01.png"" style= ""width:200px""alt=""img"">
                            </div>
                        </div>","-2","","0","images/gray_01.png","","","","playful"
"","","","","","html-slider-response","165","322270","0.0-159.0","b0lo9pdn60","NaN","<div style=""width:500px;"">
                            <p style=""font-size:50px; font-weight:bold;""
                            >playful</p>
                            <div style=""width:240px; margin: auto;"">
                                <img src=""images/gray_39.png"" style= ""width:200px""alt=""img"">
                            </div>
                        </div>","-114","","0","images/gray_39.png","","","","playful"
"","","","","","html-slider-response","166","323048","0.0-160.0","b0lo9pdn60","NaN","<div style=""width:500px;"">
                            <p style=""font-size:50px; font-weight:bold;""
                            >playful</p>
                            <div style=""width:240px; margin: auto;"">
                                <img src=""images/gray_24.png"" style= ""width:200px""alt=""img"">
                            </div>
                        </div>","-126","","0","images/gray_24.png","","","","playful"
"","","","","","html-slider-response","167","323675","0.0-161.0","b0lo9pdn60","NaN","<div style=""width:500px;"">
                            <p style=""font-size:50px; font-weight:bold;""
                            >playful</p>
                            <div style=""width:240px; margin: auto;"">
                                <img src=""images/gray_15.png"" style= ""width:200px""alt=""img"">
                            </div>
                        </div>","-82","","0","images/gray_15.png","","","","playful"
"","","","","","html-slider-response","168","324801","0.0-162.0","b0lo9pdn60","NaN","<div style=""width:500px;"">
                            <p style=""font-size:50px; font-weight:bold;""
                            >playful</p>
                            <div style=""width:240px; margin: auto;"">
                                <img src=""images/gray_19.png"" style= ""width:200px""alt=""img"">
                            </div>
                        </div>","-114","","0","images/gray_19.png","","","","playful"
"","","","","","html-slider-response","169","325788","0.0-163.0","b0lo9pdn60","NaN","<div style=""width:500px;"">
                            <p style=""font-size:50px; font-weight:bold;""
                            >playful</p>
                            <div style=""width:240px; margin: auto;"">
                                <img src=""images/gray_08.png"" style= ""width:200px""alt=""img"">
                            </div>
                        </div>","-69","","0","images/gray_08.png","","","","playful"
"","","","","","html-slider-response","170","327142","0.0-164.0","b0lo9pdn60","NaN","<div style=""width:500px;"">
                            <p style=""font-size:50px; font-weight:bold;""
                            >playful</p>
                            <div style=""width:240px; margin: auto;"">
                                <img src=""images/gray_17.png"" style= ""width:200px""alt=""img"">
                            </div>
                        </div>","-69","","0","images/gray_17.png","","","","playful"
"","","","","","html-slider-response","171","328176","0.0-165.0","b0lo9pdn60","NaN","<div style=""width:500px;"">
                            <p style=""font-size:50px; font-weight:bold;""
                            >playful</p>
                            <div style=""width:240px; margin: auto;"">
                                <img src=""images/gray_26.png"" style= ""width:200px""alt=""img"">
                            </div>
                        </div>","-115","","0","images/gray_26.png","","","","playful"
"","","","","","html-slider-response","172","329200","0.0-166.0","b0lo9pdn60","NaN","<div style=""width:500px;"">
                            <p style=""font-size:50px; font-weight:bold;""
                            >playful</p>
                            <div style=""width:240px; margin: auto;"">
                                <img src=""images/gray_37.png"" style= ""width:200px""alt=""img"">
                            </div>
                        </div>","-113","","0","images/gray_37.png","","","","playful"
"","","","","","html-slider-response","173","330932","0.0-167.0","b0lo9pdn60","NaN","<div style=""width:500px;"">
                            <p style=""font-size:50px; font-weight:bold;""
                            >playful</p>
                            <div style=""width:240px; margin: auto;"">
                                <img src=""images/gray_36.png"" style= ""width:200px""alt=""img"">
                            </div>
                        </div>","-119","","0","images/gray_36.png","","","","playful"
"","","","","","html-slider-response","174","332082","0.0-168.0","b0lo9pdn60","NaN","<div style=""width:500px;"">
                            <p style=""font-size:50px; font-weight:bold;""
                            >playful</p>
                            <div style=""width:240px; margin: auto;"">
                                <img src=""images/gray_27.png"" style= ""width:200px""alt=""img"">
                            </div>
                        </div>","111","","0","images/gray_27.png","","","","playful"
"","","","","","html-slider-response","175","333075","0.0-169.0","b0lo9pdn60","NaN","<div style=""width:500px;"">
                            <p style=""font-size:50px; font-weight:bold;""
                            >playful</p>
                            <div style=""width:240px; margin: auto;"">
                                <img src=""images/gray_35.png"" style= ""width:200px""alt=""img"">
                            </div>
                        </div>","-142","","0","images/gray_35.png","","","","playful"
"","","","","","html-slider-response","176","333808","0.0-170.0","b0lo9pdn60","NaN","<div style=""width:500px;"">
                            <p style=""font-size:50px; font-weight:bold;""
                            >playful</p>
                            <div style=""width:240px; margin: auto;"">
                                <img src=""images/gray_30.png"" style= ""width:200px""alt=""img"">
                            </div>
                        </div>","-110","","0","images/gray_30.png","","","","playful"
"","","","","","html-slider-response","177","335180","0.0-171.0","b0lo9pdn60","NaN","<div style=""width:500px;"">
                            <p style=""font-size:50px; font-weight:bold;""
                            >playful</p>
                            <div style=""width:240px; margin: auto;"">
                                <img src=""images/gray_22.png"" style= ""width:200px""alt=""img"">
                            </div>
                        </div>","-92","","0","images/gray_22.png","","","","playful"
"","","","","","html-slider-response","178","335998","0.0-172.0","b0lo9pdn60","NaN","<div style=""width:500px;"">
                            <p style=""font-size:50px; font-weight:bold;""
                            >playful</p>
                            <div style=""width:240px; margin: auto;"">
                                <img src=""images/gray_14.png"" style= ""width:200px""alt=""img"">
                            </div>
                        </div>","-90","","0","images/gray_14.png","","","","playful"
"","","","","","html-slider-response","179","336759","0.0-173.0","b0lo9pdn60","NaN","<div style=""width:500px;"">
                            <p style=""font-size:50px; font-weight:bold;""
                            >playful</p>
                            <div style=""width:240px; margin: auto;"">
                                <img src=""images/gray_11.png"" style= ""width:200px""alt=""img"">
                            </div>
                        </div>","-90","","0","images/gray_11.png","","","","playful"
"","","","","","html-slider-response","180","337432","0.0-174.0","b0lo9pdn60","NaN","<div style=""width:500px;"">
                            <p style=""font-size:50px; font-weight:bold;""
                            >playful</p>
                            <div style=""width:240px; margin: auto;"">
                                <img src=""images/gray_20.png"" style= ""width:200px""alt=""img"">
                            </div>
                        </div>","-90","","0","images/gray_20.png","","","","playful"
"","","","","","html-slider-response","181","338104","0.0-175.0","b0lo9pdn60","NaN","<div style=""width:500px;"">
                            <p style=""font-size:50px; font-weight:bold;""
                            >playful</p>
                            <div style=""width:240px; margin: auto;"">
                                <img src=""images/gray_29.png"" style= ""width:200px""alt=""img"">
                            </div>
                        </div>","-90","","0","images/gray_29.png","","","","playful"
"","","","","","html-slider-response","182","338948","0.0-176.0","b0lo9pdn60","NaN","<div style=""width:500px;"">
                            <p style=""font-size:50px; font-weight:bold;""
                            >playful</p>
                            <div style=""width:240px; margin: auto;"">
                                <img src=""images/gray_06.png"" style= ""width:200px""alt=""img"">
                            </div>
                        </div>","-90","","0","images/gray_06.png","","","","playful"
"","","","","","html-slider-response","183","339589","0.0-177.0","b0lo9pdn60","NaN","<div style=""width:500px;"">
                            <p style=""font-size:50px; font-weight:bold;""
                            >playful</p>
                            <div style=""width:240px; margin: auto;"">
                                <img src=""images/gray_25.png"" style= ""width:200px""alt=""img"">
                            </div>
                        </div>","158","","0","images/gray_25.png","","","","playful"
"","","","","","html-slider-response","184","340280","0.0-178.0","b0lo9pdn60","NaN","<div style=""width:500px;"">
                            <p style=""font-size:50px; font-weight:bold;""
                            >playful</p>
                            <div style=""width:240px; margin: auto;"">
                                <img src=""images/gray_02.png"" style= ""width:200px""alt=""img"">
                            </div>
                        </div>","-78","","0","images/gray_02.png","","","","playful"
"","","","","","html-slider-response","185","341062","0.0-179.0","b0lo9pdn60","NaN","<div style=""width:500px;"">
                            <p style=""font-size:50px; font-weight:bold;""
                            >playful</p>
                            <div style=""width:240px; margin: auto;"">
                                <img src=""images/gray_09.png"" style= ""width:200px""alt=""img"">
                            </div>
                        </div>","112","","0","images/gray_09.png","","","","playful"
"","","","","","html-slider-response","186","341938","0.0-180.0","b0lo9pdn60","NaN","<div style=""width:500px;"">
                            <p style=""font-size:50px; font-weight:bold;""
                            >playful</p>
                            <div style=""width:240px; margin: auto;"">
                                <img src=""images/gray_44.png"" style= ""width:200px""alt=""img"">
                            </div>
                        </div>","-79","","0","images/gray_44.png","","","","playful"
"","","","","","html-slider-response","187","342586","0.0-181.0","b0lo9pdn60","NaN","<div style=""width:500px;"">
                            <p style=""font-size:50px; font-weight:bold;""
                            >playful</p>
                            <div style=""width:240px; margin: auto;"">
                                <img src=""images/gray_05.png"" style= ""width:200px""alt=""img"">
                            </div>
                        </div>","-94","","0","images/gray_05.png","","","","playful"
"","","","","","html-slider-response","188","343492","0.0-182.0","b0lo9pdn60","NaN","<div style=""width:500px;"">
                            <p style=""font-size:50px; font-weight:bold;""
                            >playful</p>
                            <div style=""width:240px; margin: auto;"">
                                <img src=""images/gray_33.png"" style= ""width:200px""alt=""img"">
                            </div>
                        </div>","-94","","0","images/gray_33.png","","","","playful"
"","","","","","html-slider-response","189","344234","0.0-183.0","b0lo9pdn60","NaN","<div style=""width:500px;"">
                            <p style=""font-size:50px; font-weight:bold;""
                            >playful</p>
                            <div style=""width:240px; margin: auto;"">
                                <img src=""images/gray_21.png"" style= ""width:200px""alt=""img"">
                            </div>
                        </div>","-94","","0","images/gray_21.png","","","","playful"
"","","","","","html-slider-response","190","346150","0.0-184.0","b0lo9pdn60","NaN","<div style=""width:500px;"">
                            <p style=""font-size:50px; font-weight:bold;""
                            >playful</p>
                            <div style=""width:240px; margin: auto;"">
                                <img src=""images/gray_31.png"" style= ""width:200px""alt=""img"">
                            </div>
                        </div>","-138","","0","images/gray_31.png","","","","playful"
"","","","","","html-slider-response","191","348191","0.0-185.0","b0lo9pdn60","NaN","<div style=""width:500px;"">
                            <p style=""font-size:50px; font-weight:bold;""
                            >playful</p>
                            <div style=""width:240px; margin: auto;"">
                                <img src=""images/gray_23.png"" style= ""width:200px""alt=""img"">
                            </div>
                        </div>","-111","","0","images/gray_23.png","","","","playful"
"","","","","","html-slider-response","192","349679","0.0-186.0","b0lo9pdn60","NaN","<div style=""width:500px;"">
                            <p style=""font-size:50px; font-weight:bold;""
                            >playful</p>
                            <div style=""width:240px; margin: auto;"">
                                <img src=""images/gray_32.png"" style= ""width:200px""alt=""img"">
                            </div>
                        </div>","-143","","0","images/gray_32.png","","","","playful"
"","","","","","html-slider-response","193","350712","0.0-187.0","b0lo9pdn60","NaN","<div style=""width:500px;"">
                            <p style=""font-size:50px; font-weight:bold;""
                            >playful</p>
                            <div style=""width:240px; margin: auto;"">
                                <img src=""images/gray_03.png"" style= ""width:200px""alt=""img"">
                            </div>
                        </div>","-149","","0","images/gray_03.png","","","","playful"
"","","","","","html-slider-response","194","351979","0.0-188.0","b0lo9pdn60","NaN","<div style=""width:500px;"">
                            <p style=""font-size:50px; font-weight:bold;""
                            >playful</p>
                            <div style=""width:240px; margin: auto;"">
                                <img src=""images/gray_04.png"" style= ""width:200px""alt=""img"">
                            </div>
                        </div>","-154","","0","images/gray_04.png","","","","playful"
"","","","","","html-slider-response","195","353222","0.0-189.0","b0lo9pdn60","NaN","<div style=""width:500px;"">
                            <p style=""font-size:50px; font-weight:bold;""
                            >playful</p>
                            <div style=""width:240px; margin: auto;"">
                                <img src=""images/gray_18.png"" style= ""width:200px""alt=""img"">
                            </div>
                        </div>","-153","","0","images/gray_18.png","","","","playful"
"","","","","","html-slider-response","196","353967","0.0-190.0","b0lo9pdn60","NaN","<div style=""width:500px;"">
                            <p style=""font-size:50px; font-weight:bold;""
                            >playful</p>
                            <div style=""width:240px; margin: auto;"">
                                <img src=""images/gray_13.png"" style= ""width:200px""alt=""img"">
                            </div>
                        </div>","-130","","0","images/gray_13.png","","","","playful"
"","","","","","html-slider-response","197","354801","0.0-191.0","b0lo9pdn60","NaN","<div style=""width:500px;"">
                            <p style=""font-size:50px; font-weight:bold;""
                            >playful</p>
                            <div style=""width:240px; margin: auto;"">
                                <img src=""images/gray_16.png"" style= ""width:200px""alt=""img"">
                            </div>
                        </div>","74","","0","images/gray_16.png","","","","playful"
"","","","","","html-slider-response","198","355948","0.0-192.0","b0lo9pdn60","NaN","<div style=""width:500px;"">
                            <p style=""font-size:50px; font-weight:bold;""
                            >playful</p>
                            <div style=""width:240px; margin: auto;"">
                                <img src=""images/gray_43.png"" style= ""width:200px""alt=""img"">
                            </div>
                        </div>","-124","","0","images/gray_43.png","","","","playful"
"","","","","","html-slider-response","199","356880","0.0-193.0","b0lo9pdn60","NaN","<div style=""width:500px;"">
                            <p style=""font-size:50px; font-weight:bold;""
                            >playful</p>
                            <div style=""width:240px; margin: auto;"">
                                <img src=""images/gray_07.png"" style= ""width:200px""alt=""img"">
                            </div>
                        </div>","-106","","0","images/gray_07.png","","","","playful"
