"success","timeout","failed_images","failed_audio","failed_video","trial_type","trial_index","time_elapsed","internal_node_id","subject_id","rt","stimulus","response","question_order","slider_start","image_path","practiceTrial","practiceTrialNum","correct","concept"
"true","false","[]","[]","[]","preload","0","79","0.0-0.0","b507rgeke2","","","","","","","","","",""
"","","","","","html-button-response","1","3464","0.0-1.0","b507rgeke2","3382","Welcome to our experiment!<p>At the bottom of this screen, you will see a button that says ""Begin Experiment"".<br>Please only click that button when you are ready to complete the 25 minute experiment in one sitting.</p><p> Once you click that button, it will not be possible to restart the experiment.","0","","","","","","",""
"true","","","","","fullscreen","2","6423","0.0-2.0","b507rgeke2","1943","","","","","","","","",""
"","","","","","survey-multi-select","3","32101","0.0-3.0","b507rgeke2","25662","","{""Consent"":[""<strong>I consent</strong>""]}","[0]","","","","","",""
"","","","","","html-button-response","4","36257","0.0-4.0","b507rgeke2","4133","Welcome! <p> This experiment involves two parts: demographic information, followed by the experimental task.<p> It will take about 25 minutes to complete both parts.","0","","","","","","",""
"","","","","","survey-text","5","60169","0.0-5.0","b507rgeke2","23887","","{""Age"":""18"",""Gender"":""Female"",""Race/ethnicity"":""White"",""Languages"":""English""}","","","","","","",""
"","","","","","html-slider-response","6","103751","0.0-6.0","b507rgeke2","43578","
            <div style='text-align:left; font-size:20px; line-height:25px; width: 1200px;'>
                During this experiment you will be asked to rate how much you associate maps with    different concepts.<br> Below, you can see some examples of the maps you will be asked to rate. Next to the maps
    is the list of concepts.<br>You will be asked    to rate how much you associate each map with each concept on a scale from 'not at all' to 'very much' like the
    one below. <br><br>
    Now, please look at the list of concepts and maps. For each concept, think about the map you associate 'very
    much' with the concept.<br>     When you see that map during the experiment, please rate it near the 'very much' endpoint of the
    scale.<br>Now, please think about which map you associate 'not at all'     with each concept. When you see that map during the experiment, please rate it near the 'not at all' endpoint
    of the scale.<br>
    Please use the full range of the scale. That is, if a map is somewhat associated with the concept, you would
    click partway between the middle point and right side of the scale.    You will be asked to rate each map for a given concept before moving on to the next concept.<br><br>Press the
    'Continue' button for instructions on how to use the slider.    <br><br>
</div>

<div style=""width: 500px; margin: 0 auto;"">
    <div style=""text-align: left; width: 200px; float: left;"">
        <p style=""font-size:25px; line-height:18px;"">calm</p>
        <p style=""font-size:25px; line-height:18px;"">exciting</p>
        <p style=""font-size:25px;line-height:18px;"">positive</p>
        <p style=""font-size:25px;line-height:18px;"">negative</p>
        <p style=""font-size:25px;line-height:18px;"">serious</p>
        <p style=""font-size:25px;line-height:18px;"">playful</p>
        <p style=""font-size:25px;line-height:18px;"">trustworthy</p>
        <p style=""font-size:25px;line-height:18px;"">disturbing</p>
    </div>
    <div style=""width: 200px; float: right; padding-top:15px; padding-right:40px"">
        <br>
        <br>
        <img src=""maps_anchoring.png"" alt=""img"" style=""max-width:500px"">
    </div>
    <div style=""clear: both;""></div>
</div>
            ","null","","0","maps_anchoring.png","true","","",""
"","","","","","html-button-response","7","106153","0.0-7.0","b507rgeke2","2397","<div style=""width:800px;""><p style=""text-align:left"">To move the slider, click and drag your cursor to the location of the scale where you would like to make your rating and then let go. When you let go of the slider, your response will be recorded and the next trial will begin. <br>
            We are interested in your initial impressions of each map for the given concept, so please go with your first intuition. <br>
            Before you begin the experiment, there will be four training trials for you to practice using the scale. <br>
             When you are ready to start the training trials, please click ""Continue"".</p><br></div>","0","","","","","","",""
"","","","","","html-slider-response","8","109189","0.0-8.0-0.0","b507rgeke2","NaN","<div style=""width:500px;"">
                            <p style=""font-size:25px;"">Please move the slider all the way to the <br> right endpoint of the scale</p>

                            </div>
                        </div>","95","","0","","true","0","false",""
"","","","","","html-button-response","9","111713","0.0-8.0-1.0","b507rgeke2","2014","<p align='center'><b>Not quite!</b> The slider was not placed near the instructed located. Click on 'Continue' to try again. </p>","0","","","","","","",""
"","","","","","html-slider-response","10","117012","0.0-8.1-0.1","b507rgeke2","NaN","<div style=""width:500px;"">
                            <p style=""font-size:25px;"">Please move the slider all the way to the <br> right endpoint of the scale</p>

                            </div>
                        </div>","195","","0","","true","0","true",""
"","","","","","html-button-response","11","118803","0.0-8.1-1.1","b507rgeke2","1285","<p align='center'><b>Good job!</b> Click on 'Continue' to proceed.</p>","0","","","","","","",""
"","","","","","html-slider-response","12","128099","0.0-9.0-0.0","b507rgeke2","NaN","<div style=""width:500px;"">
                            <p style=""font-size:25px;"">Please move the slider all the way to the <br> left endpoint of the scale</p>

                            </div>
                        </div>","-190","","0","","true","1","true",""
"","","","","","html-button-response","13","129742","0.0-9.0-1.0","b507rgeke2","1135","<p align='center'><b>Good job!</b> Click on 'Continue' to proceed.</p>","0","","","","","","",""
"","","","","","html-slider-response","14","133569","0.0-10.0-0.0","b507rgeke2","NaN","<div style=""width:500px;"">
                            <p style=""font-size:25px;"">Please move the slider halfway between the center and right endpoint of the scale</p>

                            </div>
                        </div>","4","","0","","true","2","false",""
"","","","","","html-button-response","15","135444","0.0-10.0-1.0","b507rgeke2","1358","<p align='center'><b>Not quite!</b> The slider was not placed near the instructed located. Click on 'Continue' to try again. </p>","0","","","","","","",""
"","","","","","html-slider-response","16","141222","0.0-10.1-0.1","b507rgeke2","NaN","<div style=""width:500px;"">
                            <p style=""font-size:25px;"">Please move the slider halfway between the center and right endpoint of the scale</p>

                            </div>
                        </div>","86","","0","","true","2","true",""
"","","","","","html-button-response","17","142847","0.0-10.1-1.1","b507rgeke2","1108","<p align='center'><b>Good job!</b> Click on 'Continue' to proceed.</p>","0","","","","","","",""
"","","","","","html-slider-response","18","144895","0.0-11.0-0.0","b507rgeke2","NaN","<div style=""width:500px;"">
                            <p style=""font-size:25px;"">Please move the slider halfway between the center and left endpoint of the scale</p>

                            </div>
                        </div>","-101","","0","","true","3","true",""
"","","","","","html-button-response","19","147231","0.0-11.0-1.0","b507rgeke2","1827","<p align='center'><b>Good job!</b> Click on 'Continue' to proceed.</p>","0","","","","","","",""
"","","","","","html-button-response","20","148209","0.0-12.0","b507rgeke2","972","<p>Great job! You've completed the practice trials. Now you will begin the main task.</p>","0","","","","","","",""
"","","","","","html-button-response","21","150828","0.0-13.0","b507rgeke2","2614","<p>In this block of trials, you will be asked to rate how much you associate each map with:</p > <p style = 'font-size:150%; font-weight: bold'>calm</p><br></br>","0","","","","","","",""
"","","","","","html-slider-response","22","154542","0.0-14.0","b507rgeke2","NaN","<div style=""width:500px;"">
                            <p style=""font-size:50px; font-weight:bold;""
                            >calm</p>
                            <div style=""width:240px; margin: auto;"">
                                <img src=""images/gray_34.png"" style= ""width:200px""alt=""img"">
                            </div>
                        </div>","119","","0","images/gray_34.png","","","","calm"
"","","","","","html-slider-response","23","160332","0.0-15.0","b507rgeke2","NaN","<div style=""width:500px;"">
                            <p style=""font-size:50px; font-weight:bold;""
                            >calm</p>
                            <div style=""width:240px; margin: auto;"">
                                <img src=""images/gray_32.png"" style= ""width:200px""alt=""img"">
                            </div>
                        </div>","119","","0","images/gray_32.png","","","","calm"
"","","","","","html-slider-response","24","162604","0.0-16.0","b507rgeke2","NaN","<div style=""width:500px;"">
                            <p style=""font-size:50px; font-weight:bold;""
                            >calm</p>
                            <div style=""width:240px; margin: auto;"">
                                <img src=""images/gray_38.png"" style= ""width:200px""alt=""img"">
                            </div>
                        </div>","146","","0","images/gray_38.png","","","","calm"
"","","","","","html-slider-response","25","165483","0.0-17.0","b507rgeke2","NaN","<div style=""width:500px;"">
                            <p style=""font-size:50px; font-weight:bold;""
                            >calm</p>
                            <div style=""width:240px; margin: auto;"">
                                <img src=""images/gray_14.png"" style= ""width:200px""alt=""img"">
                            </div>
                        </div>","125","","0","images/gray_14.png","","","","calm"
"","","","","","html-slider-response","26","169731","0.0-18.0","b507rgeke2","NaN","<div style=""width:500px;"">
                            <p style=""font-size:50px; font-weight:bold;""
                            >calm</p>
                            <div style=""width:240px; margin: auto;"">
                                <img src=""images/gray_11.png"" style= ""width:200px""alt=""img"">
                            </div>
                        </div>","-28","","0","images/gray_11.png","","","","calm"
"","","","","","html-slider-response","27","171885","0.0-19.0","b507rgeke2","NaN","<div style=""width:500px;"">
                            <p style=""font-size:50px; font-weight:bold;""
                            >calm</p>
                            <div style=""width:240px; margin: auto;"">
                                <img src=""images/gray_13.png"" style= ""width:200px""alt=""img"">
                            </div>
                        </div>","-34","","0","images/gray_13.png","","","","calm"
"","","","","","html-slider-response","28","173952","0.0-20.0","b507rgeke2","NaN","<div style=""width:500px;"">
                            <p style=""font-size:50px; font-weight:bold;""
                            >calm</p>
                            <div style=""width:240px; margin: auto;"">
                                <img src=""images/gray_12.png"" style= ""width:200px""alt=""img"">
                            </div>
                        </div>","-14","","0","images/gray_12.png","","","","calm"
"","","","","","html-slider-response","29","175949","0.0-21.0","b507rgeke2","NaN","<div style=""width:500px;"">
                            <p style=""font-size:50px; font-weight:bold;""
                            >calm</p>
                            <div style=""width:240px; margin: auto;"">
                                <img src=""images/gray_26.png"" style= ""width:200px""alt=""img"">
                            </div>
                        </div>","-14","","0","images/gray_26.png","","","","calm"
"","","","","","html-slider-response","30","177692","0.0-22.0","b507rgeke2","NaN","<div style=""width:500px;"">
                            <p style=""font-size:50px; font-weight:bold;""
                            >calm</p>
                            <div style=""width:240px; margin: auto;"">
                                <img src=""images/gray_42.png"" style= ""width:200px""alt=""img"">
                            </div>
                        </div>","-42","","0","images/gray_42.png","","","","calm"
"","","","","","html-slider-response","31","181124","0.0-23.0","b507rgeke2","NaN","<div style=""width:500px;"">
                            <p style=""font-size:50px; font-weight:bold;""
                            >calm</p>
                            <div style=""width:240px; margin: auto;"">
                                <img src=""images/gray_23.png"" style= ""width:200px""alt=""img"">
                            </div>
                        </div>","-49","","0","images/gray_23.png","","","","calm"
"","","","","","html-slider-response","32","183982","0.0-24.0","b507rgeke2","NaN","<div style=""width:500px;"">
                            <p style=""font-size:50px; font-weight:bold;""
                            >calm</p>
                            <div style=""width:240px; margin: auto;"">
                                <img src=""images/gray_07.png"" style= ""width:200px""alt=""img"">
                            </div>
                        </div>","-49","","0","images/gray_07.png","","","","calm"
"","","","","","html-slider-response","33","186055","0.0-25.0","b507rgeke2","NaN","<div style=""width:500px;"">
                            <p style=""font-size:50px; font-weight:bold;""
                            >calm</p>
                            <div style=""width:240px; margin: auto;"">
                                <img src=""images/gray_25.png"" style= ""width:200px""alt=""img"">
                            </div>
                        </div>","43","","0","images/gray_25.png","","","","calm"
"","","","","","html-slider-response","34","188348","0.0-26.0","b507rgeke2","NaN","<div style=""width:500px;"">
                            <p style=""font-size:50px; font-weight:bold;""
                            >calm</p>
                            <div style=""width:240px; margin: auto;"">
                                <img src=""images/gray_44.png"" style= ""width:200px""alt=""img"">
                            </div>
                        </div>","-61","","0","images/gray_44.png","","","","calm"
"","","","","","html-slider-response","35","190419","0.0-27.0","b507rgeke2","NaN","<div style=""width:500px;"">
                            <p style=""font-size:50px; font-weight:bold;""
                            >calm</p>
                            <div style=""width:240px; margin: auto;"">
                                <img src=""images/gray_37.png"" style= ""width:200px""alt=""img"">
                            </div>
                        </div>","22","","0","images/gray_37.png","","","","calm"
"","","","","","html-slider-response","36","192568","0.0-28.0","b507rgeke2","NaN","<div style=""width:500px;"">
                            <p style=""font-size:50px; font-weight:bold;""
                            >calm</p>
                            <div style=""width:240px; margin: auto;"">
                                <img src=""images/gray_05.png"" style= ""width:200px""alt=""img"">
                            </div>
                        </div>","52","","0","images/gray_05.png","","","","calm"
"","","","","","html-slider-response","37","194471","0.0-29.0","b507rgeke2","NaN","<div style=""width:500px;"">
                            <p style=""font-size:50px; font-weight:bold;""
                            >calm</p>
                            <div style=""width:240px; margin: auto;"">
                                <img src=""images/gray_17.png"" style= ""width:200px""alt=""img"">
                            </div>
                        </div>","58","","0","images/gray_17.png","","","","calm"
"","","","","","html-slider-response","38","196468","0.0-30.0","b507rgeke2","NaN","<div style=""width:500px;"">
                            <p style=""font-size:50px; font-weight:bold;""
                            >calm</p>
                            <div style=""width:240px; margin: auto;"">
                                <img src=""images/gray_10.png"" style= ""width:200px""alt=""img"">
                            </div>
                        </div>","86","","0","images/gray_10.png","","","","calm"
"","","","","","html-slider-response","39","198548","0.0-31.0","b507rgeke2","NaN","<div style=""width:500px;"">
                            <p style=""font-size:50px; font-weight:bold;""
                            >calm</p>
                            <div style=""width:240px; margin: auto;"">
                                <img src=""images/gray_03.png"" style= ""width:200px""alt=""img"">
                            </div>
                        </div>","-28","","0","images/gray_03.png","","","","calm"
"","","","","","html-slider-response","40","200816","0.0-32.0","b507rgeke2","NaN","<div style=""width:500px;"">
                            <p style=""font-size:50px; font-weight:bold;""
                            >calm</p>
                            <div style=""width:240px; margin: auto;"">
                                <img src=""images/gray_08.png"" style= ""width:200px""alt=""img"">
                            </div>
                        </div>","30","","0","images/gray_08.png","","","","calm"
"","","","","","html-slider-response","41","205429","0.0-33.0","b507rgeke2","NaN","<div style=""width:500px;"">
                            <p style=""font-size:50px; font-weight:bold;""
                            >calm</p>
                            <div style=""width:240px; margin: auto;"">
                                <img src=""images/gray_24.png"" style= ""width:200px""alt=""img"">
                            </div>
                        </div>","118","","0","images/gray_24.png","","","","calm"
"","","","","","html-slider-response","42","208327","0.0-34.0","b507rgeke2","NaN","<div style=""width:500px;"">
                            <p style=""font-size:50px; font-weight:bold;""
                            >calm</p>
                            <div style=""width:240px; margin: auto;"">
                                <img src=""images/gray_09.png"" style= ""width:200px""alt=""img"">
                            </div>
                        </div>","76","","0","images/gray_09.png","","","","calm"
"","","","","","html-slider-response","43","209824","0.0-35.0","b507rgeke2","NaN","<div style=""width:500px;"">
                            <p style=""font-size:50px; font-weight:bold;""
                            >calm</p>
                            <div style=""width:240px; margin: auto;"">
                                <img src=""images/gray_02.png"" style= ""width:200px""alt=""img"">
                            </div>
                        </div>","76","","0","images/gray_02.png","","","","calm"
"","","","","","html-slider-response","44","213722","0.0-36.0","b507rgeke2","NaN","<div style=""width:500px;"">
                            <p style=""font-size:50px; font-weight:bold;""
                            >calm</p>
                            <div style=""width:240px; margin: auto;"">
                                <img src=""images/gray_21.png"" style= ""width:200px""alt=""img"">
                            </div>
                        </div>","13","","0","images/gray_21.png","","","","calm"
"","","","","","html-slider-response","45","216644","0.0-37.0","b507rgeke2","NaN","<div style=""width:500px;"">
                            <p style=""font-size:50px; font-weight:bold;""
                            >calm</p>
                            <div style=""width:240px; margin: auto;"">
                                <img src=""images/gray_33.png"" style= ""width:200px""alt=""img"">
                            </div>
                        </div>","-30","","0","images/gray_33.png","","","","calm"
"","","","","","html-slider-response","46","218772","0.0-38.0","b507rgeke2","NaN","<div style=""width:500px;"">
                            <p style=""font-size:50px; font-weight:bold;""
                            >calm</p>
                            <div style=""width:240px; margin: auto;"">
                                <img src=""images/gray_41.png"" style= ""width:200px""alt=""img"">
                            </div>
                        </div>","-30","","0","images/gray_41.png","","","","calm"
"","","","","","html-slider-response","47","220691","0.0-39.0","b507rgeke2","NaN","<div style=""width:500px;"">
                            <p style=""font-size:50px; font-weight:bold;""
                            >calm</p>
                            <div style=""width:240px; margin: auto;"">
                                <img src=""images/gray_31.png"" style= ""width:200px""alt=""img"">
                            </div>
                        </div>","71","","0","images/gray_31.png","","","","calm"
"","","","","","html-slider-response","48","222576","0.0-40.0","b507rgeke2","NaN","<div style=""width:500px;"">
                            <p style=""font-size:50px; font-weight:bold;""
                            >calm</p>
                            <div style=""width:240px; margin: auto;"">
                                <img src=""images/gray_16.png"" style= ""width:200px""alt=""img"">
                            </div>
                        </div>","83","","0","images/gray_16.png","","","","calm"
"","","","","","html-slider-response","49","227335","0.0-41.0","b507rgeke2","NaN","<div style=""width:500px;"">
                            <p style=""font-size:50px; font-weight:bold;""
                            >calm</p>
                            <div style=""width:240px; margin: auto;"">
                                <img src=""images/gray_28.png"" style= ""width:200px""alt=""img"">
                            </div>
                        </div>","-35","","0","images/gray_28.png","","","","calm"
"","","","","","html-slider-response","50","228622","0.0-42.0","b507rgeke2","NaN","<div style=""width:500px;"">
                            <p style=""font-size:50px; font-weight:bold;""
                            >calm</p>
                            <div style=""width:240px; margin: auto;"">
                                <img src=""images/gray_40.png"" style= ""width:200px""alt=""img"">
                            </div>
                        </div>","-35","","0","images/gray_40.png","","","","calm"
"","","","","","html-slider-response","51","231764","0.0-43.0","b507rgeke2","NaN","<div style=""width:500px;"">
                            <p style=""font-size:50px; font-weight:bold;""
                            >calm</p>
                            <div style=""width:240px; margin: auto;"">
                                <img src=""images/gray_30.png"" style= ""width:200px""alt=""img"">
                            </div>
                        </div>","-118","","0","images/gray_30.png","","","","calm"
"","","","","","html-slider-response","52","233140","0.0-44.0","b507rgeke2","NaN","<div style=""width:500px;"">
                            <p style=""font-size:50px; font-weight:bold;""
                            >calm</p>
                            <div style=""width:240px; margin: auto;"">
                                <img src=""images/gray_27.png"" style= ""width:200px""alt=""img"">
                            </div>
                        </div>","-110","","0","images/gray_27.png","","","","calm"
"","","","","","html-slider-response","53","236450","0.0-45.0","b507rgeke2","NaN","<div style=""width:500px;"">
                            <p style=""font-size:50px; font-weight:bold;""
                            >calm</p>
                            <div style=""width:240px; margin: auto;"">
                                <img src=""images/gray_18.png"" style= ""width:200px""alt=""img"">
                            </div>
                        </div>","142","","0","images/gray_18.png","","","","calm"
"","","","","","html-slider-response","54","238299","0.0-46.0","b507rgeke2","NaN","<div style=""width:500px;"">
                            <p style=""font-size:50px; font-weight:bold;""
                            >calm</p>
                            <div style=""width:240px; margin: auto;"">
                                <img src=""images/gray_04.png"" style= ""width:200px""alt=""img"">
                            </div>
                        </div>","106","","0","images/gray_04.png","","","","calm"
"","","","","","html-slider-response","55","240655","0.0-47.0","b507rgeke2","NaN","<div style=""width:500px;"">
                            <p style=""font-size:50px; font-weight:bold;""
                            >calm</p>
                            <div style=""width:240px; margin: auto;"">
                                <img src=""images/gray_29.png"" style= ""width:200px""alt=""img"">
                            </div>
                        </div>","168","","0","images/gray_29.png","","","","calm"
"","","","","","html-slider-response","56","242114","0.0-48.0","b507rgeke2","NaN","<div style=""width:500px;"">
                            <p style=""font-size:50px; font-weight:bold;""
                            >calm</p>
                            <div style=""width:240px; margin: auto;"">
                                <img src=""images/gray_22.png"" style= ""width:200px""alt=""img"">
                            </div>
                        </div>","168","","0","images/gray_22.png","","","","calm"
"","","","","","html-slider-response","57","243641","0.0-49.0","b507rgeke2","NaN","<div style=""width:500px;"">
                            <p style=""font-size:50px; font-weight:bold;""
                            >calm</p>
                            <div style=""width:240px; margin: auto;"">
                                <img src=""images/gray_39.png"" style= ""width:200px""alt=""img"">
                            </div>
                        </div>","168","","0","images/gray_39.png","","","","calm"
"","","","","","html-slider-response","58","245959","0.0-50.0","b507rgeke2","NaN","<div style=""width:500px;"">
                            <p style=""font-size:50px; font-weight:bold;""
                            >calm</p>
                            <div style=""width:240px; margin: auto;"">
                                <img src=""images/gray_06.png"" style= ""width:200px""alt=""img"">
                            </div>
                        </div>","100","","0","images/gray_06.png","","","","calm"
"","","","","","html-slider-response","59","248060","0.0-51.0","b507rgeke2","NaN","<div style=""width:500px;"">
                            <p style=""font-size:50px; font-weight:bold;""
                            >calm</p>
                            <div style=""width:240px; margin: auto;"">
                                <img src=""images/gray_15.png"" style= ""width:200px""alt=""img"">
                            </div>
                        </div>","126","","0","images/gray_15.png","","","","calm"
"","","","","","html-slider-response","60","250664","0.0-52.0","b507rgeke2","NaN","<div style=""width:500px;"">
                            <p style=""font-size:50px; font-weight:bold;""
                            >calm</p>
                            <div style=""width:240px; margin: auto;"">
                                <img src=""images/gray_01.png"" style= ""width:200px""alt=""img"">
                            </div>
                        </div>","196","","0","images/gray_01.png","","","","calm"
"","","","","","html-slider-response","61","252214","0.0-53.0","b507rgeke2","NaN","<div style=""width:500px;"">
                            <p style=""font-size:50px; font-weight:bold;""
                            >calm</p>
                            <div style=""width:240px; margin: auto;"">
                                <img src=""images/gray_43.png"" style= ""width:200px""alt=""img"">
                            </div>
                        </div>","196","","0","images/gray_43.png","","","","calm"
"","","","","","html-slider-response","62","254833","0.0-54.0","b507rgeke2","NaN","<div style=""width:500px;"">
                            <p style=""font-size:50px; font-weight:bold;""
                            >calm</p>
                            <div style=""width:240px; margin: auto;"">
                                <img src=""images/gray_20.png"" style= ""width:200px""alt=""img"">
                            </div>
                        </div>","-19","","0","images/gray_20.png","","","","calm"
"","","","","","html-slider-response","63","257167","0.0-55.0","b507rgeke2","NaN","<div style=""width:500px;"">
                            <p style=""font-size:50px; font-weight:bold;""
                            >calm</p>
                            <div style=""width:240px; margin: auto;"">
                                <img src=""images/gray_35.png"" style= ""width:200px""alt=""img"">
                            </div>
                        </div>","24","","0","images/gray_35.png","","","","calm"
"","","","","","html-slider-response","64","259966","0.0-56.0","b507rgeke2","NaN","<div style=""width:500px;"">
                            <p style=""font-size:50px; font-weight:bold;""
                            >calm</p>
                            <div style=""width:240px; margin: auto;"">
                                <img src=""images/gray_36.png"" style= ""width:200px""alt=""img"">
                            </div>
                        </div>","70","","0","images/gray_36.png","","","","calm"
"","","","","","html-slider-response","65","264873","0.0-57.0","b507rgeke2","NaN","<div style=""width:500px;"">
                            <p style=""font-size:50px; font-weight:bold;""
                            >calm</p>
                            <div style=""width:240px; margin: auto;"">
                                <img src=""images/gray_19.png"" style= ""width:200px""alt=""img"">
                            </div>
                        </div>","70","","0","images/gray_19.png","","","","calm"
"","","","","","html-button-response","66","268468","0.0-58.0","b507rgeke2","3083","<p>Great Job! You've finished block 1.<br></br> You have 7 block(s) left to go.<br></br></p>","0","","","","","","",""
"","","","","","html-button-response","67","269902","0.0-59.0","b507rgeke2","1429","<p>In this block of trials, you will be asked to rate how much you associate each map with:</p > <p style = 'font-size:150%; font-weight: bold'>playful</p><br></br>","0","","","","","","",""
"","","","","","html-slider-response","68","273323","0.0-60.0","b507rgeke2","NaN","<div style=""width:500px;"">
                            <p style=""font-size:50px; font-weight:bold;""
                            >playful</p>
                            <div style=""width:240px; margin: auto;"">
                                <img src=""images/gray_03.png"" style= ""width:200px""alt=""img"">
                            </div>
                        </div>","45","","0","images/gray_03.png","","","","playful"
"","","","","","html-slider-response","69","275038","0.0-61.0","b507rgeke2","NaN","<div style=""width:500px;"">
                            <p style=""font-size:50px; font-weight:bold;""
                            >playful</p>
                            <div style=""width:240px; margin: auto;"">
                                <img src=""images/gray_39.png"" style= ""width:200px""alt=""img"">
                            </div>
                        </div>","22","","0","images/gray_39.png","","","","playful"
"","","","","","html-slider-response","70","277356","0.0-62.0","b507rgeke2","NaN","<div style=""width:500px;"">
                            <p style=""font-size:50px; font-weight:bold;""
                            >playful</p>
                            <div style=""width:240px; margin: auto;"">
                                <img src=""images/gray_11.png"" style= ""width:200px""alt=""img"">
                            </div>
                        </div>","70","","0","images/gray_11.png","","","","playful"
"","","","","","html-slider-response","71","278640","0.0-63.0","b507rgeke2","NaN","<div style=""width:500px;"">
                            <p style=""font-size:50px; font-weight:bold;""
                            >playful</p>
                            <div style=""width:240px; margin: auto;"">
                                <img src=""images/gray_17.png"" style= ""width:200px""alt=""img"">
                            </div>
                        </div>","70","","0","images/gray_17.png","","","","playful"
"","","","","","html-slider-response","72","280714","0.0-64.0","b507rgeke2","NaN","<div style=""width:500px;"">
                            <p style=""font-size:50px; font-weight:bold;""
                            >playful</p>
                            <div style=""width:240px; margin: auto;"">
                                <img src=""images/gray_38.png"" style= ""width:200px""alt=""img"">
                            </div>
                        </div>","13","","0","images/gray_38.png","","","","playful"
"","","","","","html-slider-response","73","282683","0.0-65.0","b507rgeke2","NaN","<div style=""width:500px;"">
                            <p style=""font-size:50px; font-weight:bold;""
                            >playful</p>
                            <div style=""width:240px; margin: auto;"">
                                <img src=""images/gray_06.png"" style= ""width:200px""alt=""img"">
                            </div>
                        </div>","-14","","0","images/gray_06.png","","","","playful"
"","","","","","html-slider-response","74","284795","0.0-66.0","b507rgeke2","NaN","<div style=""width:500px;"">
                            <p style=""font-size:50px; font-weight:bold;""
                            >playful</p>
                            <div style=""width:240px; margin: auto;"">
                                <img src=""images/gray_28.png"" style= ""width:200px""alt=""img"">
                            </div>
                        </div>","65","","0","images/gray_28.png","","","","playful"
"","","","","","html-slider-response","75","286766","0.0-67.0","b507rgeke2","NaN","<div style=""width:500px;"">
                            <p style=""font-size:50px; font-weight:bold;""
                            >playful</p>
                            <div style=""width:240px; margin: auto;"">
                                <img src=""images/gray_04.png"" style= ""width:200px""alt=""img"">
                            </div>
                        </div>","-17","","0","images/gray_04.png","","","","playful"
"","","","","","html-slider-response","76","288317","0.0-68.0","b507rgeke2","NaN","<div style=""width:500px;"">
                            <p style=""font-size:50px; font-weight:bold;""
                            >playful</p>
                            <div style=""width:240px; margin: auto;"">
                                <img src=""images/gray_15.png"" style= ""width:200px""alt=""img"">
                            </div>
                        </div>","70","","0","images/gray_15.png","","","","playful"
"","","","","","html-slider-response","77","289618","0.0-69.0","b507rgeke2","NaN","<div style=""width:500px;"">
                            <p style=""font-size:50px; font-weight:bold;""
                            >playful</p>
                            <div style=""width:240px; margin: auto;"">
                                <img src=""images/gray_05.png"" style= ""width:200px""alt=""img"">
                            </div>
                        </div>","70","","0","images/gray_05.png","","","","playful"
"","","","","","html-slider-response","78","293831","0.0-70.0","b507rgeke2","NaN","<div style=""width:500px;"">
                            <p style=""font-size:50px; font-weight:bold;""
                            >playful</p>
                            <div style=""width:240px; margin: auto;"">
                                <img src=""images/gray_27.png"" style= ""width:200px""alt=""img"">
                            </div>
                        </div>","104","","0","images/gray_27.png","","","","playful"
"","","","","","html-slider-response","79","297190","0.0-71.0","b507rgeke2","NaN","<div style=""width:500px;"">
                            <p style=""font-size:50px; font-weight:bold;""
                            >playful</p>
                            <div style=""width:240px; margin: auto;"">
                                <img src=""images/gray_36.png"" style= ""width:200px""alt=""img"">
                            </div>
                        </div>","-10","","0","images/gray_36.png","","","","playful"
"","","","","","html-slider-response","80","299335","0.0-72.0","b507rgeke2","NaN","<div style=""width:500px;"">
                            <p style=""font-size:50px; font-weight:bold;""
                            >playful</p>
                            <div style=""width:240px; margin: auto;"">
                                <img src=""images/gray_42.png"" style= ""width:200px""alt=""img"">
                            </div>
                        </div>","85","","0","images/gray_42.png","","","","playful"
"","","","","","html-slider-response","81","301399","0.0-73.0","b507rgeke2","NaN","<div style=""width:500px;"">
                            <p style=""font-size:50px; font-weight:bold;""
                            >playful</p>
                            <div style=""width:240px; margin: auto;"">
                                <img src=""images/gray_20.png"" style= ""width:200px""alt=""img"">
                            </div>
                        </div>","70","","0","images/gray_20.png","","","","playful"
"","","","","","html-slider-response","82","303201","0.0-74.0","b507rgeke2","NaN","<div style=""width:500px;"">
                            <p style=""font-size:50px; font-weight:bold;""
                            >playful</p>
                            <div style=""width:240px; margin: auto;"">
                                <img src=""images/gray_16.png"" style= ""width:200px""alt=""img"">
                            </div>
                        </div>","37","","0","images/gray_16.png","","","","playful"
"","","","","","html-slider-response","83","307981","0.0-75.0","b507rgeke2","NaN","<div style=""width:500px;"">
                            <p style=""font-size:50px; font-weight:bold;""
                            >playful</p>
                            <div style=""width:240px; margin: auto;"">
                                <img src=""images/gray_25.png"" style= ""width:200px""alt=""img"">
                            </div>
                        </div>","126","","0","images/gray_25.png","","","","playful"
"","","","","","html-slider-response","84","309771","0.0-76.0","b507rgeke2","NaN","<div style=""width:500px;"">
                            <p style=""font-size:50px; font-weight:bold;""
                            >playful</p>
                            <div style=""width:240px; margin: auto;"">
                                <img src=""images/gray_19.png"" style= ""width:200px""alt=""img"">
                            </div>
                        </div>","91","","0","images/gray_19.png","","","","playful"
"","","","","","html-slider-response","85","311717","0.0-77.0","b507rgeke2","NaN","<div style=""width:500px;"">
                            <p style=""font-size:50px; font-weight:bold;""
                            >playful</p>
                            <div style=""width:240px; margin: auto;"">
                                <img src=""images/gray_26.png"" style= ""width:200px""alt=""img"">
                            </div>
                        </div>","128","","0","images/gray_26.png","","","","playful"
"","","","","","html-slider-response","86","313713","0.0-78.0","b507rgeke2","NaN","<div style=""width:500px;"">
                            <p style=""font-size:50px; font-weight:bold;""
                            >playful</p>
                            <div style=""width:240px; margin: auto;"">
                                <img src=""images/gray_35.png"" style= ""width:200px""alt=""img"">
                            </div>
                        </div>","154","","0","images/gray_35.png","","","","playful"
"","","","","","html-slider-response","87","316297","0.0-79.0","b507rgeke2","NaN","<div style=""width:500px;"">
                            <p style=""font-size:50px; font-weight:bold;""
                            >playful</p>
                            <div style=""width:240px; margin: auto;"">
                                <img src=""images/gray_07.png"" style= ""width:200px""alt=""img"">
                            </div>
                        </div>","169","","0","images/gray_07.png","","","","playful"
"","","","","","html-slider-response","88","317847","0.0-80.0","b507rgeke2","NaN","<div style=""width:500px;"">
                            <p style=""font-size:50px; font-weight:bold;""
                            >playful</p>
                            <div style=""width:240px; margin: auto;"">
                                <img src=""images/gray_01.png"" style= ""width:200px""alt=""img"">
                            </div>
                        </div>","169","","0","images/gray_01.png","","","","playful"
"","","","","","html-slider-response","89","319434","0.0-81.0","b507rgeke2","NaN","<div style=""width:500px;"">
                            <p style=""font-size:50px; font-weight:bold;""
                            >playful</p>
                            <div style=""width:240px; margin: auto;"">
                                <img src=""images/gray_02.png"" style= ""width:200px""alt=""img"">
                            </div>
                        </div>","131","","0","images/gray_02.png","","","","playful"
"","","","","","html-slider-response","90","320696","0.0-82.0","b507rgeke2","NaN","<div style=""width:500px;"">
                            <p style=""font-size:50px; font-weight:bold;""
                            >playful</p>
                            <div style=""width:240px; margin: auto;"">
                                <img src=""images/gray_41.png"" style= ""width:200px""alt=""img"">
                            </div>
                        </div>","131","","0","images/gray_41.png","","","","playful"
"","","","","","html-slider-response","91","323453","0.0-83.0","b507rgeke2","NaN","<div style=""width:500px;"">
                            <p style=""font-size:50px; font-weight:bold;""
                            >playful</p>
                            <div style=""width:240px; margin: auto;"">
                                <img src=""images/gray_10.png"" style= ""width:200px""alt=""img"">
                            </div>
                        </div>","131","","0","images/gray_10.png","","","","playful"
"","","","","","html-slider-response","92","324622","0.0-84.0","b507rgeke2","NaN","<div style=""width:500px;"">
                            <p style=""font-size:50px; font-weight:bold;""
                            >playful</p>
                            <div style=""width:240px; margin: auto;"">
                                <img src=""images/gray_31.png"" style= ""width:200px""alt=""img"">
                            </div>
                        </div>","145","","0","images/gray_31.png","","","","playful"
"","","","","","html-slider-response","93","326574","0.0-85.0","b507rgeke2","NaN","<div style=""width:500px;"">
                            <p style=""font-size:50px; font-weight:bold;""
                            >playful</p>
                            <div style=""width:240px; margin: auto;"">
                                <img src=""images/gray_40.png"" style= ""width:200px""alt=""img"">
                            </div>
                        </div>","69","","0","images/gray_40.png","","","","playful"
"","","","","","html-slider-response","94","328781","0.0-86.0","b507rgeke2","NaN","<div style=""width:500px;"">
                            <p style=""font-size:50px; font-weight:bold;""
                            >playful</p>
                            <div style=""width:240px; margin: auto;"">
                                <img src=""images/gray_09.png"" style= ""width:200px""alt=""img"">
                            </div>
                        </div>","178","","0","images/gray_09.png","","","","playful"
"","","","","","html-slider-response","95","330725","0.0-87.0","b507rgeke2","NaN","<div style=""width:500px;"">
                            <p style=""font-size:50px; font-weight:bold;""
                            >playful</p>
                            <div style=""width:240px; margin: auto;"">
                                <img src=""images/gray_33.png"" style= ""width:200px""alt=""img"">
                            </div>
                        </div>","156","","0","images/gray_33.png","","","","playful"
"","","","","","html-slider-response","96","332792","0.0-88.0","b507rgeke2","NaN","<div style=""width:500px;"">
                            <p style=""font-size:50px; font-weight:bold;""
                            >playful</p>
                            <div style=""width:240px; margin: auto;"">
                                <img src=""images/gray_30.png"" style= ""width:200px""alt=""img"">
                            </div>
                        </div>","172","","0","images/gray_30.png","","","","playful"
"","","","","","html-slider-response","97","334094","0.0-89.0","b507rgeke2","NaN","<div style=""width:500px;"">
                            <p style=""font-size:50px; font-weight:bold;""
                            >playful</p>
                            <div style=""width:240px; margin: auto;"">
                                <img src=""images/gray_43.png"" style= ""width:200px""alt=""img"">
                            </div>
                        </div>","172","","0","images/gray_43.png","","","","playful"
"","","","","","html-slider-response","98","335346","0.0-90.0","b507rgeke2","NaN","<div style=""width:500px;"">
                            <p style=""font-size:50px; font-weight:bold;""
                            >playful</p>
                            <div style=""width:240px; margin: auto;"">
                                <img src=""images/gray_08.png"" style= ""width:200px""alt=""img"">
                            </div>
                        </div>","172","","0","images/gray_08.png","","","","playful"
"","","","","","html-slider-response","99","336404","0.0-91.0","b507rgeke2","NaN","<div style=""width:500px;"">
                            <p style=""font-size:50px; font-weight:bold;""
                            >playful</p>
                            <div style=""width:240px; margin: auto;"">
                                <img src=""images/gray_29.png"" style= ""width:200px""alt=""img"">
                            </div>
                        </div>","172","","0","images/gray_29.png","","","","playful"
"","","","","","html-slider-response","100","338301","0.0-92.0","b507rgeke2","NaN","<div style=""width:500px;"">
                            <p style=""font-size:50px; font-weight:bold;""
                            >playful</p>
                            <div style=""width:240px; margin: auto;"">
                                <img src=""images/gray_14.png"" style= ""width:200px""alt=""img"">
                            </div>
                        </div>","-47","","0","images/gray_14.png","","","","playful"
"","","","","","html-slider-response","101","340454","0.0-93.0","b507rgeke2","NaN","<div style=""width:500px;"">
                            <p style=""font-size:50px; font-weight:bold;""
                            >playful</p>
                            <div style=""width:240px; margin: auto;"">
                                <img src=""images/gray_21.png"" style= ""width:200px""alt=""img"">
                            </div>
                        </div>","-78","","0","images/gray_21.png","","","","playful"
"","","","","","html-slider-response","102","343213","0.0-94.0","b507rgeke2","NaN","<div style=""width:500px;"">
                            <p style=""font-size:50px; font-weight:bold;""
                            >playful</p>
                            <div style=""width:240px; margin: auto;"">
                                <img src=""images/gray_12.png"" style= ""width:200px""alt=""img"">
                            </div>
                        </div>","-78","","0","images/gray_12.png","","","","playful"
"","","","","","html-slider-response","103","345458","0.0-95.0","b507rgeke2","NaN","<div style=""width:500px;"">
                            <p style=""font-size:50px; font-weight:bold;""
                            >playful</p>
                            <div style=""width:240px; margin: auto;"">
                                <img src=""images/gray_44.png"" style= ""width:200px""alt=""img"">
                            </div>
                        </div>","-150","","0","images/gray_44.png","","","","playful"
"","","","","","html-slider-response","104","347915","0.0-96.0","b507rgeke2","NaN","<div style=""width:500px;"">
                            <p style=""font-size:50px; font-weight:bold;""
                            >playful</p>
                            <div style=""width:240px; margin: auto;"">
                                <img src=""images/gray_22.png"" style= ""width:200px""alt=""img"">
                            </div>
                        </div>","-155","","0","images/gray_22.png","","","","playful"
"","","","","","html-slider-response","105","352454","0.0-97.0","b507rgeke2","NaN","<div style=""width:500px;"">
                            <p style=""font-size:50px; font-weight:bold;""
                            >playful</p>
                            <div style=""width:240px; margin: auto;"">
                                <img src=""images/gray_13.png"" style= ""width:200px""alt=""img"">
                            </div>
                        </div>","92","","0","images/gray_13.png","","","","playful"
"","","","","","html-slider-response","106","355802","0.0-98.0","b507rgeke2","NaN","<div style=""width:500px;"">
                            <p style=""font-size:50px; font-weight:bold;""
                            >playful</p>
                            <div style=""width:240px; margin: auto;"">
                                <img src=""images/gray_32.png"" style= ""width:200px""alt=""img"">
                            </div>
                        </div>","92","","0","images/gray_32.png","","","","playful"
"","","","","","html-slider-response","107","359060","0.0-99.0","b507rgeke2","NaN","<div style=""width:500px;"">
                            <p style=""font-size:50px; font-weight:bold;""
                            >playful</p>
                            <div style=""width:240px; margin: auto;"">
                                <img src=""images/gray_23.png"" style= ""width:200px""alt=""img"">
                            </div>
                        </div>","100","","0","images/gray_23.png","","","","playful"
"","","","","","html-slider-response","108","361086","0.0-100.0","b507rgeke2","NaN","<div style=""width:500px;"">
                            <p style=""font-size:50px; font-weight:bold;""
                            >playful</p>
                            <div style=""width:240px; margin: auto;"">
                                <img src=""images/gray_18.png"" style= ""width:200px""alt=""img"">
                            </div>
                        </div>","-28","","0","images/gray_18.png","","","","playful"
"","","","","","html-slider-response","109","362824","0.0-101.0","b507rgeke2","NaN","<div style=""width:500px;"">
                            <p style=""font-size:50px; font-weight:bold;""
                            >playful</p>
                            <div style=""width:240px; margin: auto;"">
                                <img src=""images/gray_24.png"" style= ""width:200px""alt=""img"">
                            </div>
                        </div>","46","","0","images/gray_24.png","","","","playful"
"","","","","","html-slider-response","110","364700","0.0-102.0","b507rgeke2","NaN","<div style=""width:500px;"">
                            <p style=""font-size:50px; font-weight:bold;""
                            >playful</p>
                            <div style=""width:240px; margin: auto;"">
                                <img src=""images/gray_34.png"" style= ""width:200px""alt=""img"">
                            </div>
                        </div>","-49","","0","images/gray_34.png","","","","playful"
"","","","","","html-slider-response","111","366705","0.0-103.0","b507rgeke2","NaN","<div style=""width:500px;"">
                            <p style=""font-size:50px; font-weight:bold;""
                            >playful</p>
                            <div style=""width:240px; margin: auto;"">
                                <img src=""images/gray_37.png"" style= ""width:200px""alt=""img"">
                            </div>
                        </div>","-54","","0","images/gray_37.png","","","","playful"
"","","","","","html-button-response","112","368518","0.0-104.0","b507rgeke2","1307","<p>Great Job! You've finished block 2.<br></br> You have 6 block(s) left to go.<br></br></p>","0","","","","","","",""
"","","","","","html-button-response","113","371286","0.0-105.0","b507rgeke2","2764","<p>In this block of trials, you will be asked to rate how much you associate each map with:</p > <p style = 'font-size:150%; font-weight: bold'>serious</p><br></br>","0","","","","","","",""
"","","","","","html-slider-response","114","373251","0.0-106.0","b507rgeke2","NaN","<div style=""width:500px;"">
                            <p style=""font-size:50px; font-weight:bold;""
                            >serious</p>
                            <div style=""width:240px; margin: auto;"">
                                <img src=""images/gray_24.png"" style= ""width:200px""alt=""img"">
                            </div>
                        </div>","94","","0","images/gray_24.png","","","","serious"
"","","","","","html-slider-response","115","375135","0.0-107.0","b507rgeke2","NaN","<div style=""width:500px;"">
                            <p style=""font-size:50px; font-weight:bold;""
                            >serious</p>
                            <div style=""width:240px; margin: auto;"">
                                <img src=""images/gray_34.png"" style= ""width:200px""alt=""img"">
                            </div>
                        </div>","110","","0","images/gray_34.png","","","","serious"
"","","","","","html-slider-response","116","376825","0.0-108.0","b507rgeke2","NaN","<div style=""width:500px;"">
                            <p style=""font-size:50px; font-weight:bold;""
                            >serious</p>
                            <div style=""width:240px; margin: auto;"">
                                <img src=""images/gray_39.png"" style= ""width:200px""alt=""img"">
                            </div>
                        </div>","-81","","0","images/gray_39.png","","","","serious"
"","","","","","html-slider-response","117","379151","0.0-109.0","b507rgeke2","NaN","<div style=""width:500px;"">
                            <p style=""font-size:50px; font-weight:bold;""
                            >serious</p>
                            <div style=""width:240px; margin: auto;"">
                                <img src=""images/gray_22.png"" style= ""width:200px""alt=""img"">
                            </div>
                        </div>","-58","","0","images/gray_22.png","","","","serious"
"","","","","","html-slider-response","118","380456","0.0-110.0","b507rgeke2","NaN","<div style=""width:500px;"">
                            <p style=""font-size:50px; font-weight:bold;""
                            >serious</p>
                            <div style=""width:240px; margin: auto;"">
                                <img src=""images/gray_19.png"" style= ""width:200px""alt=""img"">
                            </div>
                        </div>","-58","","0","images/gray_19.png","","","","serious"
"","","","","","html-slider-response","119","382710","0.0-111.0","b507rgeke2","NaN","<div style=""width:500px;"">
                            <p style=""font-size:50px; font-weight:bold;""
                            >serious</p>
                            <div style=""width:240px; margin: auto;"">
                                <img src=""images/gray_04.png"" style= ""width:200px""alt=""img"">
                            </div>
                        </div>","124","","0","images/gray_04.png","","","","serious"
"","","","","","html-slider-response","120","385027","0.0-112.0","b507rgeke2","NaN","<div style=""width:500px;"">
                            <p style=""font-size:50px; font-weight:bold;""
                            >serious</p>
                            <div style=""width:240px; margin: auto;"">
                                <img src=""images/gray_16.png"" style= ""width:200px""alt=""img"">
                            </div>
                        </div>","-138","","0","images/gray_16.png","","","","serious"
"","","","","","html-slider-response","121","387001","0.0-113.0","b507rgeke2","NaN","<div style=""width:500px;"">
                            <p style=""font-size:50px; font-weight:bold;""
                            >serious</p>
                            <div style=""width:240px; margin: auto;"">
                                <img src=""images/gray_38.png"" style= ""width:200px""alt=""img"">
                            </div>
                        </div>","-138","","0","images/gray_38.png","","","","serious"
"","","","","","html-slider-response","122","388481","0.0-114.0","b507rgeke2","NaN","<div style=""width:500px;"">
                            <p style=""font-size:50px; font-weight:bold;""
                            >serious</p>
                            <div style=""width:240px; margin: auto;"">
                                <img src=""images/gray_26.png"" style= ""width:200px""alt=""img"">
                            </div>
                        </div>","-138","","0","images/gray_26.png","","","","serious"
"","","","","","html-slider-response","123","389858","0.0-115.0","b507rgeke2","NaN","<div style=""width:500px;"">
                            <p style=""font-size:50px; font-weight:bold;""
                            >serious</p>
                            <div style=""width:240px; margin: auto;"">
                                <img src=""images/gray_06.png"" style= ""width:200px""alt=""img"">
                            </div>
                        </div>","-138","","0","images/gray_06.png","","","","serious"
"","","","","","html-slider-response","124","392867","0.0-116.0","b507rgeke2","NaN","<div style=""width:500px;"">
                            <p style=""font-size:50px; font-weight:bold;""
                            >serious</p>
                            <div style=""width:240px; margin: auto;"">
                                <img src=""images/gray_07.png"" style= ""width:200px""alt=""img"">
                            </div>
                        </div>","151","","0","images/gray_07.png","","","","serious"
"","","","","","html-slider-response","125","395375","0.0-117.0","b507rgeke2","NaN","<div style=""width:500px;"">
                            <p style=""font-size:50px; font-weight:bold;""
                            >serious</p>
                            <div style=""width:240px; margin: auto;"">
                                <img src=""images/gray_29.png"" style= ""width:200px""alt=""img"">
                            </div>
                        </div>","198","","0","images/gray_29.png","","","","serious"
"","","","","","html-slider-response","126","397815","0.0-118.0","b507rgeke2","NaN","<div style=""width:500px;"">
                            <p style=""font-size:50px; font-weight:bold;""
                            >serious</p>
                            <div style=""width:240px; margin: auto;"">
                                <img src=""images/gray_14.png"" style= ""width:200px""alt=""img"">
                            </div>
                        </div>","158","","0","images/gray_14.png","","","","serious"
"","","","","","html-slider-response","127","401788","0.0-119.0","b507rgeke2","NaN","<div style=""width:500px;"">
                            <p style=""font-size:50px; font-weight:bold;""
                            >serious</p>
                            <div style=""width:240px; margin: auto;"">
                                <img src=""images/gray_18.png"" style= ""width:200px""alt=""img"">
                            </div>
                        </div>","158","","0","images/gray_18.png","","","","serious"
"","","","","","html-slider-response","128","405018","0.0-120.0","b507rgeke2","NaN","<div style=""width:500px;"">
                            <p style=""font-size:50px; font-weight:bold;""
                            >serious</p>
                            <div style=""width:240px; margin: auto;"">
                                <img src=""images/gray_36.png"" style= ""width:200px""alt=""img"">
                            </div>
                        </div>","-77","","0","images/gray_36.png","","","","serious"
"","","","","","html-slider-response","129","406255","0.0-121.0","b507rgeke2","NaN","<div style=""width:500px;"">
                            <p style=""font-size:50px; font-weight:bold;""
                            >serious</p>
                            <div style=""width:240px; margin: auto;"">
                                <img src=""images/gray_31.png"" style= ""width:200px""alt=""img"">
                            </div>
                        </div>","-77","","0","images/gray_31.png","","","","serious"
"","","","","","html-slider-response","130","408188","0.0-122.0","b507rgeke2","NaN","<div style=""width:500px;"">
                            <p style=""font-size:50px; font-weight:bold;""
                            >serious</p>
                            <div style=""width:240px; margin: auto;"">
                                <img src=""images/gray_13.png"" style= ""width:200px""alt=""img"">
                            </div>
                        </div>","-111","","0","images/gray_13.png","","","","serious"
"","","","","","html-slider-response","131","409450","0.0-123.0","b507rgeke2","NaN","<div style=""width:500px;"">
                            <p style=""font-size:50px; font-weight:bold;""
                            >serious</p>
                            <div style=""width:240px; margin: auto;"">
                                <img src=""images/gray_20.png"" style= ""width:200px""alt=""img"">
                            </div>
                        </div>","-111","","0","images/gray_20.png","","","","serious"
"","","","","","html-slider-response","132","410757","0.0-124.0","b507rgeke2","NaN","<div style=""width:500px;"">
                            <p style=""font-size:50px; font-weight:bold;""
                            >serious</p>
                            <div style=""width:240px; margin: auto;"">
                                <img src=""images/gray_37.png"" style= ""width:200px""alt=""img"">
                            </div>
                        </div>","-111","","0","images/gray_37.png","","","","serious"
"","","","","","html-slider-response","133","412635","0.0-125.0","b507rgeke2","NaN","<div style=""width:500px;"">
                            <p style=""font-size:50px; font-weight:bold;""
                            >serious</p>
                            <div style=""width:240px; margin: auto;"">
                                <img src=""images/gray_41.png"" style= ""width:200px""alt=""img"">
                            </div>
                        </div>","-111","","0","images/gray_41.png","","","","serious"
"","","","","","html-slider-response","134","414065","0.0-126.0","b507rgeke2","NaN","<div style=""width:500px;"">
                            <p style=""font-size:50px; font-weight:bold;""
                            >serious</p>
                            <div style=""width:240px; margin: auto;"">
                                <img src=""images/gray_17.png"" style= ""width:200px""alt=""img"">
                            </div>
                        </div>","-111","","0","images/gray_17.png","","","","serious"
"","","","","","html-slider-response","135","415857","0.0-127.0","b507rgeke2","NaN","<div style=""width:500px;"">
                            <p style=""font-size:50px; font-weight:bold;""
                            >serious</p>
                            <div style=""width:240px; margin: auto;"">
                                <img src=""images/gray_27.png"" style= ""width:200px""alt=""img"">
                            </div>
                        </div>","-141","","0","images/gray_27.png","","","","serious"
"","","","","","html-slider-response","136","417718","0.0-128.0","b507rgeke2","NaN","<div style=""width:500px;"">
                            <p style=""font-size:50px; font-weight:bold;""
                            >serious</p>
                            <div style=""width:240px; margin: auto;"">
                                <img src=""images/gray_30.png"" style= ""width:200px""alt=""img"">
                            </div>
                        </div>","-155","","0","images/gray_30.png","","","","serious"
"","","","","","html-slider-response","137","419053","0.0-129.0","b507rgeke2","NaN","<div style=""width:500px;"">
                            <p style=""font-size:50px; font-weight:bold;""
                            >serious</p>
                            <div style=""width:240px; margin: auto;"">
                                <img src=""images/gray_35.png"" style= ""width:200px""alt=""img"">
                            </div>
                        </div>","-155","","0","images/gray_35.png","","","","serious"
"","","","","","html-slider-response","138","420335","0.0-130.0","b507rgeke2","NaN","<div style=""width:500px;"">
                            <p style=""font-size:50px; font-weight:bold;""
                            >serious</p>
                            <div style=""width:240px; margin: auto;"">
                                <img src=""images/gray_23.png"" style= ""width:200px""alt=""img"">
                            </div>
                        </div>","-155","","0","images/gray_23.png","","","","serious"
"","","","","","html-slider-response","139","422188","0.0-131.0","b507rgeke2","NaN","<div style=""width:500px;"">
                            <p style=""font-size:50px; font-weight:bold;""
                            >serious</p>
                            <div style=""width:240px; margin: auto;"">
                                <img src=""images/gray_33.png"" style= ""width:200px""alt=""img"">
                            </div>
                        </div>","-155","","0","images/gray_33.png","","","","serious"
"","","","","","html-slider-response","140","426508","0.0-132.0","b507rgeke2","NaN","<div style=""width:500px;"">
                            <p style=""font-size:50px; font-weight:bold;""
                            >serious</p>
                            <div style=""width:240px; margin: auto;"">
                                <img src=""images/gray_15.png"" style= ""width:200px""alt=""img"">
                            </div>
                        </div>","92","","0","images/gray_15.png","","","","serious"
"","","","","","html-slider-response","141","430447","0.0-133.0","b507rgeke2","NaN","<div style=""width:500px;"">
                            <p style=""font-size:50px; font-weight:bold;""
                            >serious</p>
                            <div style=""width:240px; margin: auto;"">
                                <img src=""images/gray_11.png"" style= ""width:200px""alt=""img"">
                            </div>
                        </div>","-99","","0","images/gray_11.png","","","","serious"
"","","","","","html-slider-response","142","431819","0.0-134.0","b507rgeke2","NaN","<div style=""width:500px;"">
                            <p style=""font-size:50px; font-weight:bold;""
                            >serious</p>
                            <div style=""width:240px; margin: auto;"">
                                <img src=""images/gray_02.png"" style= ""width:200px""alt=""img"">
                            </div>
                        </div>","-99","","0","images/gray_02.png","","","","serious"
"","","","","","html-slider-response","143","433109","0.0-135.0","b507rgeke2","NaN","<div style=""width:500px;"">
                            <p style=""font-size:50px; font-weight:bold;""
                            >serious</p>
                            <div style=""width:240px; margin: auto;"">
                                <img src=""images/gray_44.png"" style= ""width:200px""alt=""img"">
                            </div>
                        </div>","-99","","0","images/gray_44.png","","","","serious"
"","","","","","html-slider-response","144","434861","0.0-136.0","b507rgeke2","NaN","<div style=""width:500px;"">
                            <p style=""font-size:50px; font-weight:bold;""
                            >serious</p>
                            <div style=""width:240px; margin: auto;"">
                                <img src=""images/gray_40.png"" style= ""width:200px""alt=""img"">
                            </div>
                        </div>","-151","","0","images/gray_40.png","","","","serious"
"","","","","","html-slider-response","145","436875","0.0-137.0","b507rgeke2","NaN","<div style=""width:500px;"">
                            <p style=""font-size:50px; font-weight:bold;""
                            >serious</p>
                            <div style=""width:240px; margin: auto;"">
                                <img src=""images/gray_21.png"" style= ""width:200px""alt=""img"">
                            </div>
                        </div>","133","","0","images/gray_21.png","","","","serious"
"","","","","","html-slider-response","146","439178","0.0-138.0","b507rgeke2","NaN","<div style=""width:500px;"">
                            <p style=""font-size:50px; font-weight:bold;""
                            >serious</p>
                            <div style=""width:240px; margin: auto;"">
                                <img src=""images/gray_32.png"" style= ""width:200px""alt=""img"">
                            </div>
                        </div>","-95","","0","images/gray_32.png","","","","serious"
"","","","","","html-slider-response","147","440401","0.0-139.0","b507rgeke2","NaN","<div style=""width:500px;"">
                            <p style=""font-size:50px; font-weight:bold;""
                            >serious</p>
                            <div style=""width:240px; margin: auto;"">
                                <img src=""images/gray_12.png"" style= ""width:200px""alt=""img"">
                            </div>
                        </div>","-95","","0","images/gray_12.png","","","","serious"
"","","","","","html-slider-response","148","441693","0.0-140.0","b507rgeke2","NaN","<div style=""width:500px;"">
                            <p style=""font-size:50px; font-weight:bold;""
                            >serious</p>
                            <div style=""width:240px; margin: auto;"">
                                <img src=""images/gray_42.png"" style= ""width:200px""alt=""img"">
                            </div>
                        </div>","-95","","0","images/gray_42.png","","","","serious"
"","","","","","html-slider-response","149","443325","0.0-141.0","b507rgeke2","NaN","<div style=""width:500px;"">
                            <p style=""font-size:50px; font-weight:bold;""
                            >serious</p>
                            <div style=""width:240px; margin: auto;"">
                                <img src=""images/gray_09.png"" style= ""width:200px""alt=""img"">
                            </div>
                        </div>","-52","","0","images/gray_09.png","","","","serious"
"","","","","","html-slider-response","150","445223","0.0-142.0","b507rgeke2","NaN","<div style=""width:500px;"">
                            <p style=""font-size:50px; font-weight:bold;""
                            >serious</p>
                            <div style=""width:240px; margin: auto;"">
                                <img src=""images/gray_01.png"" style= ""width:200px""alt=""img"">
                            </div>
                        </div>","-131","","0","images/gray_01.png","","","","serious"
"","","","","","html-slider-response","151","446500","0.0-143.0","b507rgeke2","NaN","<div style=""width:500px;"">
                            <p style=""font-size:50px; font-weight:bold;""
                            >serious</p>
                            <div style=""width:240px; margin: auto;"">
                                <img src=""images/gray_05.png"" style= ""width:200px""alt=""img"">
                            </div>
                        </div>","-131","","0","images/gray_05.png","","","","serious"
"","","","","","html-slider-response","152","448759","0.0-144.0","b507rgeke2","NaN","<div style=""width:500px;"">
                            <p style=""font-size:50px; font-weight:bold;""
                            >serious</p>
                            <div style=""width:240px; margin: auto;"">
                                <img src=""images/gray_25.png"" style= ""width:200px""alt=""img"">
                            </div>
                        </div>","54","","0","images/gray_25.png","","","","serious"
"","","","","","html-slider-response","153","450040","0.0-145.0","b507rgeke2","NaN","<div style=""width:500px;"">
                            <p style=""font-size:50px; font-weight:bold;""
                            >serious</p>
                            <div style=""width:240px; margin: auto;"">
                                <img src=""images/gray_10.png"" style= ""width:200px""alt=""img"">
                            </div>
                        </div>","54","","0","images/gray_10.png","","","","serious"
"","","","","","html-slider-response","154","451225","0.0-146.0","b507rgeke2","NaN","<div style=""width:500px;"">
                            <p style=""font-size:50px; font-weight:bold;""
                            >serious</p>
                            <div style=""width:240px; margin: auto;"">
                                <img src=""images/gray_08.png"" style= ""width:200px""alt=""img"">
                            </div>
                        </div>","-103","","0","images/gray_08.png","","","","serious"
"","","","","","html-slider-response","155","452658","0.0-147.0","b507rgeke2","NaN","<div style=""width:500px;"">
                            <p style=""font-size:50px; font-weight:bold;""
                            >serious</p>
                            <div style=""width:240px; margin: auto;"">
                                <img src=""images/gray_28.png"" style= ""width:200px""alt=""img"">
                            </div>
                        </div>","-84","","0","images/gray_28.png","","","","serious"
"","","","","","html-slider-response","156","454033","0.0-148.0","b507rgeke2","NaN","<div style=""width:500px;"">
                            <p style=""font-size:50px; font-weight:bold;""
                            >serious</p>
                            <div style=""width:240px; margin: auto;"">
                                <img src=""images/gray_43.png"" style= ""width:200px""alt=""img"">
                            </div>
                        </div>","-157","","0","images/gray_43.png","","","","serious"
"","","","","","html-slider-response","157","455477","0.0-149.0","b507rgeke2","NaN","<div style=""width:500px;"">
                            <p style=""font-size:50px; font-weight:bold;""
                            >serious</p>
                            <div style=""width:240px; margin: auto;"">
                                <img src=""images/gray_03.png"" style= ""width:200px""alt=""img"">
                            </div>
                        </div>","-74","","0","images/gray_03.png","","","","serious"
"","","","","","html-button-response","158","457134","0.0-150.0","b507rgeke2","1153","<p>Great Job! You've finished block 3.<br></br> You have 5 block(s) left to go.<br></br></p>","0","","","","","","",""
"","","","","","html-button-response","159","461625","0.0-151.0","b507rgeke2","4486","<p>In this block of trials, you will be asked to rate how much you associate each map with:</p > <p style = 'font-size:150%; font-weight: bold'>disturbing</p><br></br>","0","","","","","","",""
"","","","","","html-slider-response","160","464015","0.0-152.0","b507rgeke2","NaN","<div style=""width:500px;"">
                            <p style=""font-size:50px; font-weight:bold;""
                            >disturbing</p>
                            <div style=""width:240px; margin: auto;"">
                                <img src=""images/gray_13.png"" style= ""width:200px""alt=""img"">
                            </div>
                        </div>","128","","0","images/gray_13.png","","","","disturbing"
"","","","","","html-slider-response","161","468178","0.0-153.0","b507rgeke2","NaN","<div style=""width:500px;"">
                            <p style=""font-size:50px; font-weight:bold;""
                            >disturbing</p>
                            <div style=""width:240px; margin: auto;"">
                                <img src=""images/gray_10.png"" style= ""width:200px""alt=""img"">
                            </div>
                        </div>","-193","","0","images/gray_10.png","","","","disturbing"
"","","","","","html-slider-response","162","470569","0.0-154.0","b507rgeke2","NaN","<div style=""width:500px;"">
                            <p style=""font-size:50px; font-weight:bold;""
                            >disturbing</p>
                            <div style=""width:240px; margin: auto;"">
                                <img src=""images/gray_06.png"" style= ""width:200px""alt=""img"">
                            </div>
                        </div>","50","","0","images/gray_06.png","","","","disturbing"
"","","","","","html-slider-response","163","472644","0.0-155.0","b507rgeke2","NaN","<div style=""width:500px;"">
                            <p style=""font-size:50px; font-weight:bold;""
                            >disturbing</p>
                            <div style=""width:240px; margin: auto;"">
                                <img src=""images/gray_34.png"" style= ""width:200px""alt=""img"">
                            </div>
                        </div>","31","","0","images/gray_34.png","","","","disturbing"
"","","","","","html-slider-response","164","474990","0.0-156.0","b507rgeke2","NaN","<div style=""width:500px;"">
                            <p style=""font-size:50px; font-weight:bold;""
                            >disturbing</p>
                            <div style=""width:240px; margin: auto;"">
                                <img src=""images/gray_17.png"" style= ""width:200px""alt=""img"">
                            </div>
                        </div>","-48","","0","images/gray_17.png","","","","disturbing"
"","","","","","html-slider-response","165","476324","0.0-157.0","b507rgeke2","NaN","<div style=""width:500px;"">
                            <p style=""font-size:50px; font-weight:bold;""
                            >disturbing</p>
                            <div style=""width:240px; margin: auto;"">
                                <img src=""images/gray_36.png"" style= ""width:200px""alt=""img"">
                            </div>
                        </div>","-40","","0","images/gray_36.png","","","","disturbing"
"","","","","","html-slider-response","166","479052","0.0-158.0","b507rgeke2","NaN","<div style=""width:500px;"">
                            <p style=""font-size:50px; font-weight:bold;""
                            >disturbing</p>
                            <div style=""width:240px; margin: auto;"">
                                <img src=""images/gray_37.png"" style= ""width:200px""alt=""img"">
                            </div>
                        </div>","36","","0","images/gray_37.png","","","","disturbing"
"","","","","","html-slider-response","167","480841","0.0-159.0","b507rgeke2","NaN","<div style=""width:500px;"">
                            <p style=""font-size:50px; font-weight:bold;""
                            >disturbing</p>
                            <div style=""width:240px; margin: auto;"">
                                <img src=""images/gray_32.png"" style= ""width:200px""alt=""img"">
                            </div>
                        </div>","36","","0","images/gray_32.png","","","","disturbing"
"","","","","","html-slider-response","168","482326","0.0-160.0","b507rgeke2","NaN","<div style=""width:500px;"">
                            <p style=""font-size:50px; font-weight:bold;""
                            >disturbing</p>
                            <div style=""width:240px; margin: auto;"">
                                <img src=""images/gray_04.png"" style= ""width:200px""alt=""img"">
                            </div>
                        </div>","36","","0","images/gray_04.png","","","","disturbing"
"","","","","","html-slider-response","169","484342","0.0-161.0","b507rgeke2","NaN","<div style=""width:500px;"">
                            <p style=""font-size:50px; font-weight:bold;""
                            >disturbing</p>
                            <div style=""width:240px; margin: auto;"">
                                <img src=""images/gray_11.png"" style= ""width:200px""alt=""img"">
                            </div>
                        </div>","119","","0","images/gray_11.png","","","","disturbing"
"","","","","","html-slider-response","170","486374","0.0-162.0","b507rgeke2","NaN","<div style=""width:500px;"">
                            <p style=""font-size:50px; font-weight:bold;""
                            >disturbing</p>
                            <div style=""width:240px; margin: auto;"">
                                <img src=""images/gray_18.png"" style= ""width:200px""alt=""img"">
                            </div>
                        </div>","-87","","0","images/gray_18.png","","","","disturbing"
"","","","","","html-slider-response","171","488803","0.0-163.0","b507rgeke2","NaN","<div style=""width:500px;"">
                            <p style=""font-size:50px; font-weight:bold;""
                            >disturbing</p>
                            <div style=""width:240px; margin: auto;"">
                                <img src=""images/gray_07.png"" style= ""width:200px""alt=""img"">
                            </div>
                        </div>","152","","0","images/gray_07.png","","","","disturbing"
"","","","","","html-slider-response","172","491334","0.0-164.0","b507rgeke2","NaN","<div style=""width:500px;"">
                            <p style=""font-size:50px; font-weight:bold;""
                            >disturbing</p>
                            <div style=""width:240px; margin: auto;"">
                                <img src=""images/gray_19.png"" style= ""width:200px""alt=""img"">
                            </div>
                        </div>","-170","","0","images/gray_19.png","","","","disturbing"
"","","","","","html-slider-response","173","493691","0.0-165.0","b507rgeke2","NaN","<div style=""width:500px;"">
                            <p style=""font-size:50px; font-weight:bold;""
                            >disturbing</p>
                            <div style=""width:240px; margin: auto;"">
                                <img src=""images/gray_30.png"" style= ""width:200px""alt=""img"">
                            </div>
                        </div>","186","","0","images/gray_30.png","","","","disturbing"
"","","","","","html-slider-response","174","495952","0.0-166.0","b507rgeke2","NaN","<div style=""width:500px;"">
                            <p style=""font-size:50px; font-weight:bold;""
                            >disturbing</p>
                            <div style=""width:240px; margin: auto;"">
                                <img src=""images/gray_24.png"" style= ""width:200px""alt=""img"">
                            </div>
                        </div>","-113","","0","images/gray_24.png","","","","disturbing"
"","","","","","html-slider-response","175","498039","0.0-167.0","b507rgeke2","NaN","<div style=""width:500px;"">
                            <p style=""font-size:50px; font-weight:bold;""
                            >disturbing</p>
                            <div style=""width:240px; margin: auto;"">
                                <img src=""images/gray_08.png"" style= ""width:200px""alt=""img"">
                            </div>
                        </div>","50","","0","images/gray_08.png","","","","disturbing"
"","","","","","html-slider-response","176","499982","0.0-168.0","b507rgeke2","NaN","<div style=""width:500px;"">
                            <p style=""font-size:50px; font-weight:bold;""
                            >disturbing</p>
                            <div style=""width:240px; margin: auto;"">
                                <img src=""images/gray_43.png"" style= ""width:200px""alt=""img"">
                            </div>
                        </div>","-36","","0","images/gray_43.png","","","","disturbing"
"","","","","","html-slider-response","177","503265","0.0-169.0","b507rgeke2","NaN","<div style=""width:500px;"">
                            <p style=""font-size:50px; font-weight:bold;""
                            >disturbing</p>
                            <div style=""width:240px; margin: auto;"">
                                <img src=""images/gray_31.png"" style= ""width:200px""alt=""img"">
                            </div>
                        </div>","-168","","0","images/gray_31.png","","","","disturbing"
"","","","","","html-slider-response","178","505943","0.0-170.0","b507rgeke2","NaN","<div style=""width:500px;"">
                            <p style=""font-size:50px; font-weight:bold;""
                            >disturbing</p>
                            <div style=""width:240px; margin: auto;"">
                                <img src=""images/gray_25.png"" style= ""width:200px""alt=""img"">
                            </div>
                        </div>","-168","","0","images/gray_25.png","","","","disturbing"
"","","","","","html-slider-response","179","508678","0.0-171.0","b507rgeke2","NaN","<div style=""width:500px;"">
                            <p style=""font-size:50px; font-weight:bold;""
                            >disturbing</p>
                            <div style=""width:240px; margin: auto;"">
                                <img src=""images/gray_33.png"" style= ""width:200px""alt=""img"">
                            </div>
                        </div>","92","","0","images/gray_33.png","","","","disturbing"
"","","","","","html-slider-response","180","510249","0.0-172.0","b507rgeke2","NaN","<div style=""width:500px;"">
                            <p style=""font-size:50px; font-weight:bold;""
                            >disturbing</p>
                            <div style=""width:240px; margin: auto;"">
                                <img src=""images/gray_42.png"" style= ""width:200px""alt=""img"">
                            </div>
                        </div>","92","","0","images/gray_42.png","","","","disturbing"
"","","","","","html-slider-response","181","512118","0.0-173.0","b507rgeke2","NaN","<div style=""width:500px;"">
                            <p style=""font-size:50px; font-weight:bold;""
                            >disturbing</p>
                            <div style=""width:240px; margin: auto;"">
                                <img src=""images/gray_03.png"" style= ""width:200px""alt=""img"">
                            </div>
                        </div>","90","","0","images/gray_03.png","","","","disturbing"
"","","","","","html-slider-response","182","515577","0.0-174.0","b507rgeke2","NaN","<div style=""width:500px;"">
                            <p style=""font-size:50px; font-weight:bold;""
                            >disturbing</p>
                            <div style=""width:240px; margin: auto;"">
                                <img src=""images/gray_14.png"" style= ""width:200px""alt=""img"">
                            </div>
                        </div>","-104","","0","images/gray_14.png","","","","disturbing"
"","","","","","html-slider-response","183","517583","0.0-175.0","b507rgeke2","NaN","<div style=""width:500px;"">
                            <p style=""font-size:50px; font-weight:bold;""
                            >disturbing</p>
                            <div style=""width:240px; margin: auto;"">
                                <img src=""images/gray_09.png"" style= ""width:200px""alt=""img"">
                            </div>
                        </div>","58","","0","images/gray_09.png","","","","disturbing"
"","","","","","html-slider-response","184","521952","0.0-176.0","b507rgeke2","NaN","<div style=""width:500px;"">
                            <p style=""font-size:50px; font-weight:bold;""
                            >disturbing</p>
                            <div style=""width:240px; margin: auto;"">
                                <img src=""images/gray_44.png"" style= ""width:200px""alt=""img"">
                            </div>
                        </div>","109","","0","images/gray_44.png","","","","disturbing"
"","","","","","html-slider-response","185","526082","0.0-177.0","b507rgeke2","NaN","<div style=""width:500px;"">
                            <p style=""font-size:50px; font-weight:bold;""
                            >disturbing</p>
                            <div style=""width:240px; margin: auto;"">
                                <img src=""images/gray_21.png"" style= ""width:200px""alt=""img"">
                            </div>
                        </div>","-175","","0","images/gray_21.png","","","","disturbing"
"","","","","","html-slider-response","186","538701","0.0-178.0","b507rgeke2","NaN","<div style=""width:500px;"">
                            <p style=""font-size:50px; font-weight:bold;""
                            >disturbing</p>
                            <div style=""width:240px; margin: auto;"">
                                <img src=""images/gray_15.png"" style= ""width:200px""alt=""img"">
                            </div>
                        </div>","140","","0","images/gray_15.png","","","","disturbing"
"","","","","","html-slider-response","187","540855","0.0-179.0","b507rgeke2","NaN","<div style=""width:500px;"">
                            <p style=""font-size:50px; font-weight:bold;""
                            >disturbing</p>
                            <div style=""width:240px; margin: auto;"">
                                <img src=""images/gray_22.png"" style= ""width:200px""alt=""img"">
                            </div>
                        </div>","88","","0","images/gray_22.png","","","","disturbing"
"","","","","","html-slider-response","188","550542","0.0-180.0","b507rgeke2","NaN","<div style=""width:500px;"">
                            <p style=""font-size:50px; font-weight:bold;""
                            >disturbing</p>
                            <div style=""width:240px; margin: auto;"">
                                <img src=""images/gray_05.png"" style= ""width:200px""alt=""img"">
                            </div>
                        </div>","88","","0","images/gray_05.png","","","","disturbing"
"","","","","","html-slider-response","189","552699","0.0-181.0","b507rgeke2","NaN","<div style=""width:500px;"">
                            <p style=""font-size:50px; font-weight:bold;""
                            >disturbing</p>
                            <div style=""width:240px; margin: auto;"">
                                <img src=""images/gray_29.png"" style= ""width:200px""alt=""img"">
                            </div>
                        </div>","-114","","0","images/gray_29.png","","","","disturbing"
"","","","","","html-slider-response","190","556114","0.0-182.0","b507rgeke2","NaN","<div style=""width:500px;"">
                            <p style=""font-size:50px; font-weight:bold;""
                            >disturbing</p>
                            <div style=""width:240px; margin: auto;"">
                                <img src=""images/gray_12.png"" style= ""width:200px""alt=""img"">
                            </div>
                        </div>","120","","0","images/gray_12.png","","","","disturbing"
"","","","","","html-slider-response","191","557890","0.0-183.0","b507rgeke2","NaN","<div style=""width:500px;"">
                            <p style=""font-size:50px; font-weight:bold;""
                            >disturbing</p>
                            <div style=""width:240px; margin: auto;"">
                                <img src=""images/gray_28.png"" style= ""width:200px""alt=""img"">
                            </div>
                        </div>","120","","0","images/gray_28.png","","","","disturbing"
"","","","","","html-slider-response","192","566542","0.0-184.0","b507rgeke2","NaN","<div style=""width:500px;"">
                            <p style=""font-size:50px; font-weight:bold;""
                            >disturbing</p>
                            <div style=""width:240px; margin: auto;"">
                                <img src=""images/gray_16.png"" style= ""width:200px""alt=""img"">
                            </div>
                        </div>","39","","0","images/gray_16.png","","","","disturbing"
"","","","","","html-slider-response","193","571168","0.0-185.0","b507rgeke2","NaN","<div style=""width:500px;"">
                            <p style=""font-size:50px; font-weight:bold;""
                            >disturbing</p>
                            <div style=""width:240px; margin: auto;"">
                                <img src=""images/gray_26.png"" style= ""width:200px""alt=""img"">
                            </div>
                        </div>","67","","0","images/gray_26.png","","","","disturbing"
"","","","","","html-slider-response","194","573132","0.0-186.0","b507rgeke2","NaN","<div style=""width:500px;"">
                            <p style=""font-size:50px; font-weight:bold;""
                            >disturbing</p>
                            <div style=""width:240px; margin: auto;"">
                                <img src=""images/gray_02.png"" style= ""width:200px""alt=""img"">
                            </div>
                        </div>","67","","0","images/gray_02.png","","","","disturbing"
"","","","","","html-slider-response","195","577566","0.0-187.0","b507rgeke2","NaN","<div style=""width:500px;"">
                            <p style=""font-size:50px; font-weight:bold;""
                            >disturbing</p>
                            <div style=""width:240px; margin: auto;"">
                                <img src=""images/gray_23.png"" style= ""width:200px""alt=""img"">
                            </div>
                        </div>","136","","0","images/gray_23.png","","","","disturbing"
"","","","","","html-slider-response","196","579826","0.0-188.0","b507rgeke2","NaN","<div style=""width:500px;"">
                            <p style=""font-size:50px; font-weight:bold;""
                            >disturbing</p>
                            <div style=""width:240px; margin: auto;"">
                                <img src=""images/gray_27.png"" style= ""width:200px""alt=""img"">
                            </div>
                        </div>","126","","0","images/gray_27.png","","","","disturbing"
"","","","","","html-slider-response","197","581464","0.0-189.0","b507rgeke2","NaN","<div style=""width:500px;"">
                            <p style=""font-size:50px; font-weight:bold;""
                            >disturbing</p>
                            <div style=""width:240px; margin: auto;"">
                                <img src=""images/gray_35.png"" style= ""width:200px""alt=""img"">
                            </div>
                        </div>","126","","0","images/gray_35.png","","","","disturbing"
"","","","","","html-slider-response","198","584890","0.0-190.0","b507rgeke2","NaN","<div style=""width:500px;"">
                            <p style=""font-size:50px; font-weight:bold;""
                            >disturbing</p>
                            <div style=""width:240px; margin: auto;"">
                                <img src=""images/gray_39.png"" style= ""width:200px""alt=""img"">
                            </div>
                        </div>","-82","","0","images/gray_39.png","","","","disturbing"
"","","","","","html-slider-response","199","587443","0.0-191.0","b507rgeke2","NaN","<div style=""width:500px;"">
                            <p style=""font-size:50px; font-weight:bold;""
                            >disturbing</p>
                            <div style=""width:240px; margin: auto;"">
                                <img src=""images/gray_38.png"" style= ""width:200px""alt=""img"">
                            </div>
                        </div>","-111","","0","images/gray_38.png","","","","disturbing"
"","","","","","html-slider-response","200","591464","0.0-192.0","b507rgeke2","NaN","<div style=""width:500px;"">
                            <p style=""font-size:50px; font-weight:bold;""
                            >disturbing</p>
                            <div style=""width:240px; margin: auto;"">
                                <img src=""images/gray_20.png"" style= ""width:200px""alt=""img"">
                            </div>
                        </div>","50","","0","images/gray_20.png","","","","disturbing"
