"success","timeout","failed_images","failed_audio","failed_video","trial_type","trial_index","time_elapsed","internal_node_id","subject_id","rt","stimulus","response","question_order","slider_start","image_path","practiceTrial","practiceTrialNum","correct","concept"
"true","false","[]","[]","[]","preload","0","2634","0.0-0.0","baxrrq6bu4","","","","","","","","","",""
"","","","","","html-button-response","1","4079","0.0-1.0","baxrrq6bu4","1443","Welcome to our experiment!<p>At the bottom of this screen, you will see a button that says ""Begin Experiment"".<br>Please only click that button when you are ready to complete the 25 minute experiment in one sitting.</p><p> Once you click that button, it will not be possible to restart the experiment.","0","","","","","","",""
"true","","","","","fullscreen","2","7053","0.0-2.0","baxrrq6bu4","1967","","","","","","","","",""
"","","","","","survey-multi-select","3","66316","0.0-3.0","baxrrq6bu4","59258","","{""Consent"":[""<strong>I consent</strong>""]}","[0]","","","","","",""
"","","","","","html-button-response","4","68892","0.0-4.0","baxrrq6bu4","2573","Welcome! <p> This experiment involves two parts: demographic information, followed by the experimental task.<p> It will take about 25 minutes to complete both parts.","0","","","","","","",""
"","","","","","survey-text","5","77978","0.0-5.0","baxrrq6bu4","9081","","{""Age"":""19"",""Gender"":""Femal"",""Race/ethnicity"":""White"",""Languages"":""Engligh""}","","","","","","",""
"","","","","","html-slider-response","6","113013","0.0-6.0","baxrrq6bu4","35033","
            <div style='text-align:left; font-size:20px; line-height:25px; width: 1200px;'>
                During this experiment you will be asked to rate how much you associate maps with    different concepts.<br> Below, you can see some examples of the maps you will be asked to rate. Next to the maps
    is the list of concepts.<br>You will be asked    to rate how much you associate each map with each concept on a scale from 'not at all' to 'very much' like the
    one below. <br><br>
    Now, please look at the list of concepts and maps. For each concept, think about the map you associate 'very
    much' with the concept.<br>     When you see that map during the experiment, please rate it near the 'very much' endpoint of the
    scale.<br>Now, please think about which map you associate 'not at all'     with each concept. When you see that map during the experiment, please rate it near the 'not at all' endpoint
    of the scale.<br>
    Please use the full range of the scale. That is, if a map is somewhat associated with the concept, you would
    click partway between the middle point and right side of the scale.    You will be asked to rate each map for a given concept before moving on to the next concept.<br><br>Press the
    'Continue' button for instructions on how to use the slider.    <br><br>
</div>

<div style=""width: 500px; margin: 0 auto;"">
    <div style=""text-align: left; width: 200px; float: left;"">
        <p style=""font-size:25px; line-height:18px;"">calm</p>
        <p style=""font-size:25px; line-height:18px;"">exciting</p>
        <p style=""font-size:25px;line-height:18px;"">positive</p>
        <p style=""font-size:25px;line-height:18px;"">negative</p>
        <p style=""font-size:25px;line-height:18px;"">serious</p>
        <p style=""font-size:25px;line-height:18px;"">playful</p>
        <p style=""font-size:25px;line-height:18px;"">trustworthy</p>
        <p style=""font-size:25px;line-height:18px;"">disturbing</p>
    </div>
    <div style=""width: 200px; float: right; padding-top:15px; padding-right:40px"">
        <br>
        <br>
        <img src=""maps_anchoring.png"" alt=""img"" style=""max-width:500px"">
    </div>
    <div style=""clear: both;""></div>
</div>
            ","null","","0","maps_anchoring.png","true","","",""
"","","","","","html-button-response","7","120538","0.0-7.0","baxrrq6bu4","7523","<div style=""width:800px;""><p style=""text-align:left"">To move the slider, click and drag your cursor to the location of the scale where you would like to make your rating and then let go. When you let go of the slider, your response will be recorded and the next trial will begin. <br>
            We are interested in your initial impressions of each map for the given concept, so please go with your first intuition. <br>
            Before you begin the experiment, there will be four training trials for you to practice using the scale. <br>
             When you are ready to start the training trials, please click ""Continue"".</p><br></div>","0","","","","","","",""
"","","","","","html-slider-response","8","124895","0.0-8.0-0.0","baxrrq6bu4","NaN","<div style=""width:500px;"">
                            <p style=""font-size:25px;"">Please move the slider all the way to the <br> right endpoint of the scale</p>

                            </div>
                        </div>","200","","0","","true","0","true",""
"","","","","","html-button-response","9","126396","0.0-8.0-1.0","baxrrq6bu4","996","<p align='center'><b>Good job!</b> Click on 'Continue' to proceed.</p>","0","","","","","","",""
"","","","","","html-slider-response","10","128033","0.0-9.0-0.0","baxrrq6bu4","NaN","<div style=""width:500px;"">
                            <p style=""font-size:25px;"">Please move the slider all the way to the <br> left endpoint of the scale</p>

                            </div>
                        </div>","-200","","0","","true","1","true",""
"","","","","","html-button-response","11","129397","0.0-9.0-1.0","baxrrq6bu4","860","<p align='center'><b>Good job!</b> Click on 'Continue' to proceed.</p>","0","","","","","","",""
"","","","","","html-slider-response","12","132412","0.0-10.0-0.0","baxrrq6bu4","NaN","<div style=""width:500px;"">
                            <p style=""font-size:25px;"">Please move the slider halfway between the center and right endpoint of the scale</p>

                            </div>
                        </div>","102","","0","","true","2","true",""
"","","","","","html-button-response","13","133553","0.0-10.0-1.0","baxrrq6bu4","637","<p align='center'><b>Good job!</b> Click on 'Continue' to proceed.</p>","0","","","","","","",""
"","","","","","html-slider-response","14","135471","0.0-11.0-0.0","baxrrq6bu4","NaN","<div style=""width:500px;"">
                            <p style=""font-size:25px;"">Please move the slider halfway between the center and left endpoint of the scale</p>

                            </div>
                        </div>","-102","","0","","true","3","true",""
"","","","","","html-button-response","15","136650","0.0-11.0-1.0","baxrrq6bu4","677","<p align='center'><b>Good job!</b> Click on 'Continue' to proceed.</p>","0","","","","","","",""
"","","","","","html-button-response","16","137773","0.0-12.0","baxrrq6bu4","1121","<p>Great job! You've completed the practice trials. Now you will begin the main task.</p>","0","","","","","","",""
"","","","","","html-button-response","17","151477","0.0-13.0","baxrrq6bu4","13704","<p>In this block of trials, you will be asked to rate how much you associate each map with:</p > <p style = 'font-size:150%; font-weight: bold'>playful</p><br></br>","0","","","","","","",""
"","","","","","html-slider-response","18","154884","0.0-14.0","baxrrq6bu4","NaN","<div style=""width:500px;"">
                            <p style=""font-size:50px; font-weight:bold;""
                            >playful</p>
                            <div style=""width:240px; margin: auto;"">
                                <img src=""images/gray_32.png"" style= ""width:200px""alt=""img"">
                            </div>
                        </div>","81","","0","images/gray_32.png","","","","playful"
"","","","","","html-slider-response","19","159029","0.0-15.0","baxrrq6bu4","NaN","<div style=""width:500px;"">
                            <p style=""font-size:50px; font-weight:bold;""
                            >playful</p>
                            <div style=""width:240px; margin: auto;"">
                                <img src=""images/gray_12.png"" style= ""width:200px""alt=""img"">
                            </div>
                        </div>","-44","","0","images/gray_12.png","","","","playful"
"","","","","","html-slider-response","20","161227","0.0-16.0","baxrrq6bu4","NaN","<div style=""width:500px;"">
                            <p style=""font-size:50px; font-weight:bold;""
                            >playful</p>
                            <div style=""width:240px; margin: auto;"">
                                <img src=""images/gray_36.png"" style= ""width:200px""alt=""img"">
                            </div>
                        </div>","-66","","0","images/gray_36.png","","","","playful"
"","","","","","html-slider-response","21","162984","0.0-17.0","baxrrq6bu4","NaN","<div style=""width:500px;"">
                            <p style=""font-size:50px; font-weight:bold;""
                            >playful</p>
                            <div style=""width:240px; margin: auto;"">
                                <img src=""images/gray_33.png"" style= ""width:200px""alt=""img"">
                            </div>
                        </div>","-198","","0","images/gray_33.png","","","","playful"
"","","","","","html-slider-response","22","165676","0.0-18.0","baxrrq6bu4","NaN","<div style=""width:500px;"">
                            <p style=""font-size:50px; font-weight:bold;""
                            >playful</p>
                            <div style=""width:240px; margin: auto;"">
                                <img src=""images/gray_06.png"" style= ""width:200px""alt=""img"">
                            </div>
                        </div>","154","","0","images/gray_06.png","","","","playful"
"","","","","","html-slider-response","23","167747","0.0-19.0","baxrrq6bu4","NaN","<div style=""width:500px;"">
                            <p style=""font-size:50px; font-weight:bold;""
                            >playful</p>
                            <div style=""width:240px; margin: auto;"">
                                <img src=""images/gray_31.png"" style= ""width:200px""alt=""img"">
                            </div>
                        </div>","200","","0","images/gray_31.png","","","","playful"
"","","","","","html-slider-response","24","169877","0.0-20.0","baxrrq6bu4","NaN","<div style=""width:500px;"">
                            <p style=""font-size:50px; font-weight:bold;""
                            >playful</p>
                            <div style=""width:240px; margin: auto;"">
                                <img src=""images/gray_20.png"" style= ""width:200px""alt=""img"">
                            </div>
                        </div>","-45","","0","images/gray_20.png","","","","playful"
"","","","","","html-slider-response","25","172396","0.0-21.0","baxrrq6bu4","NaN","<div style=""width:500px;"">
                            <p style=""font-size:50px; font-weight:bold;""
                            >playful</p>
                            <div style=""width:240px; margin: auto;"">
                                <img src=""images/gray_13.png"" style= ""width:200px""alt=""img"">
                            </div>
                        </div>","-22","","0","images/gray_13.png","","","","playful"
"","","","","","html-slider-response","26","174496","0.0-22.0","baxrrq6bu4","NaN","<div style=""width:500px;"">
                            <p style=""font-size:50px; font-weight:bold;""
                            >playful</p>
                            <div style=""width:240px; margin: auto;"">
                                <img src=""images/gray_01.png"" style= ""width:200px""alt=""img"">
                            </div>
                        </div>","13","","0","images/gray_01.png","","","","playful"
"","","","","","html-slider-response","27","176552","0.0-23.0","baxrrq6bu4","NaN","<div style=""width:500px;"">
                            <p style=""font-size:50px; font-weight:bold;""
                            >playful</p>
                            <div style=""width:240px; margin: auto;"">
                                <img src=""images/gray_07.png"" style= ""width:200px""alt=""img"">
                            </div>
                        </div>","-144","","0","images/gray_07.png","","","","playful"
"","","","","","html-slider-response","28","178554","0.0-24.0","baxrrq6bu4","NaN","<div style=""width:500px;"">
                            <p style=""font-size:50px; font-weight:bold;""
                            >playful</p>
                            <div style=""width:240px; margin: auto;"">
                                <img src=""images/gray_25.png"" style= ""width:200px""alt=""img"">
                            </div>
                        </div>","61","","0","images/gray_25.png","","","","playful"
"","","","","","html-slider-response","29","180811","0.0-25.0","baxrrq6bu4","NaN","<div style=""width:500px;"">
                            <p style=""font-size:50px; font-weight:bold;""
                            >playful</p>
                            <div style=""width:240px; margin: auto;"">
                                <img src=""images/gray_35.png"" style= ""width:200px""alt=""img"">
                            </div>
                        </div>","87","","0","images/gray_35.png","","","","playful"
"","","","","","html-slider-response","30","183194","0.0-26.0","baxrrq6bu4","NaN","<div style=""width:500px;"">
                            <p style=""font-size:50px; font-weight:bold;""
                            >playful</p>
                            <div style=""width:240px; margin: auto;"">
                                <img src=""images/gray_44.png"" style= ""width:200px""alt=""img"">
                            </div>
                        </div>","-78","","0","images/gray_44.png","","","","playful"
"","","","","","html-slider-response","31","185822","0.0-27.0","baxrrq6bu4","NaN","<div style=""width:500px;"">
                            <p style=""font-size:50px; font-weight:bold;""
                            >playful</p>
                            <div style=""width:240px; margin: auto;"">
                                <img src=""images/gray_08.png"" style= ""width:200px""alt=""img"">
                            </div>
                        </div>","-119","","0","images/gray_08.png","","","","playful"
"","","","","","html-slider-response","32","187862","0.0-28.0","baxrrq6bu4","NaN","<div style=""width:500px;"">
                            <p style=""font-size:50px; font-weight:bold;""
                            >playful</p>
                            <div style=""width:240px; margin: auto;"">
                                <img src=""images/gray_24.png"" style= ""width:200px""alt=""img"">
                            </div>
                        </div>","-2","","0","images/gray_24.png","","","","playful"
"","","","","","html-slider-response","33","189873","0.0-29.0","baxrrq6bu4","NaN","<div style=""width:500px;"">
                            <p style=""font-size:50px; font-weight:bold;""
                            >playful</p>
                            <div style=""width:240px; margin: auto;"">
                                <img src=""images/gray_30.png"" style= ""width:200px""alt=""img"">
                            </div>
                        </div>","-49","","0","images/gray_30.png","","","","playful"
"","","","","","html-slider-response","34","191760","0.0-30.0","baxrrq6bu4","NaN","<div style=""width:500px;"">
                            <p style=""font-size:50px; font-weight:bold;""
                            >playful</p>
                            <div style=""width:240px; margin: auto;"">
                                <img src=""images/gray_39.png"" style= ""width:200px""alt=""img"">
                            </div>
                        </div>","123","","0","images/gray_39.png","","","","playful"
"","","","","","html-slider-response","35","193477","0.0-31.0","baxrrq6bu4","NaN","<div style=""width:500px;"">
                            <p style=""font-size:50px; font-weight:bold;""
                            >playful</p>
                            <div style=""width:240px; margin: auto;"">
                                <img src=""images/gray_16.png"" style= ""width:200px""alt=""img"">
                            </div>
                        </div>","-89","","0","images/gray_16.png","","","","playful"
"","","","","","html-slider-response","36","195650","0.0-32.0","baxrrq6bu4","NaN","<div style=""width:500px;"">
                            <p style=""font-size:50px; font-weight:bold;""
                            >playful</p>
                            <div style=""width:240px; margin: auto;"">
                                <img src=""images/gray_04.png"" style= ""width:200px""alt=""img"">
                            </div>
                        </div>","78","","0","images/gray_04.png","","","","playful"
"","","","","","html-slider-response","37","198205","0.0-33.0","baxrrq6bu4","NaN","<div style=""width:500px;"">
                            <p style=""font-size:50px; font-weight:bold;""
                            >playful</p>
                            <div style=""width:240px; margin: auto;"">
                                <img src=""images/gray_15.png"" style= ""width:200px""alt=""img"">
                            </div>
                        </div>","85","","0","images/gray_15.png","","","","playful"
"","","","","","html-slider-response","38","199885","0.0-34.0","baxrrq6bu4","NaN","<div style=""width:500px;"">
                            <p style=""font-size:50px; font-weight:bold;""
                            >playful</p>
                            <div style=""width:240px; margin: auto;"">
                                <img src=""images/gray_03.png"" style= ""width:200px""alt=""img"">
                            </div>
                        </div>","-55","","0","images/gray_03.png","","","","playful"
"","","","","","html-slider-response","39","201799","0.0-35.0","baxrrq6bu4","NaN","<div style=""width:500px;"">
                            <p style=""font-size:50px; font-weight:bold;""
                            >playful</p>
                            <div style=""width:240px; margin: auto;"">
                                <img src=""images/gray_28.png"" style= ""width:200px""alt=""img"">
                            </div>
                        </div>","-175","","0","images/gray_28.png","","","","playful"
"","","","","","html-slider-response","40","203592","0.0-36.0","baxrrq6bu4","NaN","<div style=""width:500px;"">
                            <p style=""font-size:50px; font-weight:bold;""
                            >playful</p>
                            <div style=""width:240px; margin: auto;"">
                                <img src=""images/gray_29.png"" style= ""width:200px""alt=""img"">
                            </div>
                        </div>","200","","0","images/gray_29.png","","","","playful"
"","","","","","html-slider-response","41","205463","0.0-37.0","baxrrq6bu4","NaN","<div style=""width:500px;"">
                            <p style=""font-size:50px; font-weight:bold;""
                            >playful</p>
                            <div style=""width:240px; margin: auto;"">
                                <img src=""images/gray_26.png"" style= ""width:200px""alt=""img"">
                            </div>
                        </div>","98","","0","images/gray_26.png","","","","playful"
"","","","","","html-slider-response","42","207362","0.0-38.0","baxrrq6bu4","NaN","<div style=""width:500px;"">
                            <p style=""font-size:50px; font-weight:bold;""
                            >playful</p>
                            <div style=""width:240px; margin: auto;"">
                                <img src=""images/gray_02.png"" style= ""width:200px""alt=""img"">
                            </div>
                        </div>","108","","0","images/gray_02.png","","","","playful"
"","","","","","html-slider-response","43","209163","0.0-39.0","baxrrq6bu4","NaN","<div style=""width:500px;"">
                            <p style=""font-size:50px; font-weight:bold;""
                            >playful</p>
                            <div style=""width:240px; margin: auto;"">
                                <img src=""images/gray_37.png"" style= ""width:200px""alt=""img"">
                            </div>
                        </div>","115","","0","images/gray_37.png","","","","playful"
"","","","","","html-slider-response","44","211188","0.0-40.0","baxrrq6bu4","NaN","<div style=""width:500px;"">
                            <p style=""font-size:50px; font-weight:bold;""
                            >playful</p>
                            <div style=""width:240px; margin: auto;"">
                                <img src=""images/gray_34.png"" style= ""width:200px""alt=""img"">
                            </div>
                        </div>","111","","0","images/gray_34.png","","","","playful"
"","","","","","html-slider-response","45","213237","0.0-41.0","baxrrq6bu4","NaN","<div style=""width:500px;"">
                            <p style=""font-size:50px; font-weight:bold;""
                            >playful</p>
                            <div style=""width:240px; margin: auto;"">
                                <img src=""images/gray_22.png"" style= ""width:200px""alt=""img"">
                            </div>
                        </div>","141","","0","images/gray_22.png","","","","playful"
"","","","","","html-slider-response","46","214975","0.0-42.0","baxrrq6bu4","NaN","<div style=""width:500px;"">
                            <p style=""font-size:50px; font-weight:bold;""
                            >playful</p>
                            <div style=""width:240px; margin: auto;"">
                                <img src=""images/gray_21.png"" style= ""width:200px""alt=""img"">
                            </div>
                        </div>","200","","0","images/gray_21.png","","","","playful"
"","","","","","html-slider-response","47","216840","0.0-43.0","baxrrq6bu4","NaN","<div style=""width:500px;"">
                            <p style=""font-size:50px; font-weight:bold;""
                            >playful</p>
                            <div style=""width:240px; margin: auto;"">
                                <img src=""images/gray_23.png"" style= ""width:200px""alt=""img"">
                            </div>
                        </div>","-78","","0","images/gray_23.png","","","","playful"
"","","","","","html-slider-response","48","218561","0.0-44.0","baxrrq6bu4","NaN","<div style=""width:500px;"">
                            <p style=""font-size:50px; font-weight:bold;""
                            >playful</p>
                            <div style=""width:240px; margin: auto;"">
                                <img src=""images/gray_43.png"" style= ""width:200px""alt=""img"">
                            </div>
                        </div>","-64","","0","images/gray_43.png","","","","playful"
"","","","","","html-slider-response","49","220675","0.0-45.0","baxrrq6bu4","NaN","<div style=""width:500px;"">
                            <p style=""font-size:50px; font-weight:bold;""
                            >playful</p>
                            <div style=""width:240px; margin: auto;"">
                                <img src=""images/gray_27.png"" style= ""width:200px""alt=""img"">
                            </div>
                        </div>","107","","0","images/gray_27.png","","","","playful"
"","","","","","html-slider-response","50","222834","0.0-46.0","baxrrq6bu4","NaN","<div style=""width:500px;"">
                            <p style=""font-size:50px; font-weight:bold;""
                            >playful</p>
                            <div style=""width:240px; margin: auto;"">
                                <img src=""images/gray_19.png"" style= ""width:200px""alt=""img"">
                            </div>
                        </div>","150","","0","images/gray_19.png","","","","playful"
"","","","","","html-slider-response","51","224450","0.0-47.0","baxrrq6bu4","NaN","<div style=""width:500px;"">
                            <p style=""font-size:50px; font-weight:bold;""
                            >playful</p>
                            <div style=""width:240px; margin: auto;"">
                                <img src=""images/gray_18.png"" style= ""width:200px""alt=""img"">
                            </div>
                        </div>","195","","0","images/gray_18.png","","","","playful"
"","","","","","html-slider-response","52","226189","0.0-48.0","baxrrq6bu4","NaN","<div style=""width:500px;"">
                            <p style=""font-size:50px; font-weight:bold;""
                            >playful</p>
                            <div style=""width:240px; margin: auto;"">
                                <img src=""images/gray_11.png"" style= ""width:200px""alt=""img"">
                            </div>
                        </div>","-72","","0","images/gray_11.png","","","","playful"
"","","","","","html-slider-response","53","227806","0.0-49.0","baxrrq6bu4","NaN","<div style=""width:500px;"">
                            <p style=""font-size:50px; font-weight:bold;""
                            >playful</p>
                            <div style=""width:240px; margin: auto;"">
                                <img src=""images/gray_10.png"" style= ""width:200px""alt=""img"">
                            </div>
                        </div>","-114","","0","images/gray_10.png","","","","playful"
"","","","","","html-slider-response","54","229349","0.0-50.0","baxrrq6bu4","NaN","<div style=""width:500px;"">
                            <p style=""font-size:50px; font-weight:bold;""
                            >playful</p>
                            <div style=""width:240px; margin: auto;"">
                                <img src=""images/gray_40.png"" style= ""width:200px""alt=""img"">
                            </div>
                        </div>","-56","","0","images/gray_40.png","","","","playful"
"","","","","","html-slider-response","55","230640","0.0-51.0","baxrrq6bu4","NaN","<div style=""width:500px;"">
                            <p style=""font-size:50px; font-weight:bold;""
                            >playful</p>
                            <div style=""width:240px; margin: auto;"">
                                <img src=""images/gray_42.png"" style= ""width:200px""alt=""img"">
                            </div>
                        </div>","2","","0","images/gray_42.png","","","","playful"
"","","","","","html-slider-response","56","232456","0.0-52.0","baxrrq6bu4","NaN","<div style=""width:500px;"">
                            <p style=""font-size:50px; font-weight:bold;""
                            >playful</p>
                            <div style=""width:240px; margin: auto;"">
                                <img src=""images/gray_38.png"" style= ""width:200px""alt=""img"">
                            </div>
                        </div>","-15","","0","images/gray_38.png","","","","playful"
"","","","","","html-slider-response","57","233895","0.0-53.0","baxrrq6bu4","NaN","<div style=""width:500px;"">
                            <p style=""font-size:50px; font-weight:bold;""
                            >playful</p>
                            <div style=""width:240px; margin: auto;"">
                                <img src=""images/gray_05.png"" style= ""width:200px""alt=""img"">
                            </div>
                        </div>","-22","","0","images/gray_05.png","","","","playful"
"","","","","","html-slider-response","58","235659","0.0-54.0","baxrrq6bu4","NaN","<div style=""width:500px;"">
                            <p style=""font-size:50px; font-weight:bold;""
                            >playful</p>
                            <div style=""width:240px; margin: auto;"">
                                <img src=""images/gray_17.png"" style= ""width:200px""alt=""img"">
                            </div>
                        </div>","-149","","0","images/gray_17.png","","","","playful"
"","","","","","html-slider-response","59","238004","0.0-55.0","baxrrq6bu4","NaN","<div style=""width:500px;"">
                            <p style=""font-size:50px; font-weight:bold;""
                            >playful</p>
                            <div style=""width:240px; margin: auto;"">
                                <img src=""images/gray_14.png"" style= ""width:200px""alt=""img"">
                            </div>
                        </div>","-114","","0","images/gray_14.png","","","","playful"
"","","","","","html-slider-response","60","256961","0.0-56.0","baxrrq6bu4","NaN","<div style=""width:500px;"">
                            <p style=""font-size:50px; font-weight:bold;""
                            >playful</p>
                            <div style=""width:240px; margin: auto;"">
                                <img src=""images/gray_41.png"" style= ""width:200px""alt=""img"">
                            </div>
                        </div>","-47","","0","images/gray_41.png","","","","playful"
"","","","","","html-slider-response","61","258745","0.0-57.0","baxrrq6bu4","NaN","<div style=""width:500px;"">
                            <p style=""font-size:50px; font-weight:bold;""
                            >playful</p>
                            <div style=""width:240px; margin: auto;"">
                                <img src=""images/gray_09.png"" style= ""width:200px""alt=""img"">
                            </div>
                        </div>","52","","0","images/gray_09.png","","","","playful"
"","","","","","html-button-response","62","283168","0.0-58.0","baxrrq6bu4","23919","<p>Great Job! You've finished block 1.<br></br> You have 7 block(s) left to go.<br></br></p>","0","","","","","","",""
"","","","","","html-button-response","63","284537","0.0-59.0","baxrrq6bu4","1368","<p>In this block of trials, you will be asked to rate how much you associate each map with:</p > <p style = 'font-size:150%; font-weight: bold'>trustworthy</p><br></br>","0","","","","","","",""
"","","","","","html-slider-response","64","286541","0.0-60.0","baxrrq6bu4","NaN","<div style=""width:500px;"">
                            <p style=""font-size:50px; font-weight:bold;""
                            >trustworthy</p>
                            <div style=""width:240px; margin: auto;"">
                                <img src=""images/gray_11.png"" style= ""width:200px""alt=""img"">
                            </div>
                        </div>","61","","0","images/gray_11.png","","","","trustworthy"
"","","","","","html-slider-response","65","288193","0.0-61.0","baxrrq6bu4","NaN","<div style=""width:500px;"">
                            <p style=""font-size:50px; font-weight:bold;""
                            >trustworthy</p>
                            <div style=""width:240px; margin: auto;"">
                                <img src=""images/gray_26.png"" style= ""width:200px""alt=""img"">
                            </div>
                        </div>","90","","0","images/gray_26.png","","","","trustworthy"
"","","","","","html-slider-response","66","290040","0.0-62.0","baxrrq6bu4","NaN","<div style=""width:500px;"">
                            <p style=""font-size:50px; font-weight:bold;""
                            >trustworthy</p>
                            <div style=""width:240px; margin: auto;"">
                                <img src=""images/gray_28.png"" style= ""width:200px""alt=""img"">
                            </div>
                        </div>","175","","0","images/gray_28.png","","","","trustworthy"
"","","","","","html-slider-response","67","291842","0.0-63.0","baxrrq6bu4","NaN","<div style=""width:500px;"">
                            <p style=""font-size:50px; font-weight:bold;""
                            >trustworthy</p>
                            <div style=""width:240px; margin: auto;"">
                                <img src=""images/gray_02.png"" style= ""width:200px""alt=""img"">
                            </div>
                        </div>","-66","","0","images/gray_02.png","","","","trustworthy"
"","","","","","html-slider-response","68","293303","0.0-64.0","baxrrq6bu4","NaN","<div style=""width:500px;"">
                            <p style=""font-size:50px; font-weight:bold;""
                            >trustworthy</p>
                            <div style=""width:240px; margin: auto;"">
                                <img src=""images/gray_22.png"" style= ""width:200px""alt=""img"">
                            </div>
                        </div>","54","","0","images/gray_22.png","","","","trustworthy"
"","","","","","html-slider-response","69","294945","0.0-65.0","baxrrq6bu4","NaN","<div style=""width:500px;"">
                            <p style=""font-size:50px; font-weight:bold;""
                            >trustworthy</p>
                            <div style=""width:240px; margin: auto;"">
                                <img src=""images/gray_21.png"" style= ""width:200px""alt=""img"">
                            </div>
                        </div>","55","","0","images/gray_21.png","","","","trustworthy"
"","","","","","html-slider-response","70","296692","0.0-66.0","baxrrq6bu4","NaN","<div style=""width:500px;"">
                            <p style=""font-size:50px; font-weight:bold;""
                            >trustworthy</p>
                            <div style=""width:240px; margin: auto;"">
                                <img src=""images/gray_41.png"" style= ""width:200px""alt=""img"">
                            </div>
                        </div>","-43","","0","images/gray_41.png","","","","trustworthy"
"","","","","","html-slider-response","71","298347","0.0-67.0","baxrrq6bu4","NaN","<div style=""width:500px;"">
                            <p style=""font-size:50px; font-weight:bold;""
                            >trustworthy</p>
                            <div style=""width:240px; margin: auto;"">
                                <img src=""images/gray_44.png"" style= ""width:200px""alt=""img"">
                            </div>
                        </div>","46","","0","images/gray_44.png","","","","trustworthy"
"","","","","","html-slider-response","72","300101","0.0-68.0","baxrrq6bu4","NaN","<div style=""width:500px;"">
                            <p style=""font-size:50px; font-weight:bold;""
                            >trustworthy</p>
                            <div style=""width:240px; margin: auto;"">
                                <img src=""images/gray_01.png"" style= ""width:200px""alt=""img"">
                            </div>
                        </div>","94","","0","images/gray_01.png","","","","trustworthy"
"","","","","","html-slider-response","73","302038","0.0-69.0","baxrrq6bu4","NaN","<div style=""width:500px;"">
                            <p style=""font-size:50px; font-weight:bold;""
                            >trustworthy</p>
                            <div style=""width:240px; margin: auto;"">
                                <img src=""images/gray_37.png"" style= ""width:200px""alt=""img"">
                            </div>
                        </div>","126","","0","images/gray_37.png","","","","trustworthy"
"","","","","","html-slider-response","74","303982","0.0-70.0","baxrrq6bu4","NaN","<div style=""width:500px;"">
                            <p style=""font-size:50px; font-weight:bold;""
                            >trustworthy</p>
                            <div style=""width:240px; margin: auto;"">
                                <img src=""images/gray_05.png"" style= ""width:200px""alt=""img"">
                            </div>
                        </div>","65","","0","images/gray_05.png","","","","trustworthy"
"","","","","","html-slider-response","75","305664","0.0-71.0","baxrrq6bu4","NaN","<div style=""width:500px;"">
                            <p style=""font-size:50px; font-weight:bold;""
                            >trustworthy</p>
                            <div style=""width:240px; margin: auto;"">
                                <img src=""images/gray_34.png"" style= ""width:200px""alt=""img"">
                            </div>
                        </div>","-121","","0","images/gray_34.png","","","","trustworthy"
"","","","","","html-slider-response","76","307463","0.0-72.0","baxrrq6bu4","NaN","<div style=""width:500px;"">
                            <p style=""font-size:50px; font-weight:bold;""
                            >trustworthy</p>
                            <div style=""width:240px; margin: auto;"">
                                <img src=""images/gray_38.png"" style= ""width:200px""alt=""img"">
                            </div>
                        </div>","12","","0","images/gray_38.png","","","","trustworthy"
"","","","","","html-slider-response","77","308658","0.0-73.0","baxrrq6bu4","NaN","<div style=""width:500px;"">
                            <p style=""font-size:50px; font-weight:bold;""
                            >trustworthy</p>
                            <div style=""width:240px; margin: auto;"">
                                <img src=""images/gray_19.png"" style= ""width:200px""alt=""img"">
                            </div>
                        </div>","12","","0","images/gray_19.png","","","","trustworthy"
"","","","","","html-slider-response","78","310579","0.0-74.0","baxrrq6bu4","NaN","<div style=""width:500px;"">
                            <p style=""font-size:50px; font-weight:bold;""
                            >trustworthy</p>
                            <div style=""width:240px; margin: auto;"">
                                <img src=""images/gray_39.png"" style= ""width:200px""alt=""img"">
                            </div>
                        </div>","22","","0","images/gray_39.png","","","","trustworthy"
"","","","","","html-slider-response","79","312276","0.0-75.0","baxrrq6bu4","NaN","<div style=""width:500px;"">
                            <p style=""font-size:50px; font-weight:bold;""
                            >trustworthy</p>
                            <div style=""width:240px; margin: auto;"">
                                <img src=""images/gray_10.png"" style= ""width:200px""alt=""img"">
                            </div>
                        </div>","-58","","0","images/gray_10.png","","","","trustworthy"
"","","","","","html-slider-response","80","314375","0.0-76.0","baxrrq6bu4","NaN","<div style=""width:500px;"">
                            <p style=""font-size:50px; font-weight:bold;""
                            >trustworthy</p>
                            <div style=""width:240px; margin: auto;"">
                                <img src=""images/gray_29.png"" style= ""width:200px""alt=""img"">
                            </div>
                        </div>","-138","","0","images/gray_29.png","","","","trustworthy"
"","","","","","html-slider-response","81","316012","0.0-77.0","baxrrq6bu4","NaN","<div style=""width:500px;"">
                            <p style=""font-size:50px; font-weight:bold;""
                            >trustworthy</p>
                            <div style=""width:240px; margin: auto;"">
                                <img src=""images/gray_30.png"" style= ""width:200px""alt=""img"">
                            </div>
                        </div>","-200","","0","images/gray_30.png","","","","trustworthy"
"","","","","","html-slider-response","82","318078","0.0-78.0","baxrrq6bu4","NaN","<div style=""width:500px;"">
                            <p style=""font-size:50px; font-weight:bold;""
                            >trustworthy</p>
                            <div style=""width:240px; margin: auto;"">
                                <img src=""images/gray_07.png"" style= ""width:200px""alt=""img"">
                            </div>
                        </div>","-129","","0","images/gray_07.png","","","","trustworthy"
"","","","","","html-slider-response","83","319871","0.0-79.0","baxrrq6bu4","NaN","<div style=""width:500px;"">
                            <p style=""font-size:50px; font-weight:bold;""
                            >trustworthy</p>
                            <div style=""width:240px; margin: auto;"">
                                <img src=""images/gray_18.png"" style= ""width:200px""alt=""img"">
                            </div>
                        </div>","152","","0","images/gray_18.png","","","","trustworthy"
"","","","","","html-slider-response","84","321400","0.0-80.0","baxrrq6bu4","NaN","<div style=""width:500px;"">
                            <p style=""font-size:50px; font-weight:bold;""
                            >trustworthy</p>
                            <div style=""width:240px; margin: auto;"">
                                <img src=""images/gray_42.png"" style= ""width:200px""alt=""img"">
                            </div>
                        </div>","1","","0","images/gray_42.png","","","","trustworthy"
"","","","","","html-slider-response","85","323192","0.0-81.0","baxrrq6bu4","NaN","<div style=""width:500px;"">
                            <p style=""font-size:50px; font-weight:bold;""
                            >trustworthy</p>
                            <div style=""width:240px; margin: auto;"">
                                <img src=""images/gray_40.png"" style= ""width:200px""alt=""img"">
                            </div>
                        </div>","1","","0","images/gray_40.png","","","","trustworthy"
"","","","","","html-slider-response","86","324593","0.0-82.0","baxrrq6bu4","NaN","<div style=""width:500px;"">
                            <p style=""font-size:50px; font-weight:bold;""
                            >trustworthy</p>
                            <div style=""width:240px; margin: auto;"">
                                <img src=""images/gray_15.png"" style= ""width:200px""alt=""img"">
                            </div>
                        </div>","1","","0","images/gray_15.png","","","","trustworthy"
"","","","","","html-slider-response","87","327305","0.0-83.0","baxrrq6bu4","NaN","<div style=""width:500px;"">
                            <p style=""font-size:50px; font-weight:bold;""
                            >trustworthy</p>
                            <div style=""width:240px; margin: auto;"">
                                <img src=""images/gray_04.png"" style= ""width:200px""alt=""img"">
                            </div>
                        </div>","1","","0","images/gray_04.png","","","","trustworthy"
"","","","","","html-slider-response","88","329241","0.0-84.0","baxrrq6bu4","NaN","<div style=""width:500px;"">
                            <p style=""font-size:50px; font-weight:bold;""
                            >trustworthy</p>
                            <div style=""width:240px; margin: auto;"">
                                <img src=""images/gray_20.png"" style= ""width:200px""alt=""img"">
                            </div>
                        </div>","-108","","0","images/gray_20.png","","","","trustworthy"
"","","","","","html-slider-response","89","330843","0.0-85.0","baxrrq6bu4","NaN","<div style=""width:500px;"">
                            <p style=""font-size:50px; font-weight:bold;""
                            >trustworthy</p>
                            <div style=""width:240px; margin: auto;"">
                                <img src=""images/gray_33.png"" style= ""width:200px""alt=""img"">
                            </div>
                        </div>","-200","","0","images/gray_33.png","","","","trustworthy"
"","","","","","html-slider-response","90","334483","0.0-86.0","baxrrq6bu4","NaN","<div style=""width:500px;"">
                            <p style=""font-size:50px; font-weight:bold;""
                            >trustworthy</p>
                            <div style=""width:240px; margin: auto;"">
                                <img src=""images/gray_09.png"" style= ""width:200px""alt=""img"">
                            </div>
                        </div>","-54","","0","images/gray_09.png","","","","trustworthy"
"","","","","","html-slider-response","91","336494","0.0-87.0","baxrrq6bu4","NaN","<div style=""width:500px;"">
                            <p style=""font-size:50px; font-weight:bold;""
                            >trustworthy</p>
                            <div style=""width:240px; margin: auto;"">
                                <img src=""images/gray_31.png"" style= ""width:200px""alt=""img"">
                            </div>
                        </div>","126","","0","images/gray_31.png","","","","trustworthy"
"","","","","","html-slider-response","92","338110","0.0-88.0","baxrrq6bu4","NaN","<div style=""width:500px;"">
                            <p style=""font-size:50px; font-weight:bold;""
                            >trustworthy</p>
                            <div style=""width:240px; margin: auto;"">
                                <img src=""images/gray_43.png"" style= ""width:200px""alt=""img"">
                            </div>
                        </div>","57","","0","images/gray_43.png","","","","trustworthy"
"","","","","","html-slider-response","93","339999","0.0-89.0","baxrrq6bu4","NaN","<div style=""width:500px;"">
                            <p style=""font-size:50px; font-weight:bold;""
                            >trustworthy</p>
                            <div style=""width:240px; margin: auto;"">
                                <img src=""images/gray_36.png"" style= ""width:200px""alt=""img"">
                            </div>
                        </div>","-47","","0","images/gray_36.png","","","","trustworthy"
"","","","","","html-slider-response","94","341915","0.0-90.0","baxrrq6bu4","NaN","<div style=""width:500px;"">
                            <p style=""font-size:50px; font-weight:bold;""
                            >trustworthy</p>
                            <div style=""width:240px; margin: auto;"">
                                <img src=""images/gray_03.png"" style= ""width:200px""alt=""img"">
                            </div>
                        </div>","0","","0","images/gray_03.png","","","","trustworthy"
"","","","","","html-slider-response","95","343673","0.0-91.0","baxrrq6bu4","NaN","<div style=""width:500px;"">
                            <p style=""font-size:50px; font-weight:bold;""
                            >trustworthy</p>
                            <div style=""width:240px; margin: auto;"">
                                <img src=""images/gray_25.png"" style= ""width:200px""alt=""img"">
                            </div>
                        </div>","28","","0","images/gray_25.png","","","","trustworthy"
"","","","","","html-slider-response","96","345197","0.0-92.0","baxrrq6bu4","NaN","<div style=""width:500px;"">
                            <p style=""font-size:50px; font-weight:bold;""
                            >trustworthy</p>
                            <div style=""width:240px; margin: auto;"">
                                <img src=""images/gray_27.png"" style= ""width:200px""alt=""img"">
                            </div>
                        </div>","-138","","0","images/gray_27.png","","","","trustworthy"
"","","","","","html-slider-response","97","346577","0.0-93.0","baxrrq6bu4","NaN","<div style=""width:500px;"">
                            <p style=""font-size:50px; font-weight:bold;""
                            >trustworthy</p>
                            <div style=""width:240px; margin: auto;"">
                                <img src=""images/gray_06.png"" style= ""width:200px""alt=""img"">
                            </div>
                        </div>","-6","","0","images/gray_06.png","","","","trustworthy"
"","","","","","html-slider-response","98","347916","0.0-94.0","baxrrq6bu4","NaN","<div style=""width:500px;"">
                            <p style=""font-size:50px; font-weight:bold;""
                            >trustworthy</p>
                            <div style=""width:240px; margin: auto;"">
                                <img src=""images/gray_16.png"" style= ""width:200px""alt=""img"">
                            </div>
                        </div>","6","","0","images/gray_16.png","","","","trustworthy"
"","","","","","html-slider-response","99","349437","0.0-95.0","baxrrq6bu4","NaN","<div style=""width:500px;"">
                            <p style=""font-size:50px; font-weight:bold;""
                            >trustworthy</p>
                            <div style=""width:240px; margin: auto;"">
                                <img src=""images/gray_32.png"" style= ""width:200px""alt=""img"">
                            </div>
                        </div>","-26","","0","images/gray_32.png","","","","trustworthy"
"","","","","","html-slider-response","100","351270","0.0-96.0","baxrrq6bu4","NaN","<div style=""width:500px;"">
                            <p style=""font-size:50px; font-weight:bold;""
                            >trustworthy</p>
                            <div style=""width:240px; margin: auto;"">
                                <img src=""images/gray_14.png"" style= ""width:200px""alt=""img"">
                            </div>
                        </div>","151","","0","images/gray_14.png","","","","trustworthy"
"","","","","","html-slider-response","101","352798","0.0-97.0","baxrrq6bu4","NaN","<div style=""width:500px;"">
                            <p style=""font-size:50px; font-weight:bold;""
                            >trustworthy</p>
                            <div style=""width:240px; margin: auto;"">
                                <img src=""images/gray_23.png"" style= ""width:200px""alt=""img"">
                            </div>
                        </div>","-3","","0","images/gray_23.png","","","","trustworthy"
"","","","","","html-slider-response","102","353918","0.0-98.0","baxrrq6bu4","NaN","<div style=""width:500px;"">
                            <p style=""font-size:50px; font-weight:bold;""
                            >trustworthy</p>
                            <div style=""width:240px; margin: auto;"">
                                <img src=""images/gray_24.png"" style= ""width:200px""alt=""img"">
                            </div>
                        </div>","-2","","0","images/gray_24.png","","","","trustworthy"
"","","","","","html-slider-response","103","355478","0.0-99.0","baxrrq6bu4","NaN","<div style=""width:500px;"">
                            <p style=""font-size:50px; font-weight:bold;""
                            >trustworthy</p>
                            <div style=""width:240px; margin: auto;"">
                                <img src=""images/gray_08.png"" style= ""width:200px""alt=""img"">
                            </div>
                        </div>","-84","","0","images/gray_08.png","","","","trustworthy"
"","","","","","html-slider-response","104","357160","0.0-100.0","baxrrq6bu4","NaN","<div style=""width:500px;"">
                            <p style=""font-size:50px; font-weight:bold;""
                            >trustworthy</p>
                            <div style=""width:240px; margin: auto;"">
                                <img src=""images/gray_35.png"" style= ""width:200px""alt=""img"">
                            </div>
                        </div>","6","","0","images/gray_35.png","","","","trustworthy"
"","","","","","html-slider-response","105","358795","0.0-101.0","baxrrq6bu4","NaN","<div style=""width:500px;"">
                            <p style=""font-size:50px; font-weight:bold;""
                            >trustworthy</p>
                            <div style=""width:240px; margin: auto;"">
                                <img src=""images/gray_17.png"" style= ""width:200px""alt=""img"">
                            </div>
                        </div>","136","","0","images/gray_17.png","","","","trustworthy"
"","","","","","html-slider-response","106","360883","0.0-102.0","baxrrq6bu4","NaN","<div style=""width:500px;"">
                            <p style=""font-size:50px; font-weight:bold;""
                            >trustworthy</p>
                            <div style=""width:240px; margin: auto;"">
                                <img src=""images/gray_13.png"" style= ""width:200px""alt=""img"">
                            </div>
                        </div>","-125","","0","images/gray_13.png","","","","trustworthy"
"","","","","","html-slider-response","107","362204","0.0-103.0","baxrrq6bu4","NaN","<div style=""width:500px;"">
                            <p style=""font-size:50px; font-weight:bold;""
                            >trustworthy</p>
                            <div style=""width:240px; margin: auto;"">
                                <img src=""images/gray_12.png"" style= ""width:200px""alt=""img"">
                            </div>
                        </div>","-4","","0","images/gray_12.png","","","","trustworthy"
"","","","","","html-button-response","108","397084","0.0-104.0","baxrrq6bu4","34376","<p>Great Job! You've finished block 2.<br></br> You have 6 block(s) left to go.<br></br></p>","0","","","","","","",""
"","","","","","html-button-response","109","398069","0.0-105.0","baxrrq6bu4","984","<p>In this block of trials, you will be asked to rate how much you associate each map with:</p > <p style = 'font-size:150%; font-weight: bold'>disturbing</p><br></br>","0","","","","","","",""
"","","","","","html-slider-response","110","403391","0.0-106.0","baxrrq6bu4","NaN","<div style=""width:500px;"">
                            <p style=""font-size:50px; font-weight:bold;""
                            >disturbing</p>
                            <div style=""width:240px; margin: auto;"">
                                <img src=""images/gray_23.png"" style= ""width:200px""alt=""img"">
                            </div>
                        </div>","194","","0","images/gray_23.png","","","","disturbing"
"","","","","","html-slider-response","111","405535","0.0-107.0","baxrrq6bu4","NaN","<div style=""width:500px;"">
                            <p style=""font-size:50px; font-weight:bold;""
                            >disturbing</p>
                            <div style=""width:240px; margin: auto;"">
                                <img src=""images/gray_38.png"" style= ""width:200px""alt=""img"">
                            </div>
                        </div>","-19","","0","images/gray_38.png","","","","disturbing"
"","","","","","html-slider-response","112","407631","0.0-108.0","baxrrq6bu4","NaN","<div style=""width:500px;"">
                            <p style=""font-size:50px; font-weight:bold;""
                            >disturbing</p>
                            <div style=""width:240px; margin: auto;"">
                                <img src=""images/gray_29.png"" style= ""width:200px""alt=""img"">
                            </div>
                        </div>","-63","","0","images/gray_29.png","","","","disturbing"
"","","","","","html-slider-response","113","409307","0.0-109.0","baxrrq6bu4","NaN","<div style=""width:500px;"">
                            <p style=""font-size:50px; font-weight:bold;""
                            >disturbing</p>
                            <div style=""width:240px; margin: auto;"">
                                <img src=""images/gray_33.png"" style= ""width:200px""alt=""img"">
                            </div>
                        </div>","200","","0","images/gray_33.png","","","","disturbing"
"","","","","","html-slider-response","114","411259","0.0-110.0","baxrrq6bu4","NaN","<div style=""width:500px;"">
                            <p style=""font-size:50px; font-weight:bold;""
                            >disturbing</p>
                            <div style=""width:240px; margin: auto;"">
                                <img src=""images/gray_37.png"" style= ""width:200px""alt=""img"">
                            </div>
                        </div>","71","","0","images/gray_37.png","","","","disturbing"
"","","","","","html-slider-response","115","413652","0.0-111.0","baxrrq6bu4","NaN","<div style=""width:500px;"">
                            <p style=""font-size:50px; font-weight:bold;""
                            >disturbing</p>
                            <div style=""width:240px; margin: auto;"">
                                <img src=""images/gray_15.png"" style= ""width:200px""alt=""img"">
                            </div>
                        </div>","-2","","0","images/gray_15.png","","","","disturbing"
"","","","","","html-slider-response","116","415326","0.0-112.0","baxrrq6bu4","NaN","<div style=""width:500px;"">
                            <p style=""font-size:50px; font-weight:bold;""
                            >disturbing</p>
                            <div style=""width:240px; margin: auto;"">
                                <img src=""images/gray_03.png"" style= ""width:200px""alt=""img"">
                            </div>
                        </div>","-23","","0","images/gray_03.png","","","","disturbing"
"","","","","","html-slider-response","117","416925","0.0-113.0","baxrrq6bu4","NaN","<div style=""width:500px;"">
                            <p style=""font-size:50px; font-weight:bold;""
                            >disturbing</p>
                            <div style=""width:240px; margin: auto;"">
                                <img src=""images/gray_41.png"" style= ""width:200px""alt=""img"">
                            </div>
                        </div>","103","","0","images/gray_41.png","","","","disturbing"
"","","","","","html-slider-response","118","418607","0.0-114.0","baxrrq6bu4","NaN","<div style=""width:500px;"">
                            <p style=""font-size:50px; font-weight:bold;""
                            >disturbing</p>
                            <div style=""width:240px; margin: auto;"">
                                <img src=""images/gray_40.png"" style= ""width:200px""alt=""img"">
                            </div>
                        </div>","26","","0","images/gray_40.png","","","","disturbing"
"","","","","","html-slider-response","119","420208","0.0-115.0","baxrrq6bu4","NaN","<div style=""width:500px;"">
                            <p style=""font-size:50px; font-weight:bold;""
                            >disturbing</p>
                            <div style=""width:240px; margin: auto;"">
                                <img src=""images/gray_10.png"" style= ""width:200px""alt=""img"">
                            </div>
                        </div>","-38","","0","images/gray_10.png","","","","disturbing"
"","","","","","html-slider-response","120","422001","0.0-116.0","baxrrq6bu4","NaN","<div style=""width:500px;"">
                            <p style=""font-size:50px; font-weight:bold;""
                            >disturbing</p>
                            <div style=""width:240px; margin: auto;"">
                                <img src=""images/gray_43.png"" style= ""width:200px""alt=""img"">
                            </div>
                        </div>","-86","","0","images/gray_43.png","","","","disturbing"
"","","","","","html-slider-response","121","423544","0.0-117.0","baxrrq6bu4","NaN","<div style=""width:500px;"">
                            <p style=""font-size:50px; font-weight:bold;""
                            >disturbing</p>
                            <div style=""width:240px; margin: auto;"">
                                <img src=""images/gray_07.png"" style= ""width:200px""alt=""img"">
                            </div>
                        </div>","200","","0","images/gray_07.png","","","","disturbing"
"","","","","","html-slider-response","122","425203","0.0-118.0","baxrrq6bu4","NaN","<div style=""width:500px;"">
                            <p style=""font-size:50px; font-weight:bold;""
                            >disturbing</p>
                            <div style=""width:240px; margin: auto;"">
                                <img src=""images/gray_30.png"" style= ""width:200px""alt=""img"">
                            </div>
                        </div>","200","","0","images/gray_30.png","","","","disturbing"
"","","","","","html-slider-response","123","427140","0.0-119.0","baxrrq6bu4","NaN","<div style=""width:500px;"">
                            <p style=""font-size:50px; font-weight:bold;""
                            >disturbing</p>
                            <div style=""width:240px; margin: auto;"">
                                <img src=""images/gray_20.png"" style= ""width:200px""alt=""img"">
                            </div>
                        </div>","22","","0","images/gray_20.png","","","","disturbing"
"","","","","","html-slider-response","124","428775","0.0-120.0","baxrrq6bu4","NaN","<div style=""width:500px;"">
                            <p style=""font-size:50px; font-weight:bold;""
                            >disturbing</p>
                            <div style=""width:240px; margin: auto;"">
                                <img src=""images/gray_08.png"" style= ""width:200px""alt=""img"">
                            </div>
                        </div>","75","","0","images/gray_08.png","","","","disturbing"
"","","","","","html-slider-response","125","430510","0.0-121.0","baxrrq6bu4","NaN","<div style=""width:500px;"">
                            <p style=""font-size:50px; font-weight:bold;""
                            >disturbing</p>
                            <div style=""width:240px; margin: auto;"">
                                <img src=""images/gray_32.png"" style= ""width:200px""alt=""img"">
                            </div>
                        </div>","128","","0","images/gray_32.png","","","","disturbing"
"","","","","","html-slider-response","126","432126","0.0-122.0","baxrrq6bu4","NaN","<div style=""width:500px;"">
                            <p style=""font-size:50px; font-weight:bold;""
                            >disturbing</p>
                            <div style=""width:240px; margin: auto;"">
                                <img src=""images/gray_05.png"" style= ""width:200px""alt=""img"">
                            </div>
                        </div>","39","","0","images/gray_05.png","","","","disturbing"
"","","","","","html-slider-response","127","434112","0.0-123.0","baxrrq6bu4","NaN","<div style=""width:500px;"">
                            <p style=""font-size:50px; font-weight:bold;""
                            >disturbing</p>
                            <div style=""width:240px; margin: auto;"">
                                <img src=""images/gray_31.png"" style= ""width:200px""alt=""img"">
                            </div>
                        </div>","-115","","0","images/gray_31.png","","","","disturbing"
"","","","","","html-slider-response","128","436111","0.0-124.0","baxrrq6bu4","NaN","<div style=""width:500px;"">
                            <p style=""font-size:50px; font-weight:bold;""
                            >disturbing</p>
                            <div style=""width:240px; margin: auto;"">
                                <img src=""images/gray_21.png"" style= ""width:200px""alt=""img"">
                            </div>
                        </div>","-112","","0","images/gray_21.png","","","","disturbing"
"","","","","","html-slider-response","129","437777","0.0-125.0","baxrrq6bu4","NaN","<div style=""width:500px;"">
                            <p style=""font-size:50px; font-weight:bold;""
                            >disturbing</p>
                            <div style=""width:240px; margin: auto;"">
                                <img src=""images/gray_42.png"" style= ""width:200px""alt=""img"">
                            </div>
                        </div>","0","","0","images/gray_42.png","","","","disturbing"
"","","","","","html-slider-response","130","439626","0.0-126.0","baxrrq6bu4","NaN","<div style=""width:500px;"">
                            <p style=""font-size:50px; font-weight:bold;""
                            >disturbing</p>
                            <div style=""width:240px; margin: auto;"">
                                <img src=""images/gray_16.png"" style= ""width:200px""alt=""img"">
                            </div>
                        </div>","0","","0","images/gray_16.png","","","","disturbing"
"","","","","","html-slider-response","131","441244","0.0-127.0","baxrrq6bu4","NaN","<div style=""width:500px;"">
                            <p style=""font-size:50px; font-weight:bold;""
                            >disturbing</p>
                            <div style=""width:240px; margin: auto;"">
                                <img src=""images/gray_11.png"" style= ""width:200px""alt=""img"">
                            </div>
                        </div>","162","","0","images/gray_11.png","","","","disturbing"
"","","","","","html-slider-response","132","442980","0.0-128.0","baxrrq6bu4","NaN","<div style=""width:500px;"">
                            <p style=""font-size:50px; font-weight:bold;""
                            >disturbing</p>
                            <div style=""width:240px; margin: auto;"">
                                <img src=""images/gray_34.png"" style= ""width:200px""alt=""img"">
                            </div>
                        </div>","-26","","0","images/gray_34.png","","","","disturbing"
"","","","","","html-slider-response","133","444854","0.0-129.0","baxrrq6bu4","NaN","<div style=""width:500px;"">
                            <p style=""font-size:50px; font-weight:bold;""
                            >disturbing</p>
                            <div style=""width:240px; margin: auto;"">
                                <img src=""images/gray_06.png"" style= ""width:200px""alt=""img"">
                            </div>
                        </div>","-122","","0","images/gray_06.png","","","","disturbing"
"","","","","","html-slider-response","134","446842","0.0-130.0","baxrrq6bu4","NaN","<div style=""width:500px;"">
                            <p style=""font-size:50px; font-weight:bold;""
                            >disturbing</p>
                            <div style=""width:240px; margin: auto;"">
                                <img src=""images/gray_44.png"" style= ""width:200px""alt=""img"">
                            </div>
                        </div>","50","","0","images/gray_44.png","","","","disturbing"
"","","","","","html-slider-response","135","448659","0.0-131.0","baxrrq6bu4","NaN","<div style=""width:500px;"">
                            <p style=""font-size:50px; font-weight:bold;""
                            >disturbing</p>
                            <div style=""width:240px; margin: auto;"">
                                <img src=""images/gray_25.png"" style= ""width:200px""alt=""img"">
                            </div>
                        </div>","-66","","0","images/gray_25.png","","","","disturbing"
"","","","","","html-slider-response","136","450554","0.0-132.0","baxrrq6bu4","NaN","<div style=""width:500px;"">
                            <p style=""font-size:50px; font-weight:bold;""
                            >disturbing</p>
                            <div style=""width:240px; margin: auto;"">
                                <img src=""images/gray_24.png"" style= ""width:200px""alt=""img"">
                            </div>
                        </div>","-63","","0","images/gray_24.png","","","","disturbing"
"","","","","","html-slider-response","137","452361","0.0-133.0","baxrrq6bu4","NaN","<div style=""width:500px;"">
                            <p style=""font-size:50px; font-weight:bold;""
                            >disturbing</p>
                            <div style=""width:240px; margin: auto;"">
                                <img src=""images/gray_14.png"" style= ""width:200px""alt=""img"">
                            </div>
                        </div>","-86","","0","images/gray_14.png","","","","disturbing"
"","","","","","html-slider-response","138","455867","0.0-134.0","baxrrq6bu4","NaN","<div style=""width:500px;"">
                            <p style=""font-size:50px; font-weight:bold;""
                            >disturbing</p>
                            <div style=""width:240px; margin: auto;"">
                                <img src=""images/gray_18.png"" style= ""width:200px""alt=""img"">
                            </div>
                        </div>","-178","","0","images/gray_18.png","","","","disturbing"
"","","","","","html-slider-response","139","457790","0.0-135.0","baxrrq6bu4","NaN","<div style=""width:500px;"">
                            <p style=""font-size:50px; font-weight:bold;""
                            >disturbing</p>
                            <div style=""width:240px; margin: auto;"">
                                <img src=""images/gray_39.png"" style= ""width:200px""alt=""img"">
                            </div>
                        </div>","-142","","0","images/gray_39.png","","","","disturbing"
"","","","","","html-slider-response","140","459582","0.0-136.0","baxrrq6bu4","NaN","<div style=""width:500px;"">
                            <p style=""font-size:50px; font-weight:bold;""
                            >disturbing</p>
                            <div style=""width:240px; margin: auto;"">
                                <img src=""images/gray_13.png"" style= ""width:200px""alt=""img"">
                            </div>
                        </div>","129","","0","images/gray_13.png","","","","disturbing"
"","","","","","html-slider-response","141","461223","0.0-137.0","baxrrq6bu4","NaN","<div style=""width:500px;"">
                            <p style=""font-size:50px; font-weight:bold;""
                            >disturbing</p>
                            <div style=""width:240px; margin: auto;"">
                                <img src=""images/gray_04.png"" style= ""width:200px""alt=""img"">
                            </div>
                        </div>","-74","","0","images/gray_04.png","","","","disturbing"
"","","","","","html-slider-response","142","462904","0.0-138.0","baxrrq6bu4","NaN","<div style=""width:500px;"">
                            <p style=""font-size:50px; font-weight:bold;""
                            >disturbing</p>
                            <div style=""width:240px; margin: auto;"">
                                <img src=""images/gray_02.png"" style= ""width:200px""alt=""img"">
                            </div>
                        </div>","-127","","0","images/gray_02.png","","","","disturbing"
"","","","","","html-slider-response","143","464593","0.0-139.0","baxrrq6bu4","NaN","<div style=""width:500px;"">
                            <p style=""font-size:50px; font-weight:bold;""
                            >disturbing</p>
                            <div style=""width:240px; margin: auto;"">
                                <img src=""images/gray_17.png"" style= ""width:200px""alt=""img"">
                            </div>
                        </div>","-46","","0","images/gray_17.png","","","","disturbing"
"","","","","","html-slider-response","144","466410","0.0-140.0","baxrrq6bu4","NaN","<div style=""width:500px;"">
                            <p style=""font-size:50px; font-weight:bold;""
                            >disturbing</p>
                            <div style=""width:240px; margin: auto;"">
                                <img src=""images/gray_09.png"" style= ""width:200px""alt=""img"">
                            </div>
                        </div>","172","","0","images/gray_09.png","","","","disturbing"
"","","","","","html-slider-response","145","468113","0.0-141.0","baxrrq6bu4","NaN","<div style=""width:500px;"">
                            <p style=""font-size:50px; font-weight:bold;""
                            >disturbing</p>
                            <div style=""width:240px; margin: auto;"">
                                <img src=""images/gray_36.png"" style= ""width:200px""alt=""img"">
                            </div>
                        </div>","200","","0","images/gray_36.png","","","","disturbing"
"","","","","","html-slider-response","146","469559","0.0-142.0","baxrrq6bu4","NaN","<div style=""width:500px;"">
                            <p style=""font-size:50px; font-weight:bold;""
                            >disturbing</p>
                            <div style=""width:240px; margin: auto;"">
                                <img src=""images/gray_22.png"" style= ""width:200px""alt=""img"">
                            </div>
                        </div>","76","","0","images/gray_22.png","","","","disturbing"
"","","","","","html-slider-response","147","471763","0.0-143.0","baxrrq6bu4","NaN","<div style=""width:500px;"">
                            <p style=""font-size:50px; font-weight:bold;""
                            >disturbing</p>
                            <div style=""width:240px; margin: auto;"">
                                <img src=""images/gray_27.png"" style= ""width:200px""alt=""img"">
                            </div>
                        </div>","102","","0","images/gray_27.png","","","","disturbing"
"","","","","","html-slider-response","148","473558","0.0-144.0","baxrrq6bu4","NaN","<div style=""width:500px;"">
                            <p style=""font-size:50px; font-weight:bold;""
                            >disturbing</p>
                            <div style=""width:240px; margin: auto;"">
                                <img src=""images/gray_01.png"" style= ""width:200px""alt=""img"">
                            </div>
                        </div>","87","","0","images/gray_01.png","","","","disturbing"
"","","","","","html-slider-response","149","475695","0.0-145.0","baxrrq6bu4","NaN","<div style=""width:500px;"">
                            <p style=""font-size:50px; font-weight:bold;""
                            >disturbing</p>
                            <div style=""width:240px; margin: auto;"">
                                <img src=""images/gray_12.png"" style= ""width:200px""alt=""img"">
                            </div>
                        </div>","15","","0","images/gray_12.png","","","","disturbing"
"","","","","","html-slider-response","150","477746","0.0-146.0","baxrrq6bu4","NaN","<div style=""width:500px;"">
                            <p style=""font-size:50px; font-weight:bold;""
                            >disturbing</p>
                            <div style=""width:240px; margin: auto;"">
                                <img src=""images/gray_19.png"" style= ""width:200px""alt=""img"">
                            </div>
                        </div>","86","","0","images/gray_19.png","","","","disturbing"
"","","","","","html-slider-response","151","479617","0.0-147.0","baxrrq6bu4","NaN","<div style=""width:500px;"">
                            <p style=""font-size:50px; font-weight:bold;""
                            >disturbing</p>
                            <div style=""width:240px; margin: auto;"">
                                <img src=""images/gray_28.png"" style= ""width:200px""alt=""img"">
                            </div>
                        </div>","200","","0","images/gray_28.png","","","","disturbing"
"","","","","","html-slider-response","152","481275","0.0-148.0","baxrrq6bu4","NaN","<div style=""width:500px;"">
                            <p style=""font-size:50px; font-weight:bold;""
                            >disturbing</p>
                            <div style=""width:240px; margin: auto;"">
                                <img src=""images/gray_26.png"" style= ""width:200px""alt=""img"">
                            </div>
                        </div>","37","","0","images/gray_26.png","","","","disturbing"
"","","","","","html-slider-response","153","483252","0.0-149.0","baxrrq6bu4","NaN","<div style=""width:500px;"">
                            <p style=""font-size:50px; font-weight:bold;""
                            >disturbing</p>
                            <div style=""width:240px; margin: auto;"">
                                <img src=""images/gray_35.png"" style= ""width:200px""alt=""img"">
                            </div>
                        </div>","10","","0","images/gray_35.png","","","","disturbing"
"","","","","","html-button-response","154","605524","0.0-150.0","baxrrq6bu4","121768","<p>Great Job! You've finished block 3.<br></br> You have 5 block(s) left to go.<br></br></p>","0","","","","","","",""
"","","","","","html-button-response","155","614172","0.0-151.0","baxrrq6bu4","8647","<p>In this block of trials, you will be asked to rate how much you associate each map with:</p > <p style = 'font-size:150%; font-weight: bold'>positive</p><br></br>","0","","","","","","",""
"","","","","","html-slider-response","156","616074","0.0-152.0","baxrrq6bu4","NaN","<div style=""width:500px;"">
                            <p style=""font-size:50px; font-weight:bold;""
                            >positive</p>
                            <div style=""width:240px; margin: auto;"">
                                <img src=""images/gray_22.png"" style= ""width:200px""alt=""img"">
                            </div>
                        </div>","-73","","0","images/gray_22.png","","","","positive"
"","","","","","html-slider-response","157","617858","0.0-153.0","baxrrq6bu4","NaN","<div style=""width:500px;"">
                            <p style=""font-size:50px; font-weight:bold;""
                            >positive</p>
                            <div style=""width:240px; margin: auto;"">
                                <img src=""images/gray_23.png"" style= ""width:200px""alt=""img"">
                            </div>
                        </div>","-106","","0","images/gray_23.png","","","","positive"
"","","","","","html-slider-response","158","619659","0.0-154.0","baxrrq6bu4","NaN","<div style=""width:500px;"">
                            <p style=""font-size:50px; font-weight:bold;""
                            >positive</p>
                            <div style=""width:240px; margin: auto;"">
                                <img src=""images/gray_09.png"" style= ""width:200px""alt=""img"">
                            </div>
                        </div>","3","","0","images/gray_09.png","","","","positive"
"","","","","","html-slider-response","159","621300","0.0-155.0","baxrrq6bu4","NaN","<div style=""width:500px;"">
                            <p style=""font-size:50px; font-weight:bold;""
                            >positive</p>
                            <div style=""width:240px; margin: auto;"">
                                <img src=""images/gray_10.png"" style= ""width:200px""alt=""img"">
                            </div>
                        </div>","-28","","0","images/gray_10.png","","","","positive"
"","","","","","html-slider-response","160","622957","0.0-156.0","baxrrq6bu4","NaN","<div style=""width:500px;"">
                            <p style=""font-size:50px; font-weight:bold;""
                            >positive</p>
                            <div style=""width:240px; margin: auto;"">
                                <img src=""images/gray_01.png"" style= ""width:200px""alt=""img"">
                            </div>
                        </div>","73","","0","images/gray_01.png","","","","positive"
"","","","","","html-slider-response","161","624830","0.0-157.0","baxrrq6bu4","NaN","<div style=""width:500px;"">
                            <p style=""font-size:50px; font-weight:bold;""
                            >positive</p>
                            <div style=""width:240px; margin: auto;"">
                                <img src=""images/gray_37.png"" style= ""width:200px""alt=""img"">
                            </div>
                        </div>","133","","0","images/gray_37.png","","","","positive"
"","","","","","html-slider-response","162","626550","0.0-158.0","baxrrq6bu4","NaN","<div style=""width:500px;"">
                            <p style=""font-size:50px; font-weight:bold;""
                            >positive</p>
                            <div style=""width:240px; margin: auto;"">
                                <img src=""images/gray_43.png"" style= ""width:200px""alt=""img"">
                            </div>
                        </div>","31","","0","images/gray_43.png","","","","positive"
"","","","","","html-slider-response","163","628326","0.0-159.0","baxrrq6bu4","NaN","<div style=""width:500px;"">
                            <p style=""font-size:50px; font-weight:bold;""
                            >positive</p>
                            <div style=""width:240px; margin: auto;"">
                                <img src=""images/gray_31.png"" style= ""width:200px""alt=""img"">
                            </div>
                        </div>","200","","0","images/gray_31.png","","","","positive"
"","","","","","html-slider-response","164","629982","0.0-160.0","baxrrq6bu4","NaN","<div style=""width:500px;"">
                            <p style=""font-size:50px; font-weight:bold;""
                            >positive</p>
                            <div style=""width:240px; margin: auto;"">
                                <img src=""images/gray_08.png"" style= ""width:200px""alt=""img"">
                            </div>
                        </div>","-58","","0","images/gray_08.png","","","","positive"
"","","","","","html-slider-response","165","632169","0.0-161.0","baxrrq6bu4","NaN","<div style=""width:500px;"">
                            <p style=""font-size:50px; font-weight:bold;""
                            >positive</p>
                            <div style=""width:240px; margin: auto;"">
                                <img src=""images/gray_33.png"" style= ""width:200px""alt=""img"">
                            </div>
                        </div>","-188","","0","images/gray_33.png","","","","positive"
"","","","","","html-slider-response","166","634225","0.0-162.0","baxrrq6bu4","NaN","<div style=""width:500px;"">
                            <p style=""font-size:50px; font-weight:bold;""
                            >positive</p>
                            <div style=""width:240px; margin: auto;"">
                                <img src=""images/gray_18.png"" style= ""width:200px""alt=""img"">
                            </div>
                        </div>","160","","0","images/gray_18.png","","","","positive"
"","","","","","html-slider-response","167","635867","0.0-163.0","baxrrq6bu4","NaN","<div style=""width:500px;"">
                            <p style=""font-size:50px; font-weight:bold;""
                            >positive</p>
                            <div style=""width:240px; margin: auto;"">
                                <img src=""images/gray_11.png"" style= ""width:200px""alt=""img"">
                            </div>
                        </div>","1","","0","images/gray_11.png","","","","positive"
"","","","","","html-slider-response","168","638005","0.0-164.0","baxrrq6bu4","NaN","<div style=""width:500px;"">
                            <p style=""font-size:50px; font-weight:bold;""
                            >positive</p>
                            <div style=""width:240px; margin: auto;"">
                                <img src=""images/gray_44.png"" style= ""width:200px""alt=""img"">
                            </div>
                        </div>","-25","","0","images/gray_44.png","","","","positive"
"","","","","","html-slider-response","169","639795","0.0-165.0","baxrrq6bu4","NaN","<div style=""width:500px;"">
                            <p style=""font-size:50px; font-weight:bold;""
                            >positive</p>
                            <div style=""width:240px; margin: auto;"">
                                <img src=""images/gray_06.png"" style= ""width:200px""alt=""img"">
                            </div>
                        </div>","-53","","0","images/gray_06.png","","","","positive"
"","","","","","html-slider-response","170","641557","0.0-166.0","baxrrq6bu4","NaN","<div style=""width:500px;"">
                            <p style=""font-size:50px; font-weight:bold;""
                            >positive</p>
                            <div style=""width:240px; margin: auto;"">
                                <img src=""images/gray_28.png"" style= ""width:200px""alt=""img"">
                            </div>
                        </div>","-101","","0","images/gray_28.png","","","","positive"
"","","","","","html-slider-response","171","643599","0.0-167.0","baxrrq6bu4","NaN","<div style=""width:500px;"">
                            <p style=""font-size:50px; font-weight:bold;""
                            >positive</p>
                            <div style=""width:240px; margin: auto;"">
                                <img src=""images/gray_39.png"" style= ""width:200px""alt=""img"">
                            </div>
                        </div>","101","","0","images/gray_39.png","","","","positive"
"","","","","","html-slider-response","172","645041","0.0-168.0","baxrrq6bu4","NaN","<div style=""width:500px;"">
                            <p style=""font-size:50px; font-weight:bold;""
                            >positive</p>
                            <div style=""width:240px; margin: auto;"">
                                <img src=""images/gray_34.png"" style= ""width:200px""alt=""img"">
                            </div>
                        </div>","-2","","0","images/gray_34.png","","","","positive"
"","","","","","html-slider-response","173","646744","0.0-169.0","baxrrq6bu4","NaN","<div style=""width:500px;"">
                            <p style=""font-size:50px; font-weight:bold;""
                            >positive</p>
                            <div style=""width:240px; margin: auto;"">
                                <img src=""images/gray_24.png"" style= ""width:200px""alt=""img"">
                            </div>
                        </div>","126","","0","images/gray_24.png","","","","positive"
"","","","","","html-slider-response","174","648337","0.0-170.0","baxrrq6bu4","NaN","<div style=""width:500px;"">
                            <p style=""font-size:50px; font-weight:bold;""
                            >positive</p>
                            <div style=""width:240px; margin: auto;"">
                                <img src=""images/gray_26.png"" style= ""width:200px""alt=""img"">
                            </div>
                        </div>","-74","","0","images/gray_26.png","","","","positive"
"","","","","","html-slider-response","175","650017","0.0-171.0","baxrrq6bu4","NaN","<div style=""width:500px;"">
                            <p style=""font-size:50px; font-weight:bold;""
                            >positive</p>
                            <div style=""width:240px; margin: auto;"">
                                <img src=""images/gray_35.png"" style= ""width:200px""alt=""img"">
                            </div>
                        </div>","-42","","0","images/gray_35.png","","","","positive"
"","","","","","html-slider-response","176","652626","0.0-172.0","baxrrq6bu4","NaN","<div style=""width:500px;"">
                            <p style=""font-size:50px; font-weight:bold;""
                            >positive</p>
                            <div style=""width:240px; margin: auto;"">
                                <img src=""images/gray_29.png"" style= ""width:200px""alt=""img"">
                            </div>
                        </div>","111","","0","images/gray_29.png","","","","positive"
"","","","","","html-slider-response","177","654884","0.0-173.0","baxrrq6bu4","NaN","<div style=""width:500px;"">
                            <p style=""font-size:50px; font-weight:bold;""
                            >positive</p>
                            <div style=""width:240px; margin: auto;"">
                                <img src=""images/gray_03.png"" style= ""width:200px""alt=""img"">
                            </div>
                        </div>","-51","","0","images/gray_03.png","","","","positive"
"","","","","","html-slider-response","178","658677","0.0-174.0","baxrrq6bu4","NaN","<div style=""width:500px;"">
                            <p style=""font-size:50px; font-weight:bold;""
                            >positive</p>
                            <div style=""width:240px; margin: auto;"">
                                <img src=""images/gray_12.png"" style= ""width:200px""alt=""img"">
                            </div>
                        </div>","2","","0","images/gray_12.png","","","","positive"
"","","","","","html-slider-response","179","660890","0.0-175.0","baxrrq6bu4","NaN","<div style=""width:500px;"">
                            <p style=""font-size:50px; font-weight:bold;""
                            >positive</p>
                            <div style=""width:240px; margin: auto;"">
                                <img src=""images/gray_16.png"" style= ""width:200px""alt=""img"">
                            </div>
                        </div>","67","","0","images/gray_16.png","","","","positive"
"","","","","","html-slider-response","180","662524","0.0-176.0","baxrrq6bu4","NaN","<div style=""width:500px;"">
                            <p style=""font-size:50px; font-weight:bold;""
                            >positive</p>
                            <div style=""width:240px; margin: auto;"">
                                <img src=""images/gray_21.png"" style= ""width:200px""alt=""img"">
                            </div>
                        </div>","200","","0","images/gray_21.png","","","","positive"
"","","","","","html-slider-response","181","664171","0.0-177.0","baxrrq6bu4","NaN","<div style=""width:500px;"">
                            <p style=""font-size:50px; font-weight:bold;""
                            >positive</p>
                            <div style=""width:240px; margin: auto;"">
                                <img src=""images/gray_30.png"" style= ""width:200px""alt=""img"">
                            </div>
                        </div>","-200","","0","images/gray_30.png","","","","positive"
"","","","","","html-slider-response","182","666146","0.0-178.0","baxrrq6bu4","NaN","<div style=""width:500px;"">
                            <p style=""font-size:50px; font-weight:bold;""
                            >positive</p>
                            <div style=""width:240px; margin: auto;"">
                                <img src=""images/gray_15.png"" style= ""width:200px""alt=""img"">
                            </div>
                        </div>","26","","0","images/gray_15.png","","","","positive"
"","","","","","html-slider-response","183","667762","0.0-179.0","baxrrq6bu4","NaN","<div style=""width:500px;"">
                            <p style=""font-size:50px; font-weight:bold;""
                            >positive</p>
                            <div style=""width:240px; margin: auto;"">
                                <img src=""images/gray_27.png"" style= ""width:200px""alt=""img"">
                            </div>
                        </div>","-110","","0","images/gray_27.png","","","","positive"
"","","","","","html-slider-response","184","669765","0.0-180.0","baxrrq6bu4","NaN","<div style=""width:500px;"">
                            <p style=""font-size:50px; font-weight:bold;""
                            >positive</p>
                            <div style=""width:240px; margin: auto;"">
                                <img src=""images/gray_38.png"" style= ""width:200px""alt=""img"">
                            </div>
                        </div>","58","","0","images/gray_38.png","","","","positive"
"","","","","","html-slider-response","185","672421","0.0-181.0","baxrrq6bu4","NaN","<div style=""width:500px;"">
                            <p style=""font-size:50px; font-weight:bold;""
                            >positive</p>
                            <div style=""width:240px; margin: auto;"">
                                <img src=""images/gray_19.png"" style= ""width:200px""alt=""img"">
                            </div>
                        </div>","131","","0","images/gray_19.png","","","","positive"
"","","","","","html-slider-response","186","674775","0.0-182.0","baxrrq6bu4","NaN","<div style=""width:500px;"">
                            <p style=""font-size:50px; font-weight:bold;""
                            >positive</p>
                            <div style=""width:240px; margin: auto;"">
                                <img src=""images/gray_32.png"" style= ""width:200px""alt=""img"">
                            </div>
                        </div>","95","","0","images/gray_32.png","","","","positive"
"","","","","","html-slider-response","187","676416","0.0-183.0","baxrrq6bu4","NaN","<div style=""width:500px;"">
                            <p style=""font-size:50px; font-weight:bold;""
                            >positive</p>
                            <div style=""width:240px; margin: auto;"">
                                <img src=""images/gray_42.png"" style= ""width:200px""alt=""img"">
                            </div>
                        </div>","93","","0","images/gray_42.png","","","","positive"
"","","","","","html-slider-response","188","678560","0.0-184.0","baxrrq6bu4","NaN","<div style=""width:500px;"">
                            <p style=""font-size:50px; font-weight:bold;""
                            >positive</p>
                            <div style=""width:240px; margin: auto;"">
                                <img src=""images/gray_40.png"" style= ""width:200px""alt=""img"">
                            </div>
                        </div>","139","","0","images/gray_40.png","","","","positive"
"","","","","","html-slider-response","189","680091","0.0-185.0","baxrrq6bu4","NaN","<div style=""width:500px;"">
                            <p style=""font-size:50px; font-weight:bold;""
                            >positive</p>
                            <div style=""width:240px; margin: auto;"">
                                <img src=""images/gray_13.png"" style= ""width:200px""alt=""img"">
                            </div>
                        </div>","-140","","0","images/gray_13.png","","","","positive"
"","","","","","html-slider-response","190","681820","0.0-186.0","baxrrq6bu4","NaN","<div style=""width:500px;"">
                            <p style=""font-size:50px; font-weight:bold;""
                            >positive</p>
                            <div style=""width:240px; margin: auto;"">
                                <img src=""images/gray_20.png"" style= ""width:200px""alt=""img"">
                            </div>
                        </div>","-36","","0","images/gray_20.png","","","","positive"
"","","","","","html-slider-response","191","683412","0.0-187.0","baxrrq6bu4","NaN","<div style=""width:500px;"">
                            <p style=""font-size:50px; font-weight:bold;""
                            >positive</p>
                            <div style=""width:240px; margin: auto;"">
                                <img src=""images/gray_14.png"" style= ""width:200px""alt=""img"">
                            </div>
                        </div>","48","","0","images/gray_14.png","","","","positive"
"","","","","","html-slider-response","192","684940","0.0-188.0","baxrrq6bu4","NaN","<div style=""width:500px;"">
                            <p style=""font-size:50px; font-weight:bold;""
                            >positive</p>
                            <div style=""width:240px; margin: auto;"">
                                <img src=""images/gray_04.png"" style= ""width:200px""alt=""img"">
                            </div>
                        </div>","-16","","0","images/gray_04.png","","","","positive"
"","","","","","html-slider-response","193","686440","0.0-189.0","baxrrq6bu4","NaN","<div style=""width:500px;"">
                            <p style=""font-size:50px; font-weight:bold;""
                            >positive</p>
                            <div style=""width:240px; margin: auto;"">
                                <img src=""images/gray_02.png"" style= ""width:200px""alt=""img"">
                            </div>
                        </div>","2","","0","images/gray_02.png","","","","positive"
"","","","","","html-slider-response","194","688038","0.0-190.0","baxrrq6bu4","NaN","<div style=""width:500px;"">
                            <p style=""font-size:50px; font-weight:bold;""
                            >positive</p>
                            <div style=""width:240px; margin: auto;"">
                                <img src=""images/gray_36.png"" style= ""width:200px""alt=""img"">
                            </div>
                        </div>","-58","","0","images/gray_36.png","","","","positive"
"","","","","","html-slider-response","195","689614","0.0-191.0","baxrrq6bu4","NaN","<div style=""width:500px;"">
                            <p style=""font-size:50px; font-weight:bold;""
                            >positive</p>
                            <div style=""width:240px; margin: auto;"">
                                <img src=""images/gray_41.png"" style= ""width:200px""alt=""img"">
                            </div>
                        </div>","-78","","0","images/gray_41.png","","","","positive"
"","","","","","html-slider-response","196","691465","0.0-192.0","baxrrq6bu4","NaN","<div style=""width:500px;"">
                            <p style=""font-size:50px; font-weight:bold;""
                            >positive</p>
                            <div style=""width:240px; margin: auto;"">
                                <img src=""images/gray_07.png"" style= ""width:200px""alt=""img"">
                            </div>
                        </div>","-140","","0","images/gray_07.png","","","","positive"
"","","","","","html-slider-response","197","693201","0.0-193.0","baxrrq6bu4","NaN","<div style=""width:500px;"">
                            <p style=""font-size:50px; font-weight:bold;""
                            >positive</p>
                            <div style=""width:240px; margin: auto;"">
                                <img src=""images/gray_25.png"" style= ""width:200px""alt=""img"">
                            </div>
                        </div>","63","","0","images/gray_25.png","","","","positive"
