"success","timeout","failed_images","failed_audio","failed_video","trial_type","trial_index","time_elapsed","internal_node_id","subject_id","rt","stimulus","response","question_order","slider_start","image_path","practiceTrial","practiceTrialNum","correct","concept"
"true","false","[]","[]","[]","preload","0","481","0.0-0.0","c56jzdgmaj","","","","","","","","","",""
"","","","","","html-button-response","1","3203","0.0-1.0","c56jzdgmaj","2720","Welcome to our experiment!<p>At the bottom of this screen, you will see a button that says ""Begin Experiment"".<br>Please only click that button when you are ready to complete the 25 minute experiment in one sitting.</p><p> Once you click that button, it will not be possible to restart the experiment.","0","","","","","","",""
"true","","","","","fullscreen","2","5970","0.0-2.0","c56jzdgmaj","1763","","","","","","","","",""
"","","","","","survey-multi-select","3","37953","0.0-3.0","c56jzdgmaj","31979","","{""Consent"":[""<strong>I consent</strong>""]}","[0]","","","","","",""
"","","","","","html-button-response","4","41410","0.0-4.0","c56jzdgmaj","3452","Welcome! <p> This experiment involves two parts: demographic information, followed by the experimental task.<p> It will take about 25 minutes to complete both parts.","0","","","","","","",""
"","","","","","survey-text","5","52087","0.0-5.0","c56jzdgmaj","10667","","{""Age"":""21"",""Gender"":""female"",""Race/ethnicity"":""white"",""Languages"":""english""}","","","","","","",""
"","","","","","html-slider-response","6","68371","0.0-6.0","c56jzdgmaj","16281","
            <div style='text-align:left; font-size:20px; line-height:25px; width: 1200px;'>
                During this experiment you will be asked to rate how much you associate maps with    different concepts.<br> Below, you can see some examples of the maps you will be asked to rate. Next to the maps
    is the list of concepts.<br>You will be asked    to rate how much you associate each map with each concept on a scale from 'not at all' to 'very much' like the
    one below. <br><br>
    Now, please look at the list of concepts and maps. For each concept, think about the map you associate 'very
    much' with the concept.<br>     When you see that map during the experiment, please rate it near the 'very much' endpoint of the
    scale.<br>Now, please think about which map you associate 'not at all'     with each concept. When you see that map during the experiment, please rate it near the 'not at all' endpoint
    of the scale.<br>
    Please use the full range of the scale. That is, if a map is somewhat associated with the concept, you would
    click partway between the middle point and right side of the scale.    You will be asked to rate each map for a given concept before moving on to the next concept.<br><br>Press the
    'Continue' button for instructions on how to use the slider.    <br><br>
</div>

<div style=""width: 500px; margin: 0 auto;"">
    <div style=""text-align: left; width: 200px; float: left;"">
        <p style=""font-size:25px; line-height:18px;"">calm</p>
        <p style=""font-size:25px; line-height:18px;"">exciting</p>
        <p style=""font-size:25px;line-height:18px;"">positive</p>
        <p style=""font-size:25px;line-height:18px;"">negative</p>
        <p style=""font-size:25px;line-height:18px;"">serious</p>
        <p style=""font-size:25px;line-height:18px;"">playful</p>
        <p style=""font-size:25px;line-height:18px;"">trustworthy</p>
        <p style=""font-size:25px;line-height:18px;"">disturbing</p>
    </div>
    <div style=""width: 200px; float: right; padding-top:15px; padding-right:40px"">
        <br>
        <br>
        <img src=""maps_anchoring.png"" alt=""img"" style=""max-width:500px"">
    </div>
    <div style=""clear: both;""></div>
</div>
            ","4","","0","maps_anchoring.png","true","","",""
"","","","","","html-button-response","7","70288","0.0-7.0","c56jzdgmaj","1916","<div style=""width:800px;""><p style=""text-align:left"">To move the slider, click and drag your cursor to the location of the scale where you would like to make your rating and then let go. When you let go of the slider, your response will be recorded and the next trial will begin. <br>
            We are interested in your initial impressions of each map for the given concept, so please go with your first intuition. <br>
            Before you begin the experiment, there will be four training trials for you to practice using the scale. <br>
             When you are ready to start the training trials, please click ""Continue"".</p><br></div>","0","","","","","","",""
"","","","","","html-slider-response","8","73912","0.0-8.0-0.0","c56jzdgmaj","NaN","<div style=""width:500px;"">
                            <p style=""font-size:25px;"">Please move the slider all the way to the <br> right endpoint of the scale</p>

                            </div>
                        </div>","200","","0","","true","0","true",""
"","","","","","html-button-response","9","75832","0.0-8.0-1.0","c56jzdgmaj","1414","<p align='center'><b>Good job!</b> Click on 'Continue' to proceed.</p>","0","","","","","","",""
"","","","","","html-slider-response","10","85688","0.0-9.0-0.0","c56jzdgmaj","NaN","<div style=""width:500px;"">
                            <p style=""font-size:25px;"">Please move the slider all the way to the <br> left endpoint of the scale</p>

                            </div>
                        </div>","-200","","0","","true","1","true",""
"","","","","","html-button-response","11","87273","0.0-9.0-1.0","c56jzdgmaj","1082","<p align='center'><b>Good job!</b> Click on 'Continue' to proceed.</p>","0","","","","","","",""
"","","","","","html-slider-response","12","97073","0.0-10.0-0.0","c56jzdgmaj","NaN","<div style=""width:500px;"">
                            <p style=""font-size:25px;"">Please move the slider halfway between the center and right endpoint of the scale</p>

                            </div>
                        </div>","90","","0","","true","2","true",""
"","","","","","html-button-response","13","98252","0.0-10.0-1.0","c56jzdgmaj","675","<p align='center'><b>Good job!</b> Click on 'Continue' to proceed.</p>","0","","","","","","",""
"","","","","","html-slider-response","14","100022","0.0-11.0-0.0","c56jzdgmaj","NaN","<div style=""width:500px;"">
                            <p style=""font-size:25px;"">Please move the slider halfway between the center and left endpoint of the scale</p>

                            </div>
                        </div>","-106","","0","","true","3","true",""
"","","","","","html-button-response","15","101731","0.0-11.0-1.0","c56jzdgmaj","1207","<p align='center'><b>Good job!</b> Click on 'Continue' to proceed.</p>","0","","","","","","",""
"","","","","","html-button-response","16","104152","0.0-12.0","c56jzdgmaj","2419","<p>Great job! You've completed the practice trials. Now you will begin the main task.</p>","0","","","","","","",""
"","","","","","html-button-response","17","108582","0.0-13.0","c56jzdgmaj","4429","<p>In this block of trials, you will be asked to rate how much you associate each map with:</p > <p style = 'font-size:150%; font-weight: bold'>disturbing</p><br></br>","0","","","","","","",""
"","","","","","html-slider-response","18","110842","0.0-14.0","c56jzdgmaj","NaN","<div style=""width:500px;"">
                            <p style=""font-size:50px; font-weight:bold;""
                            >disturbing</p>
                            <div style=""width:240px; margin: auto;"">
                                <img src=""images/gray_03.png"" style= ""width:200px""alt=""img"">
                            </div>
                        </div>","66","","0","images/gray_03.png","","","","disturbing"
"","","","","","html-slider-response","19","113518","0.0-15.0","c56jzdgmaj","NaN","<div style=""width:500px;"">
                            <p style=""font-size:50px; font-weight:bold;""
                            >disturbing</p>
                            <div style=""width:240px; margin: auto;"">
                                <img src=""images/gray_38.png"" style= ""width:200px""alt=""img"">
                            </div>
                        </div>","52","","0","images/gray_38.png","","","","disturbing"
"","","","","","html-slider-response","20","115961","0.0-16.0","c56jzdgmaj","NaN","<div style=""width:500px;"">
                            <p style=""font-size:50px; font-weight:bold;""
                            >disturbing</p>
                            <div style=""width:240px; margin: auto;"">
                                <img src=""images/gray_05.png"" style= ""width:200px""alt=""img"">
                            </div>
                        </div>","132","","0","images/gray_05.png","","","","disturbing"
"","","","","","html-slider-response","21","118779","0.0-17.0","c56jzdgmaj","NaN","<div style=""width:500px;"">
                            <p style=""font-size:50px; font-weight:bold;""
                            >disturbing</p>
                            <div style=""width:240px; margin: auto;"">
                                <img src=""images/gray_36.png"" style= ""width:200px""alt=""img"">
                            </div>
                        </div>","157","","0","images/gray_36.png","","","","disturbing"
"","","","","","html-slider-response","22","123181","0.0-18.0","c56jzdgmaj","NaN","<div style=""width:500px;"">
                            <p style=""font-size:50px; font-weight:bold;""
                            >disturbing</p>
                            <div style=""width:240px; margin: auto;"">
                                <img src=""images/gray_39.png"" style= ""width:200px""alt=""img"">
                            </div>
                        </div>","-69","","0","images/gray_39.png","","","","disturbing"
"","","","","","html-slider-response","23","126361","0.0-19.0","c56jzdgmaj","NaN","<div style=""width:500px;"">
                            <p style=""font-size:50px; font-weight:bold;""
                            >disturbing</p>
                            <div style=""width:240px; margin: auto;"">
                                <img src=""images/gray_01.png"" style= ""width:200px""alt=""img"">
                            </div>
                        </div>","90","","0","images/gray_01.png","","","","disturbing"
"","","","","","html-slider-response","24","128825","0.0-20.0","c56jzdgmaj","NaN","<div style=""width:500px;"">
                            <p style=""font-size:50px; font-weight:bold;""
                            >disturbing</p>
                            <div style=""width:240px; margin: auto;"">
                                <img src=""images/gray_44.png"" style= ""width:200px""alt=""img"">
                            </div>
                        </div>","97","","0","images/gray_44.png","","","","disturbing"
"","","","","","html-slider-response","25","132153","0.0-21.0","c56jzdgmaj","NaN","<div style=""width:500px;"">
                            <p style=""font-size:50px; font-weight:bold;""
                            >disturbing</p>
                            <div style=""width:240px; margin: auto;"">
                                <img src=""images/gray_02.png"" style= ""width:200px""alt=""img"">
                            </div>
                        </div>","5","","0","images/gray_02.png","","","","disturbing"
"","","","","","html-slider-response","26","135475","0.0-22.0","c56jzdgmaj","NaN","<div style=""width:500px;"">
                            <p style=""font-size:50px; font-weight:bold;""
                            >disturbing</p>
                            <div style=""width:240px; margin: auto;"">
                                <img src=""images/gray_10.png"" style= ""width:200px""alt=""img"">
                            </div>
                        </div>","84","","0","images/gray_10.png","","","","disturbing"
"","","","","","html-slider-response","27","137773","0.0-23.0","c56jzdgmaj","NaN","<div style=""width:500px;"">
                            <p style=""font-size:50px; font-weight:bold;""
                            >disturbing</p>
                            <div style=""width:240px; margin: auto;"">
                                <img src=""images/gray_37.png"" style= ""width:200px""alt=""img"">
                            </div>
                        </div>","-78","","0","images/gray_37.png","","","","disturbing"
"","","","","","html-slider-response","28","141514","0.0-24.0","c56jzdgmaj","NaN","<div style=""width:500px;"">
                            <p style=""font-size:50px; font-weight:bold;""
                            >disturbing</p>
                            <div style=""width:240px; margin: auto;"">
                                <img src=""images/gray_40.png"" style= ""width:200px""alt=""img"">
                            </div>
                        </div>","-26","","0","images/gray_40.png","","","","disturbing"
"","","","","","html-slider-response","29","144806","0.0-25.0","c56jzdgmaj","NaN","<div style=""width:500px;"">
                            <p style=""font-size:50px; font-weight:bold;""
                            >disturbing</p>
                            <div style=""width:240px; margin: auto;"">
                                <img src=""images/gray_35.png"" style= ""width:200px""alt=""img"">
                            </div>
                        </div>","-43","","0","images/gray_35.png","","","","disturbing"
"","","","","","html-slider-response","30","147935","0.0-26.0","c56jzdgmaj","NaN","<div style=""width:500px;"">
                            <p style=""font-size:50px; font-weight:bold;""
                            >disturbing</p>
                            <div style=""width:240px; margin: auto;"">
                                <img src=""images/gray_25.png"" style= ""width:200px""alt=""img"">
                            </div>
                        </div>","-114","","0","images/gray_25.png","","","","disturbing"
"","","","","","html-slider-response","31","152189","0.0-27.0","c56jzdgmaj","NaN","<div style=""width:500px;"">
                            <p style=""font-size:50px; font-weight:bold;""
                            >disturbing</p>
                            <div style=""width:240px; margin: auto;"">
                                <img src=""images/gray_14.png"" style= ""width:200px""alt=""img"">
                            </div>
                        </div>","-82","","0","images/gray_14.png","","","","disturbing"
"","","","","","html-slider-response","32","155263","0.0-28.0","c56jzdgmaj","NaN","<div style=""width:500px;"">
                            <p style=""font-size:50px; font-weight:bold;""
                            >disturbing</p>
                            <div style=""width:240px; margin: auto;"">
                                <img src=""images/gray_21.png"" style= ""width:200px""alt=""img"">
                            </div>
                        </div>","-110","","0","images/gray_21.png","","","","disturbing"
"","","","","","html-slider-response","33","158511","0.0-29.0","c56jzdgmaj","NaN","<div style=""width:500px;"">
                            <p style=""font-size:50px; font-weight:bold;""
                            >disturbing</p>
                            <div style=""width:240px; margin: auto;"">
                                <img src=""images/gray_27.png"" style= ""width:200px""alt=""img"">
                            </div>
                        </div>","131","","0","images/gray_27.png","","","","disturbing"
"","","","","","html-slider-response","34","160610","0.0-30.0","c56jzdgmaj","NaN","<div style=""width:500px;"">
                            <p style=""font-size:50px; font-weight:bold;""
                            >disturbing</p>
                            <div style=""width:240px; margin: auto;"">
                                <img src=""images/gray_24.png"" style= ""width:200px""alt=""img"">
                            </div>
                        </div>","-52","","0","images/gray_24.png","","","","disturbing"
"","","","","","html-slider-response","35","163189","0.0-31.0","c56jzdgmaj","NaN","<div style=""width:500px;"">
                            <p style=""font-size:50px; font-weight:bold;""
                            >disturbing</p>
                            <div style=""width:240px; margin: auto;"">
                                <img src=""images/gray_30.png"" style= ""width:200px""alt=""img"">
                            </div>
                        </div>","-88","","0","images/gray_30.png","","","","disturbing"
"","","","","","html-slider-response","36","165140","0.0-32.0","c56jzdgmaj","NaN","<div style=""width:500px;"">
                            <p style=""font-size:50px; font-weight:bold;""
                            >disturbing</p>
                            <div style=""width:240px; margin: auto;"">
                                <img src=""images/gray_04.png"" style= ""width:200px""alt=""img"">
                            </div>
                        </div>","-138","","0","images/gray_04.png","","","","disturbing"
"","","","","","html-slider-response","37","167375","0.0-33.0","c56jzdgmaj","NaN","<div style=""width:500px;"">
                            <p style=""font-size:50px; font-weight:bold;""
                            >disturbing</p>
                            <div style=""width:240px; margin: auto;"">
                                <img src=""images/gray_31.png"" style= ""width:200px""alt=""img"">
                            </div>
                        </div>","-102","","0","images/gray_31.png","","","","disturbing"
"","","","","","html-slider-response","38","169593","0.0-34.0","c56jzdgmaj","NaN","<div style=""width:500px;"">
                            <p style=""font-size:50px; font-weight:bold;""
                            >disturbing</p>
                            <div style=""width:240px; margin: auto;"">
                                <img src=""images/gray_23.png"" style= ""width:200px""alt=""img"">
                            </div>
                        </div>","98","","0","images/gray_23.png","","","","disturbing"
"","","","","","html-slider-response","39","171761","0.0-35.0","c56jzdgmaj","NaN","<div style=""width:500px;"">
                            <p style=""font-size:50px; font-weight:bold;""
                            >disturbing</p>
                            <div style=""width:240px; margin: auto;"">
                                <img src=""images/gray_26.png"" style= ""width:200px""alt=""img"">
                            </div>
                        </div>","86","","0","images/gray_26.png","","","","disturbing"
"","","","","","html-slider-response","40","173828","0.0-36.0","c56jzdgmaj","NaN","<div style=""width:500px;"">
                            <p style=""font-size:50px; font-weight:bold;""
                            >disturbing</p>
                            <div style=""width:240px; margin: auto;"">
                                <img src=""images/gray_32.png"" style= ""width:200px""alt=""img"">
                            </div>
                        </div>","-100","","0","images/gray_32.png","","","","disturbing"
"","","","","","html-slider-response","41","175686","0.0-37.0","c56jzdgmaj","NaN","<div style=""width:500px;"">
                            <p style=""font-size:50px; font-weight:bold;""
                            >disturbing</p>
                            <div style=""width:240px; margin: auto;"">
                                <img src=""images/gray_42.png"" style= ""width:200px""alt=""img"">
                            </div>
                        </div>","-62","","0","images/gray_42.png","","","","disturbing"
"","","","","","html-slider-response","42","177761","0.0-38.0","c56jzdgmaj","NaN","<div style=""width:500px;"">
                            <p style=""font-size:50px; font-weight:bold;""
                            >disturbing</p>
                            <div style=""width:240px; margin: auto;"">
                                <img src=""images/gray_16.png"" style= ""width:200px""alt=""img"">
                            </div>
                        </div>","-80","","0","images/gray_16.png","","","","disturbing"
"","","","","","html-slider-response","43","179968","0.0-39.0","c56jzdgmaj","NaN","<div style=""width:500px;"">
                            <p style=""font-size:50px; font-weight:bold;""
                            >disturbing</p>
                            <div style=""width:240px; margin: auto;"">
                                <img src=""images/gray_22.png"" style= ""width:200px""alt=""img"">
                            </div>
                        </div>","-77","","0","images/gray_22.png","","","","disturbing"
"","","","","","html-slider-response","44","185425","0.0-40.0","c56jzdgmaj","NaN","<div style=""width:500px;"">
                            <p style=""font-size:50px; font-weight:bold;""
                            >disturbing</p>
                            <div style=""width:240px; margin: auto;"">
                                <img src=""images/gray_09.png"" style= ""width:200px""alt=""img"">
                            </div>
                        </div>","-79","","0","images/gray_09.png","","","","disturbing"
"","","","","","html-slider-response","45","188892","0.0-41.0","c56jzdgmaj","NaN","<div style=""width:500px;"">
                            <p style=""font-size:50px; font-weight:bold;""
                            >disturbing</p>
                            <div style=""width:240px; margin: auto;"">
                                <img src=""images/gray_11.png"" style= ""width:200px""alt=""img"">
                            </div>
                        </div>","44","","0","images/gray_11.png","","","","disturbing"
"","","","","","html-slider-response","46","191275","0.0-42.0","c56jzdgmaj","NaN","<div style=""width:500px;"">
                            <p style=""font-size:50px; font-weight:bold;""
                            >disturbing</p>
                            <div style=""width:240px; margin: auto;"">
                                <img src=""images/gray_07.png"" style= ""width:200px""alt=""img"">
                            </div>
                        </div>","-57","","0","images/gray_07.png","","","","disturbing"
"","","","","","html-slider-response","47","195515","0.0-43.0","c56jzdgmaj","NaN","<div style=""width:500px;"">
                            <p style=""font-size:50px; font-weight:bold;""
                            >disturbing</p>
                            <div style=""width:240px; margin: auto;"">
                                <img src=""images/gray_18.png"" style= ""width:200px""alt=""img"">
                            </div>
                        </div>","-61","","0","images/gray_18.png","","","","disturbing"
"","","","","","html-slider-response","48","197140","0.0-44.0","c56jzdgmaj","NaN","<div style=""width:500px;"">
                            <p style=""font-size:50px; font-weight:bold;""
                            >disturbing</p>
                            <div style=""width:240px; margin: auto;"">
                                <img src=""images/gray_06.png"" style= ""width:200px""alt=""img"">
                            </div>
                        </div>","-61","","0","images/gray_06.png","","","","disturbing"
"","","","","","html-slider-response","49","199461","0.0-45.0","c56jzdgmaj","NaN","<div style=""width:500px;"">
                            <p style=""font-size:50px; font-weight:bold;""
                            >disturbing</p>
                            <div style=""width:240px; margin: auto;"">
                                <img src=""images/gray_41.png"" style= ""width:200px""alt=""img"">
                            </div>
                        </div>","-61","","0","images/gray_41.png","","","","disturbing"
"","","","","","html-slider-response","50","201213","0.0-46.0","c56jzdgmaj","NaN","<div style=""width:500px;"">
                            <p style=""font-size:50px; font-weight:bold;""
                            >disturbing</p>
                            <div style=""width:240px; margin: auto;"">
                                <img src=""images/gray_43.png"" style= ""width:200px""alt=""img"">
                            </div>
                        </div>","-59","","0","images/gray_43.png","","","","disturbing"
"","","","","","html-slider-response","51","202710","0.0-47.0","c56jzdgmaj","NaN","<div style=""width:500px;"">
                            <p style=""font-size:50px; font-weight:bold;""
                            >disturbing</p>
                            <div style=""width:240px; margin: auto;"">
                                <img src=""images/gray_28.png"" style= ""width:200px""alt=""img"">
                            </div>
                        </div>","-66","","0","images/gray_28.png","","","","disturbing"
"","","","","","html-slider-response","52","204543","0.0-48.0","c56jzdgmaj","NaN","<div style=""width:500px;"">
                            <p style=""font-size:50px; font-weight:bold;""
                            >disturbing</p>
                            <div style=""width:240px; margin: auto;"">
                                <img src=""images/gray_13.png"" style= ""width:200px""alt=""img"">
                            </div>
                        </div>","-94","","0","images/gray_13.png","","","","disturbing"
"","","","","","html-slider-response","53","209676","0.0-49.0","c56jzdgmaj","NaN","<div style=""width:500px;"">
                            <p style=""font-size:50px; font-weight:bold;""
                            >disturbing</p>
                            <div style=""width:240px; margin: auto;"">
                                <img src=""images/gray_34.png"" style= ""width:200px""alt=""img"">
                            </div>
                        </div>","-95","","0","images/gray_34.png","","","","disturbing"
"","","","","","html-slider-response","54","211423","0.0-50.0","c56jzdgmaj","NaN","<div style=""width:500px;"">
                            <p style=""font-size:50px; font-weight:bold;""
                            >disturbing</p>
                            <div style=""width:240px; margin: auto;"">
                                <img src=""images/gray_17.png"" style= ""width:200px""alt=""img"">
                            </div>
                        </div>","-100","","0","images/gray_17.png","","","","disturbing"
"","","","","","html-slider-response","55","218873","0.0-51.0","c56jzdgmaj","NaN","<div style=""width:500px;"">
                            <p style=""font-size:50px; font-weight:bold;""
                            >disturbing</p>
                            <div style=""width:240px; margin: auto;"">
                                <img src=""images/gray_15.png"" style= ""width:200px""alt=""img"">
                            </div>
                        </div>","-106","","0","images/gray_15.png","","","","disturbing"
"","","","","","html-slider-response","56","220808","0.0-52.0","c56jzdgmaj","NaN","<div style=""width:500px;"">
                            <p style=""font-size:50px; font-weight:bold;""
                            >disturbing</p>
                            <div style=""width:240px; margin: auto;"">
                                <img src=""images/gray_12.png"" style= ""width:200px""alt=""img"">
                            </div>
                        </div>","-96","","0","images/gray_12.png","","","","disturbing"
"","","","","","html-slider-response","57","222792","0.0-53.0","c56jzdgmaj","NaN","<div style=""width:500px;"">
                            <p style=""font-size:50px; font-weight:bold;""
                            >disturbing</p>
                            <div style=""width:240px; margin: auto;"">
                                <img src=""images/gray_29.png"" style= ""width:200px""alt=""img"">
                            </div>
                        </div>","70","","0","images/gray_29.png","","","","disturbing"
"","","","","","html-slider-response","58","224078","0.0-54.0","c56jzdgmaj","NaN","<div style=""width:500px;"">
                            <p style=""font-size:50px; font-weight:bold;""
                            >disturbing</p>
                            <div style=""width:240px; margin: auto;"">
                                <img src=""images/gray_33.png"" style= ""width:200px""alt=""img"">
                            </div>
                        </div>","66","","0","images/gray_33.png","","","","disturbing"
"","","","","","html-slider-response","59","226502","0.0-55.0","c56jzdgmaj","NaN","<div style=""width:500px;"">
                            <p style=""font-size:50px; font-weight:bold;""
                            >disturbing</p>
                            <div style=""width:240px; margin: auto;"">
                                <img src=""images/gray_08.png"" style= ""width:200px""alt=""img"">
                            </div>
                        </div>","-51","","0","images/gray_08.png","","","","disturbing"
"","","","","","html-slider-response","60","227824","0.0-56.0","c56jzdgmaj","NaN","<div style=""width:500px;"">
                            <p style=""font-size:50px; font-weight:bold;""
                            >disturbing</p>
                            <div style=""width:240px; margin: auto;"">
                                <img src=""images/gray_19.png"" style= ""width:200px""alt=""img"">
                            </div>
                        </div>","-80","","0","images/gray_19.png","","","","disturbing"
"","","","","","html-slider-response","61","229699","0.0-57.0","c56jzdgmaj","NaN","<div style=""width:500px;"">
                            <p style=""font-size:50px; font-weight:bold;""
                            >disturbing</p>
                            <div style=""width:240px; margin: auto;"">
                                <img src=""images/gray_20.png"" style= ""width:200px""alt=""img"">
                            </div>
                        </div>","-71","","0","images/gray_20.png","","","","disturbing"
"","","","","","html-button-response","62","231997","0.0-58.0","c56jzdgmaj","1793","<p>Great Job! You've finished block 1.<br></br> You have 7 block(s) left to go.<br></br></p>","0","","","","","","",""
"","","","","","html-button-response","63","233086","0.0-59.0","c56jzdgmaj","1089","<p>In this block of trials, you will be asked to rate how much you associate each map with:</p > <p style = 'font-size:150%; font-weight: bold'>playful</p><br></br>","0","","","","","","",""
"","","","","","html-slider-response","64","235839","0.0-60.0","c56jzdgmaj","NaN","<div style=""width:500px;"">
                            <p style=""font-size:50px; font-weight:bold;""
                            >playful</p>
                            <div style=""width:240px; margin: auto;"">
                                <img src=""images/gray_13.png"" style= ""width:200px""alt=""img"">
                            </div>
                        </div>","-82","","0","images/gray_13.png","","","","playful"
"","","","","","html-slider-response","65","238832","0.0-61.0","c56jzdgmaj","NaN","<div style=""width:500px;"">
                            <p style=""font-size:50px; font-weight:bold;""
                            >playful</p>
                            <div style=""width:240px; margin: auto;"">
                                <img src=""images/gray_27.png"" style= ""width:200px""alt=""img"">
                            </div>
                        </div>","-93","","0","images/gray_27.png","","","","playful"
"","","","","","html-slider-response","66","240945","0.0-62.0","c56jzdgmaj","NaN","<div style=""width:500px;"">
                            <p style=""font-size:50px; font-weight:bold;""
                            >playful</p>
                            <div style=""width:240px; margin: auto;"">
                                <img src=""images/gray_44.png"" style= ""width:200px""alt=""img"">
                            </div>
                        </div>","-62","","0","images/gray_44.png","","","","playful"
"","","","","","html-slider-response","67","242424","0.0-63.0","c56jzdgmaj","NaN","<div style=""width:500px;"">
                            <p style=""font-size:50px; font-weight:bold;""
                            >playful</p>
                            <div style=""width:240px; margin: auto;"">
                                <img src=""images/gray_19.png"" style= ""width:200px""alt=""img"">
                            </div>
                        </div>","-80","","0","images/gray_19.png","","","","playful"
"","","","","","html-slider-response","68","243663","0.0-64.0","c56jzdgmaj","NaN","<div style=""width:500px;"">
                            <p style=""font-size:50px; font-weight:bold;""
                            >playful</p>
                            <div style=""width:240px; margin: auto;"">
                                <img src=""images/gray_24.png"" style= ""width:200px""alt=""img"">
                            </div>
                        </div>","-86","","0","images/gray_24.png","","","","playful"
"","","","","","html-slider-response","69","245024","0.0-65.0","c56jzdgmaj","NaN","<div style=""width:500px;"">
                            <p style=""font-size:50px; font-weight:bold;""
                            >playful</p>
                            <div style=""width:240px; margin: auto;"">
                                <img src=""images/gray_30.png"" style= ""width:200px""alt=""img"">
                            </div>
                        </div>","-113","","0","images/gray_30.png","","","","playful"
"","","","","","html-slider-response","70","246242","0.0-66.0","c56jzdgmaj","NaN","<div style=""width:500px;"">
                            <p style=""font-size:50px; font-weight:bold;""
                            >playful</p>
                            <div style=""width:240px; margin: auto;"">
                                <img src=""images/gray_29.png"" style= ""width:200px""alt=""img"">
                            </div>
                        </div>","-134","","0","images/gray_29.png","","","","playful"
"","","","","","html-slider-response","71","247809","0.0-67.0","c56jzdgmaj","NaN","<div style=""width:500px;"">
                            <p style=""font-size:50px; font-weight:bold;""
                            >playful</p>
                            <div style=""width:240px; margin: auto;"">
                                <img src=""images/gray_08.png"" style= ""width:200px""alt=""img"">
                            </div>
                        </div>","-128","","0","images/gray_08.png","","","","playful"
"","","","","","html-slider-response","72","249075","0.0-68.0","c56jzdgmaj","NaN","<div style=""width:500px;"">
                            <p style=""font-size:50px; font-weight:bold;""
                            >playful</p>
                            <div style=""width:240px; margin: auto;"">
                                <img src=""images/gray_01.png"" style= ""width:200px""alt=""img"">
                            </div>
                        </div>","-128","","0","images/gray_01.png","","","","playful"
"","","","","","html-slider-response","73","250126","0.0-69.0","c56jzdgmaj","NaN","<div style=""width:500px;"">
                            <p style=""font-size:50px; font-weight:bold;""
                            >playful</p>
                            <div style=""width:240px; margin: auto;"">
                                <img src=""images/gray_06.png"" style= ""width:200px""alt=""img"">
                            </div>
                        </div>","-128","","0","images/gray_06.png","","","","playful"
"","","","","","html-slider-response","74","251492","0.0-70.0","c56jzdgmaj","NaN","<div style=""width:500px;"">
                            <p style=""font-size:50px; font-weight:bold;""
                            >playful</p>
                            <div style=""width:240px; margin: auto;"">
                                <img src=""images/gray_17.png"" style= ""width:200px""alt=""img"">
                            </div>
                        </div>","-67","","0","images/gray_17.png","","","","playful"
"","","","","","html-slider-response","75","252645","0.0-71.0","c56jzdgmaj","NaN","<div style=""width:500px;"">
                            <p style=""font-size:50px; font-weight:bold;""
                            >playful</p>
                            <div style=""width:240px; margin: auto;"">
                                <img src=""images/gray_02.png"" style= ""width:200px""alt=""img"">
                            </div>
                        </div>","-95","","0","images/gray_02.png","","","","playful"
"","","","","","html-slider-response","76","254202","0.0-72.0","c56jzdgmaj","NaN","<div style=""width:500px;"">
                            <p style=""font-size:50px; font-weight:bold;""
                            >playful</p>
                            <div style=""width:240px; margin: auto;"">
                                <img src=""images/gray_07.png"" style= ""width:200px""alt=""img"">
                            </div>
                        </div>","-117","","0","images/gray_07.png","","","","playful"
"","","","","","html-slider-response","77","255705","0.0-73.0","c56jzdgmaj","NaN","<div style=""width:500px;"">
                            <p style=""font-size:50px; font-weight:bold;""
                            >playful</p>
                            <div style=""width:240px; margin: auto;"">
                                <img src=""images/gray_28.png"" style= ""width:200px""alt=""img"">
                            </div>
                        </div>","-101","","0","images/gray_28.png","","","","playful"
"","","","","","html-slider-response","78","257300","0.0-74.0","c56jzdgmaj","NaN","<div style=""width:500px;"">
                            <p style=""font-size:50px; font-weight:bold;""
                            >playful</p>
                            <div style=""width:240px; margin: auto;"">
                                <img src=""images/gray_04.png"" style= ""width:200px""alt=""img"">
                            </div>
                        </div>","-51","","0","images/gray_04.png","","","","playful"
"","","","","","html-slider-response","79","261029","0.0-75.0","c56jzdgmaj","NaN","<div style=""width:500px;"">
                            <p style=""font-size:50px; font-weight:bold;""
                            >playful</p>
                            <div style=""width:240px; margin: auto;"">
                                <img src=""images/gray_31.png"" style= ""width:200px""alt=""img"">
                            </div>
                        </div>","-51","","0","images/gray_31.png","","","","playful"
"","","","","","html-slider-response","80","262781","0.0-76.0","c56jzdgmaj","NaN","<div style=""width:500px;"">
                            <p style=""font-size:50px; font-weight:bold;""
                            >playful</p>
                            <div style=""width:240px; margin: auto;"">
                                <img src=""images/gray_35.png"" style= ""width:200px""alt=""img"">
                            </div>
                        </div>","-82","","0","images/gray_35.png","","","","playful"
"","","","","","html-slider-response","81","265917","0.0-77.0","c56jzdgmaj","NaN","<div style=""width:500px;"">
                            <p style=""font-size:50px; font-weight:bold;""
                            >playful</p>
                            <div style=""width:240px; margin: auto;"">
                                <img src=""images/gray_14.png"" style= ""width:200px""alt=""img"">
                            </div>
                        </div>","-82","","0","images/gray_14.png","","","","playful"
"","","","","","html-slider-response","82","269054","0.0-78.0","c56jzdgmaj","NaN","<div style=""width:500px;"">
                            <p style=""font-size:50px; font-weight:bold;""
                            >playful</p>
                            <div style=""width:240px; margin: auto;"">
                                <img src=""images/gray_23.png"" style= ""width:200px""alt=""img"">
                            </div>
                        </div>","-24","","0","images/gray_23.png","","","","playful"
"","","","","","html-slider-response","83","271694","0.0-79.0","c56jzdgmaj","NaN","<div style=""width:500px;"">
                            <p style=""font-size:50px; font-weight:bold;""
                            >playful</p>
                            <div style=""width:240px; margin: auto;"">
                                <img src=""images/gray_03.png"" style= ""width:200px""alt=""img"">
                            </div>
                        </div>","-54","","0","images/gray_03.png","","","","playful"
"","","","","","html-slider-response","84","276194","0.0-80.0","c56jzdgmaj","NaN","<div style=""width:500px;"">
                            <p style=""font-size:50px; font-weight:bold;""
                            >playful</p>
                            <div style=""width:240px; margin: auto;"">
                                <img src=""images/gray_34.png"" style= ""width:200px""alt=""img"">
                            </div>
                        </div>","-80","","0","images/gray_34.png","","","","playful"
"","","","","","html-slider-response","85","280240","0.0-81.0","c56jzdgmaj","NaN","<div style=""width:500px;"">
                            <p style=""font-size:50px; font-weight:bold;""
                            >playful</p>
                            <div style=""width:240px; margin: auto;"">
                                <img src=""images/gray_21.png"" style= ""width:200px""alt=""img"">
                            </div>
                        </div>","62","","0","images/gray_21.png","","","","playful"
"","","","","","html-slider-response","86","282214","0.0-82.0","c56jzdgmaj","NaN","<div style=""width:500px;"">
                            <p style=""font-size:50px; font-weight:bold;""
                            >playful</p>
                            <div style=""width:240px; margin: auto;"">
                                <img src=""images/gray_16.png"" style= ""width:200px""alt=""img"">
                            </div>
                        </div>","42","","0","images/gray_16.png","","","","playful"
"","","","","","html-slider-response","87","283624","0.0-83.0","c56jzdgmaj","NaN","<div style=""width:500px;"">
                            <p style=""font-size:50px; font-weight:bold;""
                            >playful</p>
                            <div style=""width:240px; margin: auto;"">
                                <img src=""images/gray_40.png"" style= ""width:200px""alt=""img"">
                            </div>
                        </div>","-53","","0","images/gray_40.png","","","","playful"
"","","","","","html-slider-response","88","284863","0.0-84.0","c56jzdgmaj","NaN","<div style=""width:500px;"">
                            <p style=""font-size:50px; font-weight:bold;""
                            >playful</p>
                            <div style=""width:240px; margin: auto;"">
                                <img src=""images/gray_20.png"" style= ""width:200px""alt=""img"">
                            </div>
                        </div>","-86","","0","images/gray_20.png","","","","playful"
"","","","","","html-slider-response","89","287349","0.0-85.0","c56jzdgmaj","NaN","<div style=""width:500px;"">
                            <p style=""font-size:50px; font-weight:bold;""
                            >playful</p>
                            <div style=""width:240px; margin: auto;"">
                                <img src=""images/gray_33.png"" style= ""width:200px""alt=""img"">
                            </div>
                        </div>","34","","0","images/gray_33.png","","","","playful"
"","","","","","html-slider-response","90","288794","0.0-86.0","c56jzdgmaj","NaN","<div style=""width:500px;"">
                            <p style=""font-size:50px; font-weight:bold;""
                            >playful</p>
                            <div style=""width:240px; margin: auto;"">
                                <img src=""images/gray_32.png"" style= ""width:200px""alt=""img"">
                            </div>
                        </div>","-38","","0","images/gray_32.png","","","","playful"
"","","","","","html-slider-response","91","290107","0.0-87.0","c56jzdgmaj","NaN","<div style=""width:500px;"">
                            <p style=""font-size:50px; font-weight:bold;""
                            >playful</p>
                            <div style=""width:240px; margin: auto;"">
                                <img src=""images/gray_43.png"" style= ""width:200px""alt=""img"">
                            </div>
                        </div>","-78","","0","images/gray_43.png","","","","playful"
"","","","","","html-slider-response","92","291709","0.0-88.0","c56jzdgmaj","NaN","<div style=""width:500px;"">
                            <p style=""font-size:50px; font-weight:bold;""
                            >playful</p>
                            <div style=""width:240px; margin: auto;"">
                                <img src=""images/gray_37.png"" style= ""width:200px""alt=""img"">
                            </div>
                        </div>","-67","","0","images/gray_37.png","","","","playful"
"","","","","","html-slider-response","93","293234","0.0-89.0","c56jzdgmaj","NaN","<div style=""width:500px;"">
                            <p style=""font-size:50px; font-weight:bold;""
                            >playful</p>
                            <div style=""width:240px; margin: auto;"">
                                <img src=""images/gray_05.png"" style= ""width:200px""alt=""img"">
                            </div>
                        </div>","-72","","0","images/gray_05.png","","","","playful"
"","","","","","html-slider-response","94","295072","0.0-90.0","c56jzdgmaj","NaN","<div style=""width:500px;"">
                            <p style=""font-size:50px; font-weight:bold;""
                            >playful</p>
                            <div style=""width:240px; margin: auto;"">
                                <img src=""images/gray_22.png"" style= ""width:200px""alt=""img"">
                            </div>
                        </div>","-66","","0","images/gray_22.png","","","","playful"
"","","","","","html-slider-response","95","297093","0.0-91.0","c56jzdgmaj","NaN","<div style=""width:500px;"">
                            <p style=""font-size:50px; font-weight:bold;""
                            >playful</p>
                            <div style=""width:240px; margin: auto;"">
                                <img src=""images/gray_36.png"" style= ""width:200px""alt=""img"">
                            </div>
                        </div>","37","","0","images/gray_36.png","","","","playful"
"","","","","","html-slider-response","96","298390","0.0-92.0","c56jzdgmaj","NaN","<div style=""width:500px;"">
                            <p style=""font-size:50px; font-weight:bold;""
                            >playful</p>
                            <div style=""width:240px; margin: auto;"">
                                <img src=""images/gray_39.png"" style= ""width:200px""alt=""img"">
                            </div>
                        </div>","-69","","0","images/gray_39.png","","","","playful"
"","","","","","html-slider-response","97","299641","0.0-93.0","c56jzdgmaj","NaN","<div style=""width:500px;"">
                            <p style=""font-size:50px; font-weight:bold;""
                            >playful</p>
                            <div style=""width:240px; margin: auto;"">
                                <img src=""images/gray_26.png"" style= ""width:200px""alt=""img"">
                            </div>
                        </div>","-86","","0","images/gray_26.png","","","","playful"
"","","","","","html-slider-response","98","300737","0.0-94.0","c56jzdgmaj","NaN","<div style=""width:500px;"">
                            <p style=""font-size:50px; font-weight:bold;""
                            >playful</p>
                            <div style=""width:240px; margin: auto;"">
                                <img src=""images/gray_41.png"" style= ""width:200px""alt=""img"">
                            </div>
                        </div>","-116","","0","images/gray_41.png","","","","playful"
"","","","","","html-slider-response","99","302067","0.0-95.0","c56jzdgmaj","NaN","<div style=""width:500px;"">
                            <p style=""font-size:50px; font-weight:bold;""
                            >playful</p>
                            <div style=""width:240px; margin: auto;"">
                                <img src=""images/gray_12.png"" style= ""width:200px""alt=""img"">
                            </div>
                        </div>","-86","","0","images/gray_12.png","","","","playful"
"","","","","","html-slider-response","100","304003","0.0-96.0","c56jzdgmaj","NaN","<div style=""width:500px;"">
                            <p style=""font-size:50px; font-weight:bold;""
                            >playful</p>
                            <div style=""width:240px; margin: auto;"">
                                <img src=""images/gray_15.png"" style= ""width:200px""alt=""img"">
                            </div>
                        </div>","-63","","0","images/gray_15.png","","","","playful"
"","","","","","html-slider-response","101","305417","0.0-97.0","c56jzdgmaj","NaN","<div style=""width:500px;"">
                            <p style=""font-size:50px; font-weight:bold;""
                            >playful</p>
                            <div style=""width:240px; margin: auto;"">
                                <img src=""images/gray_42.png"" style= ""width:200px""alt=""img"">
                            </div>
                        </div>","-98","","0","images/gray_42.png","","","","playful"
"","","","","","html-slider-response","102","307474","0.0-98.0","c56jzdgmaj","NaN","<div style=""width:500px;"">
                            <p style=""font-size:50px; font-weight:bold;""
                            >playful</p>
                            <div style=""width:240px; margin: auto;"">
                                <img src=""images/gray_11.png"" style= ""width:200px""alt=""img"">
                            </div>
                        </div>","46","","0","images/gray_11.png","","","","playful"
"","","","","","html-slider-response","103","308801","0.0-99.0","c56jzdgmaj","NaN","<div style=""width:500px;"">
                            <p style=""font-size:50px; font-weight:bold;""
                            >playful</p>
                            <div style=""width:240px; margin: auto;"">
                                <img src=""images/gray_10.png"" style= ""width:200px""alt=""img"">
                            </div>
                        </div>","-98","","0","images/gray_10.png","","","","playful"
"","","","","","html-slider-response","104","309977","0.0-100.0","c56jzdgmaj","NaN","<div style=""width:500px;"">
                            <p style=""font-size:50px; font-weight:bold;""
                            >playful</p>
                            <div style=""width:240px; margin: auto;"">
                                <img src=""images/gray_09.png"" style= ""width:200px""alt=""img"">
                            </div>
                        </div>","-116","","0","images/gray_09.png","","","","playful"
"","","","","","html-slider-response","105","311187","0.0-101.0","c56jzdgmaj","NaN","<div style=""width:500px;"">
                            <p style=""font-size:50px; font-weight:bold;""
                            >playful</p>
                            <div style=""width:240px; margin: auto;"">
                                <img src=""images/gray_25.png"" style= ""width:200px""alt=""img"">
                            </div>
                        </div>","-152","","0","images/gray_25.png","","","","playful"
"","","","","","html-slider-response","106","312385","0.0-102.0","c56jzdgmaj","NaN","<div style=""width:500px;"">
                            <p style=""font-size:50px; font-weight:bold;""
                            >playful</p>
                            <div style=""width:240px; margin: auto;"">
                                <img src=""images/gray_18.png"" style= ""width:200px""alt=""img"">
                            </div>
                        </div>","-59","","0","images/gray_18.png","","","","playful"
"","","","","","html-slider-response","107","313554","0.0-103.0","c56jzdgmaj","NaN","<div style=""width:500px;"">
                            <p style=""font-size:50px; font-weight:bold;""
                            >playful</p>
                            <div style=""width:240px; margin: auto;"">
                                <img src=""images/gray_38.png"" style= ""width:200px""alt=""img"">
                            </div>
                        </div>","-131","","0","images/gray_38.png","","","","playful"
"","","","","","html-button-response","108","315455","0.0-104.0","c56jzdgmaj","1398","<p>Great Job! You've finished block 2.<br></br> You have 6 block(s) left to go.<br></br></p>","0","","","","","","",""
"","","","","","html-button-response","109","316547","0.0-105.0","c56jzdgmaj","1091","<p>In this block of trials, you will be asked to rate how much you associate each map with:</p > <p style = 'font-size:150%; font-weight: bold'>positive</p><br></br>","0","","","","","","",""
"","","","","","html-slider-response","110","318709","0.0-106.0","c56jzdgmaj","NaN","<div style=""width:500px;"">
                            <p style=""font-size:50px; font-weight:bold;""
                            >positive</p>
                            <div style=""width:240px; margin: auto;"">
                                <img src=""images/gray_11.png"" style= ""width:200px""alt=""img"">
                            </div>
                        </div>","-75","","0","images/gray_11.png","","","","positive"
"","","","","","html-slider-response","111","320101","0.0-107.0","c56jzdgmaj","NaN","<div style=""width:500px;"">
                            <p style=""font-size:50px; font-weight:bold;""
                            >positive</p>
                            <div style=""width:240px; margin: auto;"">
                                <img src=""images/gray_33.png"" style= ""width:200px""alt=""img"">
                            </div>
                        </div>","-75","","0","images/gray_33.png","","","","positive"
"","","","","","html-slider-response","112","321129","0.0-108.0","c56jzdgmaj","NaN","<div style=""width:500px;"">
                            <p style=""font-size:50px; font-weight:bold;""
                            >positive</p>
                            <div style=""width:240px; margin: auto;"">
                                <img src=""images/gray_38.png"" style= ""width:200px""alt=""img"">
                            </div>
                        </div>","-75","","0","images/gray_38.png","","","","positive"
"","","","","","html-slider-response","113","322126","0.0-109.0","c56jzdgmaj","NaN","<div style=""width:500px;"">
                            <p style=""font-size:50px; font-weight:bold;""
                            >positive</p>
                            <div style=""width:240px; margin: auto;"">
                                <img src=""images/gray_31.png"" style= ""width:200px""alt=""img"">
                            </div>
                        </div>","-75","","0","images/gray_31.png","","","","positive"
"","","","","","html-slider-response","114","323022","0.0-110.0","c56jzdgmaj","NaN","<div style=""width:500px;"">
                            <p style=""font-size:50px; font-weight:bold;""
                            >positive</p>
                            <div style=""width:240px; margin: auto;"">
                                <img src=""images/gray_27.png"" style= ""width:200px""alt=""img"">
                            </div>
                        </div>","-75","","0","images/gray_27.png","","","","positive"
"","","","","","html-slider-response","115","324244","0.0-111.0","c56jzdgmaj","NaN","<div style=""width:500px;"">
                            <p style=""font-size:50px; font-weight:bold;""
                            >positive</p>
                            <div style=""width:240px; margin: auto;"">
                                <img src=""images/gray_39.png"" style= ""width:200px""alt=""img"">
                            </div>
                        </div>","-102","","0","images/gray_39.png","","","","positive"
"","","","","","html-slider-response","116","325161","0.0-112.0","c56jzdgmaj","NaN","<div style=""width:500px;"">
                            <p style=""font-size:50px; font-weight:bold;""
                            >positive</p>
                            <div style=""width:240px; margin: auto;"">
                                <img src=""images/gray_08.png"" style= ""width:200px""alt=""img"">
                            </div>
                        </div>","-102","","0","images/gray_08.png","","","","positive"
"","","","","","html-slider-response","117","326149","0.0-113.0","c56jzdgmaj","NaN","<div style=""width:500px;"">
                            <p style=""font-size:50px; font-weight:bold;""
                            >positive</p>
                            <div style=""width:240px; margin: auto;"">
                                <img src=""images/gray_43.png"" style= ""width:200px""alt=""img"">
                            </div>
                        </div>","-40","","0","images/gray_43.png","","","","positive"
"","","","","","html-slider-response","118","327111","0.0-114.0","c56jzdgmaj","NaN","<div style=""width:500px;"">
                            <p style=""font-size:50px; font-weight:bold;""
                            >positive</p>
                            <div style=""width:240px; margin: auto;"">
                                <img src=""images/gray_12.png"" style= ""width:200px""alt=""img"">
                            </div>
                        </div>","-67","","0","images/gray_12.png","","","","positive"
"","","","","","html-slider-response","119","328075","0.0-115.0","c56jzdgmaj","NaN","<div style=""width:500px;"">
                            <p style=""font-size:50px; font-weight:bold;""
                            >positive</p>
                            <div style=""width:240px; margin: auto;"">
                                <img src=""images/gray_36.png"" style= ""width:200px""alt=""img"">
                            </div>
                        </div>","-104","","0","images/gray_36.png","","","","positive"
"","","","","","html-slider-response","120","329079","0.0-116.0","c56jzdgmaj","NaN","<div style=""width:500px;"">
                            <p style=""font-size:50px; font-weight:bold;""
                            >positive</p>
                            <div style=""width:240px; margin: auto;"">
                                <img src=""images/gray_22.png"" style= ""width:200px""alt=""img"">
                            </div>
                        </div>","-139","","0","images/gray_22.png","","","","positive"
"","","","","","html-slider-response","121","330048","0.0-117.0","c56jzdgmaj","NaN","<div style=""width:500px;"">
                            <p style=""font-size:50px; font-weight:bold;""
                            >positive</p>
                            <div style=""width:240px; margin: auto;"">
                                <img src=""images/gray_34.png"" style= ""width:200px""alt=""img"">
                            </div>
                        </div>","-78","","0","images/gray_34.png","","","","positive"
"","","","","","html-slider-response","122","331150","0.0-118.0","c56jzdgmaj","NaN","<div style=""width:500px;"">
                            <p style=""font-size:50px; font-weight:bold;""
                            >positive</p>
                            <div style=""width:240px; margin: auto;"">
                                <img src=""images/gray_40.png"" style= ""width:200px""alt=""img"">
                            </div>
                        </div>","-145","","0","images/gray_40.png","","","","positive"
"","","","","","html-slider-response","123","332153","0.0-119.0","c56jzdgmaj","NaN","<div style=""width:500px;"">
                            <p style=""font-size:50px; font-weight:bold;""
                            >positive</p>
                            <div style=""width:240px; margin: auto;"">
                                <img src=""images/gray_03.png"" style= ""width:200px""alt=""img"">
                            </div>
                        </div>","-122","","0","images/gray_03.png","","","","positive"
"","","","","","html-slider-response","124","333174","0.0-120.0","c56jzdgmaj","NaN","<div style=""width:500px;"">
                            <p style=""font-size:50px; font-weight:bold;""
                            >positive</p>
                            <div style=""width:240px; margin: auto;"">
                                <img src=""images/gray_17.png"" style= ""width:200px""alt=""img"">
                            </div>
                        </div>","-104","","0","images/gray_17.png","","","","positive"
"","","","","","html-slider-response","125","334178","0.0-121.0","c56jzdgmaj","NaN","<div style=""width:500px;"">
                            <p style=""font-size:50px; font-weight:bold;""
                            >positive</p>
                            <div style=""width:240px; margin: auto;"">
                                <img src=""images/gray_14.png"" style= ""width:200px""alt=""img"">
                            </div>
                        </div>","-117","","0","images/gray_14.png","","","","positive"
"","","","","","html-slider-response","126","335189","0.0-122.0","c56jzdgmaj","NaN","<div style=""width:500px;"">
                            <p style=""font-size:50px; font-weight:bold;""
                            >positive</p>
                            <div style=""width:240px; margin: auto;"">
                                <img src=""images/gray_37.png"" style= ""width:200px""alt=""img"">
                            </div>
                        </div>","-40","","0","images/gray_37.png","","","","positive"
"","","","","","html-slider-response","127","336233","0.0-123.0","c56jzdgmaj","NaN","<div style=""width:500px;"">
                            <p style=""font-size:50px; font-weight:bold;""
                            >positive</p>
                            <div style=""width:240px; margin: auto;"">
                                <img src=""images/gray_24.png"" style= ""width:200px""alt=""img"">
                            </div>
                        </div>","-99","","0","images/gray_24.png","","","","positive"
"","","","","","html-slider-response","128","337529","0.0-124.0","c56jzdgmaj","NaN","<div style=""width:500px;"">
                            <p style=""font-size:50px; font-weight:bold;""
                            >positive</p>
                            <div style=""width:240px; margin: auto;"">
                                <img src=""images/gray_30.png"" style= ""width:200px""alt=""img"">
                            </div>
                        </div>","-156","","0","images/gray_30.png","","","","positive"
"","","","","","html-slider-response","129","338662","0.0-125.0","c56jzdgmaj","NaN","<div style=""width:500px;"">
                            <p style=""font-size:50px; font-weight:bold;""
                            >positive</p>
                            <div style=""width:240px; margin: auto;"">
                                <img src=""images/gray_07.png"" style= ""width:200px""alt=""img"">
                            </div>
                        </div>","-112","","0","images/gray_07.png","","","","positive"
"","","","","","html-slider-response","130","339578","0.0-126.0","c56jzdgmaj","NaN","<div style=""width:500px;"">
                            <p style=""font-size:50px; font-weight:bold;""
                            >positive</p>
                            <div style=""width:240px; margin: auto;"">
                                <img src=""images/gray_09.png"" style= ""width:200px""alt=""img"">
                            </div>
                        </div>","-137","","0","images/gray_09.png","","","","positive"
"","","","","","html-slider-response","131","340528","0.0-127.0","c56jzdgmaj","NaN","<div style=""width:500px;"">
                            <p style=""font-size:50px; font-weight:bold;""
                            >positive</p>
                            <div style=""width:240px; margin: auto;"">
                                <img src=""images/gray_25.png"" style= ""width:200px""alt=""img"">
                            </div>
                        </div>","-143","","0","images/gray_25.png","","","","positive"
"","","","","","html-slider-response","132","341546","0.0-128.0","c56jzdgmaj","NaN","<div style=""width:500px;"">
                            <p style=""font-size:50px; font-weight:bold;""
                            >positive</p>
                            <div style=""width:240px; margin: auto;"">
                                <img src=""images/gray_35.png"" style= ""width:200px""alt=""img"">
                            </div>
                        </div>","-161","","0","images/gray_35.png","","","","positive"
"","","","","","html-slider-response","133","342684","0.0-129.0","c56jzdgmaj","NaN","<div style=""width:500px;"">
                            <p style=""font-size:50px; font-weight:bold;""
                            >positive</p>
                            <div style=""width:240px; margin: auto;"">
                                <img src=""images/gray_05.png"" style= ""width:200px""alt=""img"">
                            </div>
                        </div>","-140","","0","images/gray_05.png","","","","positive"
"","","","","","html-slider-response","134","343623","0.0-130.0","c56jzdgmaj","NaN","<div style=""width:500px;"">
                            <p style=""font-size:50px; font-weight:bold;""
                            >positive</p>
                            <div style=""width:240px; margin: auto;"">
                                <img src=""images/gray_26.png"" style= ""width:200px""alt=""img"">
                            </div>
                        </div>","-96","","0","images/gray_26.png","","","","positive"
"","","","","","html-slider-response","135","344573","0.0-131.0","c56jzdgmaj","NaN","<div style=""width:500px;"">
                            <p style=""font-size:50px; font-weight:bold;""
                            >positive</p>
                            <div style=""width:240px; margin: auto;"">
                                <img src=""images/gray_42.png"" style= ""width:200px""alt=""img"">
                            </div>
                        </div>","-134","","0","images/gray_42.png","","","","positive"
"","","","","","html-slider-response","136","345586","0.0-132.0","c56jzdgmaj","NaN","<div style=""width:500px;"">
                            <p style=""font-size:50px; font-weight:bold;""
                            >positive</p>
                            <div style=""width:240px; margin: auto;"">
                                <img src=""images/gray_21.png"" style= ""width:200px""alt=""img"">
                            </div>
                        </div>","-158","","0","images/gray_21.png","","","","positive"
"","","","","","html-slider-response","137","346681","0.0-133.0","c56jzdgmaj","NaN","<div style=""width:500px;"">
                            <p style=""font-size:50px; font-weight:bold;""
                            >positive</p>
                            <div style=""width:240px; margin: auto;"">
                                <img src=""images/gray_19.png"" style= ""width:200px""alt=""img"">
                            </div>
                        </div>","-140","","0","images/gray_19.png","","","","positive"
"","","","","","html-slider-response","138","347629","0.0-134.0","c56jzdgmaj","NaN","<div style=""width:500px;"">
                            <p style=""font-size:50px; font-weight:bold;""
                            >positive</p>
                            <div style=""width:240px; margin: auto;"">
                                <img src=""images/gray_23.png"" style= ""width:200px""alt=""img"">
                            </div>
                        </div>","-62","","0","images/gray_23.png","","","","positive"
"","","","","","html-slider-response","139","348719","0.0-135.0","c56jzdgmaj","NaN","<div style=""width:500px;"">
                            <p style=""font-size:50px; font-weight:bold;""
                            >positive</p>
                            <div style=""width:240px; margin: auto;"">
                                <img src=""images/gray_02.png"" style= ""width:200px""alt=""img"">
                            </div>
                        </div>","-98","","0","images/gray_02.png","","","","positive"
"","","","","","html-slider-response","140","349928","0.0-136.0","c56jzdgmaj","NaN","<div style=""width:500px;"">
                            <p style=""font-size:50px; font-weight:bold;""
                            >positive</p>
                            <div style=""width:240px; margin: auto;"">
                                <img src=""images/gray_01.png"" style= ""width:200px""alt=""img"">
                            </div>
                        </div>","-110","","0","images/gray_01.png","","","","positive"
"","","","","","html-slider-response","141","351179","0.0-137.0","c56jzdgmaj","NaN","<div style=""width:500px;"">
                            <p style=""font-size:50px; font-weight:bold;""
                            >positive</p>
                            <div style=""width:240px; margin: auto;"">
                                <img src=""images/gray_16.png"" style= ""width:200px""alt=""img"">
                            </div>
                        </div>","-126","","0","images/gray_16.png","","","","positive"
"","","","","","html-slider-response","142","352276","0.0-138.0","c56jzdgmaj","NaN","<div style=""width:500px;"">
                            <p style=""font-size:50px; font-weight:bold;""
                            >positive</p>
                            <div style=""width:240px; margin: auto;"">
                                <img src=""images/gray_04.png"" style= ""width:200px""alt=""img"">
                            </div>
                        </div>","-134","","0","images/gray_04.png","","","","positive"
"","","","","","html-slider-response","143","353221","0.0-139.0","c56jzdgmaj","NaN","<div style=""width:500px;"">
                            <p style=""font-size:50px; font-weight:bold;""
                            >positive</p>
                            <div style=""width:240px; margin: auto;"">
                                <img src=""images/gray_29.png"" style= ""width:200px""alt=""img"">
                            </div>
                        </div>","-134","","0","images/gray_29.png","","","","positive"
"","","","","","html-slider-response","144","354407","0.0-140.0","c56jzdgmaj","NaN","<div style=""width:500px;"">
                            <p style=""font-size:50px; font-weight:bold;""
                            >positive</p>
                            <div style=""width:240px; margin: auto;"">
                                <img src=""images/gray_41.png"" style= ""width:200px""alt=""img"">
                            </div>
                        </div>","-162","","0","images/gray_41.png","","","","positive"
"","","","","","html-slider-response","145","355573","0.0-141.0","c56jzdgmaj","NaN","<div style=""width:500px;"">
                            <p style=""font-size:50px; font-weight:bold;""
                            >positive</p>
                            <div style=""width:240px; margin: auto;"">
                                <img src=""images/gray_28.png"" style= ""width:200px""alt=""img"">
                            </div>
                        </div>","-162","","0","images/gray_28.png","","","","positive"
"","","","","","html-slider-response","146","357211","0.0-142.0","c56jzdgmaj","NaN","<div style=""width:500px;"">
                            <p style=""font-size:50px; font-weight:bold;""
                            >positive</p>
                            <div style=""width:240px; margin: auto;"">
                                <img src=""images/gray_32.png"" style= ""width:200px""alt=""img"">
                            </div>
                        </div>","-99","","0","images/gray_32.png","","","","positive"
"","","","","","html-slider-response","147","358151","0.0-143.0","c56jzdgmaj","NaN","<div style=""width:500px;"">
                            <p style=""font-size:50px; font-weight:bold;""
                            >positive</p>
                            <div style=""width:240px; margin: auto;"">
                                <img src=""images/gray_13.png"" style= ""width:200px""alt=""img"">
                            </div>
                        </div>","-117","","0","images/gray_13.png","","","","positive"
"","","","","","html-slider-response","148","359389","0.0-144.0","c56jzdgmaj","NaN","<div style=""width:500px;"">
                            <p style=""font-size:50px; font-weight:bold;""
                            >positive</p>
                            <div style=""width:240px; margin: auto;"">
                                <img src=""images/gray_15.png"" style= ""width:200px""alt=""img"">
                            </div>
                        </div>","-158","","0","images/gray_15.png","","","","positive"
"","","","","","html-slider-response","149","361427","0.0-145.0","c56jzdgmaj","NaN","<div style=""width:500px;"">
                            <p style=""font-size:50px; font-weight:bold;""
                            >positive</p>
                            <div style=""width:240px; margin: auto;"">
                                <img src=""images/gray_06.png"" style= ""width:200px""alt=""img"">
                            </div>
                        </div>","-63","","0","images/gray_06.png","","","","positive"
"","","","","","html-slider-response","150","362468","0.0-146.0","c56jzdgmaj","NaN","<div style=""width:500px;"">
                            <p style=""font-size:50px; font-weight:bold;""
                            >positive</p>
                            <div style=""width:240px; margin: auto;"">
                                <img src=""images/gray_10.png"" style= ""width:200px""alt=""img"">
                            </div>
                        </div>","-107","","0","images/gray_10.png","","","","positive"
"","","","","","html-slider-response","151","363493","0.0-147.0","c56jzdgmaj","NaN","<div style=""width:500px;"">
                            <p style=""font-size:50px; font-weight:bold;""
                            >positive</p>
                            <div style=""width:240px; margin: auto;"">
                                <img src=""images/gray_18.png"" style= ""width:200px""alt=""img"">
                            </div>
                        </div>","-120","","0","images/gray_18.png","","","","positive"
"","","","","","html-slider-response","152","364696","0.0-148.0","c56jzdgmaj","NaN","<div style=""width:500px;"">
                            <p style=""font-size:50px; font-weight:bold;""
                            >positive</p>
                            <div style=""width:240px; margin: auto;"">
                                <img src=""images/gray_20.png"" style= ""width:200px""alt=""img"">
                            </div>
                        </div>","-157","","0","images/gray_20.png","","","","positive"
"","","","","","html-slider-response","153","365725","0.0-149.0","c56jzdgmaj","NaN","<div style=""width:500px;"">
                            <p style=""font-size:50px; font-weight:bold;""
                            >positive</p>
                            <div style=""width:240px; margin: auto;"">
                                <img src=""images/gray_44.png"" style= ""width:200px""alt=""img"">
                            </div>
                        </div>","-148","","0","images/gray_44.png","","","","positive"
"","","","","","html-button-response","154","367632","0.0-150.0","c56jzdgmaj","1404","<p>Great Job! You've finished block 3.<br></br> You have 5 block(s) left to go.<br></br></p>","0","","","","","","",""
"","","","","","html-button-response","155","368580","0.0-151.0","c56jzdgmaj","947","<p>In this block of trials, you will be asked to rate how much you associate each map with:</p > <p style = 'font-size:150%; font-weight: bold'>serious</p><br></br>","0","","","","","","",""
"","","","","","html-slider-response","156","369438","0.0-152.0","c56jzdgmaj","NaN","<div style=""width:500px;"">
                            <p style=""font-size:50px; font-weight:bold;""
                            >serious</p>
                            <div style=""width:240px; margin: auto;"">
                                <img src=""images/gray_29.png"" style= ""width:200px""alt=""img"">
                            </div>
                        </div>","78","","0","images/gray_29.png","","","","serious"
"","","","","","html-slider-response","157","370319","0.0-153.0","c56jzdgmaj","NaN","<div style=""width:500px;"">
                            <p style=""font-size:50px; font-weight:bold;""
                            >serious</p>
                            <div style=""width:240px; margin: auto;"">
                                <img src=""images/gray_01.png"" style= ""width:200px""alt=""img"">
                            </div>
                        </div>","71","","0","images/gray_01.png","","","","serious"
"","","","","","html-slider-response","158","371211","0.0-154.0","c56jzdgmaj","NaN","<div style=""width:500px;"">
                            <p style=""font-size:50px; font-weight:bold;""
                            >serious</p>
                            <div style=""width:240px; margin: auto;"">
                                <img src=""images/gray_36.png"" style= ""width:200px""alt=""img"">
                            </div>
                        </div>","112","","0","images/gray_36.png","","","","serious"
"","","","","","html-slider-response","159","372131","0.0-155.0","c56jzdgmaj","NaN","<div style=""width:500px;"">
                            <p style=""font-size:50px; font-weight:bold;""
                            >serious</p>
                            <div style=""width:240px; margin: auto;"">
                                <img src=""images/gray_17.png"" style= ""width:200px""alt=""img"">
                            </div>
                        </div>","123","","0","images/gray_17.png","","","","serious"
"","","","","","html-slider-response","160","373179","0.0-156.0","c56jzdgmaj","NaN","<div style=""width:500px;"">
                            <p style=""font-size:50px; font-weight:bold;""
                            >serious</p>
                            <div style=""width:240px; margin: auto;"">
                                <img src=""images/gray_33.png"" style= ""width:200px""alt=""img"">
                            </div>
                        </div>","98","","0","images/gray_33.png","","","","serious"
"","","","","","html-slider-response","161","374187","0.0-157.0","c56jzdgmaj","NaN","<div style=""width:500px;"">
                            <p style=""font-size:50px; font-weight:bold;""
                            >serious</p>
                            <div style=""width:240px; margin: auto;"">
                                <img src=""images/gray_28.png"" style= ""width:200px""alt=""img"">
                            </div>
                        </div>","130","","0","images/gray_28.png","","","","serious"
"","","","","","html-slider-response","162","375204","0.0-158.0","c56jzdgmaj","NaN","<div style=""width:500px;"">
                            <p style=""font-size:50px; font-weight:bold;""
                            >serious</p>
                            <div style=""width:240px; margin: auto;"">
                                <img src=""images/gray_15.png"" style= ""width:200px""alt=""img"">
                            </div>
                        </div>","92","","0","images/gray_15.png","","","","serious"
"","","","","","html-slider-response","163","376361","0.0-159.0","c56jzdgmaj","NaN","<div style=""width:500px;"">
                            <p style=""font-size:50px; font-weight:bold;""
                            >serious</p>
                            <div style=""width:240px; margin: auto;"">
                                <img src=""images/gray_11.png"" style= ""width:200px""alt=""img"">
                            </div>
                        </div>","58","","0","images/gray_11.png","","","","serious"
"","","","","","html-slider-response","164","377350","0.0-160.0","c56jzdgmaj","NaN","<div style=""width:500px;"">
                            <p style=""font-size:50px; font-weight:bold;""
                            >serious</p>
                            <div style=""width:240px; margin: auto;"">
                                <img src=""images/gray_32.png"" style= ""width:200px""alt=""img"">
                            </div>
                        </div>","58","","0","images/gray_32.png","","","","serious"
"","","","","","html-slider-response","165","378295","0.0-161.0","c56jzdgmaj","NaN","<div style=""width:500px;"">
                            <p style=""font-size:50px; font-weight:bold;""
                            >serious</p>
                            <div style=""width:240px; margin: auto;"">
                                <img src=""images/gray_21.png"" style= ""width:200px""alt=""img"">
                            </div>
                        </div>","94","","0","images/gray_21.png","","","","serious"
"","","","","","html-slider-response","166","379275","0.0-162.0","c56jzdgmaj","NaN","<div style=""width:500px;"">
                            <p style=""font-size:50px; font-weight:bold;""
                            >serious</p>
                            <div style=""width:240px; margin: auto;"">
                                <img src=""images/gray_44.png"" style= ""width:200px""alt=""img"">
                            </div>
                        </div>","110","","0","images/gray_44.png","","","","serious"
"","","","","","html-slider-response","167","380327","0.0-163.0","c56jzdgmaj","NaN","<div style=""width:500px;"">
                            <p style=""font-size:50px; font-weight:bold;""
                            >serious</p>
                            <div style=""width:240px; margin: auto;"">
                                <img src=""images/gray_26.png"" style= ""width:200px""alt=""img"">
                            </div>
                        </div>","149","","0","images/gray_26.png","","","","serious"
"","","","","","html-slider-response","168","381309","0.0-164.0","c56jzdgmaj","NaN","<div style=""width:500px;"">
                            <p style=""font-size:50px; font-weight:bold;""
                            >serious</p>
                            <div style=""width:240px; margin: auto;"">
                                <img src=""images/gray_08.png"" style= ""width:200px""alt=""img"">
                            </div>
                        </div>","73","","0","images/gray_08.png","","","","serious"
"","","","","","html-slider-response","169","382386","0.0-165.0","c56jzdgmaj","NaN","<div style=""width:500px;"">
                            <p style=""font-size:50px; font-weight:bold;""
                            >serious</p>
                            <div style=""width:240px; margin: auto;"">
                                <img src=""images/gray_09.png"" style= ""width:200px""alt=""img"">
                            </div>
                        </div>","155","","0","images/gray_09.png","","","","serious"
"","","","","","html-slider-response","170","383680","0.0-166.0","c56jzdgmaj","NaN","<div style=""width:500px;"">
                            <p style=""font-size:50px; font-weight:bold;""
                            >serious</p>
                            <div style=""width:240px; margin: auto;"">
                                <img src=""images/gray_02.png"" style= ""width:200px""alt=""img"">
                            </div>
                        </div>","48","","0","images/gray_02.png","","","","serious"
"","","","","","html-slider-response","171","384745","0.0-167.0","c56jzdgmaj","NaN","<div style=""width:500px;"">
                            <p style=""font-size:50px; font-weight:bold;""
                            >serious</p>
                            <div style=""width:240px; margin: auto;"">
                                <img src=""images/gray_20.png"" style= ""width:200px""alt=""img"">
                            </div>
                        </div>","121","","0","images/gray_20.png","","","","serious"
"","","","","","html-slider-response","172","385796","0.0-168.0","c56jzdgmaj","NaN","<div style=""width:500px;"">
                            <p style=""font-size:50px; font-weight:bold;""
                            >serious</p>
                            <div style=""width:240px; margin: auto;"">
                                <img src=""images/gray_38.png"" style= ""width:200px""alt=""img"">
                            </div>
                        </div>","84","","0","images/gray_38.png","","","","serious"
"","","","","","html-slider-response","173","386812","0.0-169.0","c56jzdgmaj","NaN","<div style=""width:500px;"">
                            <p style=""font-size:50px; font-weight:bold;""
                            >serious</p>
                            <div style=""width:240px; margin: auto;"">
                                <img src=""images/gray_43.png"" style= ""width:200px""alt=""img"">
                            </div>
                        </div>","113","","0","images/gray_43.png","","","","serious"
"","","","","","html-slider-response","174","387847","0.0-170.0","c56jzdgmaj","NaN","<div style=""width:500px;"">
                            <p style=""font-size:50px; font-weight:bold;""
                            >serious</p>
                            <div style=""width:240px; margin: auto;"">
                                <img src=""images/gray_18.png"" style= ""width:200px""alt=""img"">
                            </div>
                        </div>","140","","0","images/gray_18.png","","","","serious"
"","","","","","html-slider-response","175","388805","0.0-171.0","c56jzdgmaj","NaN","<div style=""width:500px;"">
                            <p style=""font-size:50px; font-weight:bold;""
                            >serious</p>
                            <div style=""width:240px; margin: auto;"">
                                <img src=""images/gray_40.png"" style= ""width:200px""alt=""img"">
                            </div>
                        </div>","73","","0","images/gray_40.png","","","","serious"
"","","","","","html-slider-response","176","391836","0.0-172.0","c56jzdgmaj","NaN","<div style=""width:500px;"">
                            <p style=""font-size:50px; font-weight:bold;""
                            >serious</p>
                            <div style=""width:240px; margin: auto;"">
                                <img src=""images/gray_16.png"" style= ""width:200px""alt=""img"">
                            </div>
                        </div>","105","","0","images/gray_16.png","","","","serious"
"","","","","","html-slider-response","177","392743","0.0-173.0","c56jzdgmaj","NaN","<div style=""width:500px;"">
                            <p style=""font-size:50px; font-weight:bold;""
                            >serious</p>
                            <div style=""width:240px; margin: auto;"">
                                <img src=""images/gray_41.png"" style= ""width:200px""alt=""img"">
                            </div>
                        </div>","125","","0","images/gray_41.png","","","","serious"
"","","","","","html-slider-response","178","393723","0.0-174.0","c56jzdgmaj","NaN","<div style=""width:500px;"">
                            <p style=""font-size:50px; font-weight:bold;""
                            >serious</p>
                            <div style=""width:240px; margin: auto;"">
                                <img src=""images/gray_14.png"" style= ""width:200px""alt=""img"">
                            </div>
                        </div>","148","","0","images/gray_14.png","","","","serious"
"","","","","","html-slider-response","179","394716","0.0-175.0","c56jzdgmaj","NaN","<div style=""width:500px;"">
                            <p style=""font-size:50px; font-weight:bold;""
                            >serious</p>
                            <div style=""width:240px; margin: auto;"">
                                <img src=""images/gray_06.png"" style= ""width:200px""alt=""img"">
                            </div>
                        </div>","88","","0","images/gray_06.png","","","","serious"
"","","","","","html-slider-response","180","395799","0.0-176.0","c56jzdgmaj","NaN","<div style=""width:500px;"">
                            <p style=""font-size:50px; font-weight:bold;""
                            >serious</p>
                            <div style=""width:240px; margin: auto;"">
                                <img src=""images/gray_31.png"" style= ""width:200px""alt=""img"">
                            </div>
                        </div>","87","","0","images/gray_31.png","","","","serious"
"","","","","","html-slider-response","181","397141","0.0-177.0","c56jzdgmaj","NaN","<div style=""width:500px;"">
                            <p style=""font-size:50px; font-weight:bold;""
                            >serious</p>
                            <div style=""width:240px; margin: auto;"">
                                <img src=""images/gray_25.png"" style= ""width:200px""alt=""img"">
                            </div>
                        </div>","125","","0","images/gray_25.png","","","","serious"
"","","","","","html-slider-response","182","398365","0.0-178.0","c56jzdgmaj","NaN","<div style=""width:500px;"">
                            <p style=""font-size:50px; font-weight:bold;""
                            >serious</p>
                            <div style=""width:240px; margin: auto;"">
                                <img src=""images/gray_35.png"" style= ""width:200px""alt=""img"">
                            </div>
                        </div>","54","","0","images/gray_35.png","","","","serious"
"","","","","","html-slider-response","183","399253","0.0-179.0","c56jzdgmaj","NaN","<div style=""width:500px;"">
                            <p style=""font-size:50px; font-weight:bold;""
                            >serious</p>
                            <div style=""width:240px; margin: auto;"">
                                <img src=""images/gray_37.png"" style= ""width:200px""alt=""img"">
                            </div>
                        </div>","104","","0","images/gray_37.png","","","","serious"
"","","","","","html-slider-response","184","400308","0.0-180.0","c56jzdgmaj","NaN","<div style=""width:500px;"">
                            <p style=""font-size:50px; font-weight:bold;""
                            >serious</p>
                            <div style=""width:240px; margin: auto;"">
                                <img src=""images/gray_39.png"" style= ""width:200px""alt=""img"">
                            </div>
                        </div>","134","","0","images/gray_39.png","","","","serious"
"","","","","","html-slider-response","185","401326","0.0-181.0","c56jzdgmaj","NaN","<div style=""width:500px;"">
                            <p style=""font-size:50px; font-weight:bold;""
                            >serious</p>
                            <div style=""width:240px; margin: auto;"">
                                <img src=""images/gray_13.png"" style= ""width:200px""alt=""img"">
                            </div>
                        </div>","134","","0","images/gray_13.png","","","","serious"
"","","","","","html-slider-response","186","402309","0.0-182.0","c56jzdgmaj","NaN","<div style=""width:500px;"">
                            <p style=""font-size:50px; font-weight:bold;""
                            >serious</p>
                            <div style=""width:240px; margin: auto;"">
                                <img src=""images/gray_24.png"" style= ""width:200px""alt=""img"">
                            </div>
                        </div>","134","","0","images/gray_24.png","","","","serious"
"","","","","","html-slider-response","187","403656","0.0-183.0","c56jzdgmaj","NaN","<div style=""width:500px;"">
                            <p style=""font-size:50px; font-weight:bold;""
                            >serious</p>
                            <div style=""width:240px; margin: auto;"">
                                <img src=""images/gray_27.png"" style= ""width:200px""alt=""img"">
                            </div>
                        </div>","134","","0","images/gray_27.png","","","","serious"
"","","","","","html-slider-response","188","404820","0.0-184.0","c56jzdgmaj","NaN","<div style=""width:500px;"">
                            <p style=""font-size:50px; font-weight:bold;""
                            >serious</p>
                            <div style=""width:240px; margin: auto;"">
                                <img src=""images/gray_19.png"" style= ""width:200px""alt=""img"">
                            </div>
                        </div>","93","","0","images/gray_19.png","","","","serious"
"","","","","","html-slider-response","189","405827","0.0-185.0","c56jzdgmaj","NaN","<div style=""width:500px;"">
                            <p style=""font-size:50px; font-weight:bold;""
                            >serious</p>
                            <div style=""width:240px; margin: auto;"">
                                <img src=""images/gray_30.png"" style= ""width:200px""alt=""img"">
                            </div>
                        </div>","122","","0","images/gray_30.png","","","","serious"
"","","","","","html-slider-response","190","406829","0.0-186.0","c56jzdgmaj","NaN","<div style=""width:500px;"">
                            <p style=""font-size:50px; font-weight:bold;""
                            >serious</p>
                            <div style=""width:240px; margin: auto;"">
                                <img src=""images/gray_05.png"" style= ""width:200px""alt=""img"">
                            </div>
                        </div>","142","","0","images/gray_05.png","","","","serious"
"","","","","","html-slider-response","191","407929","0.0-187.0","c56jzdgmaj","NaN","<div style=""width:500px;"">
                            <p style=""font-size:50px; font-weight:bold;""
                            >serious</p>
                            <div style=""width:240px; margin: auto;"">
                                <img src=""images/gray_23.png"" style= ""width:200px""alt=""img"">
                            </div>
                        </div>","123","","0","images/gray_23.png","","","","serious"
"","","","","","html-slider-response","192","408839","0.0-188.0","c56jzdgmaj","NaN","<div style=""width:500px;"">
                            <p style=""font-size:50px; font-weight:bold;""
                            >serious</p>
                            <div style=""width:240px; margin: auto;"">
                                <img src=""images/gray_12.png"" style= ""width:200px""alt=""img"">
                            </div>
                        </div>","88","","0","images/gray_12.png","","","","serious"
"","","","","","html-slider-response","193","409761","0.0-189.0","c56jzdgmaj","NaN","<div style=""width:500px;"">
                            <p style=""font-size:50px; font-weight:bold;""
                            >serious</p>
                            <div style=""width:240px; margin: auto;"">
                                <img src=""images/gray_04.png"" style= ""width:200px""alt=""img"">
                            </div>
                        </div>","134","","0","images/gray_04.png","","","","serious"
"","","","","","html-slider-response","194","410755","0.0-190.0","c56jzdgmaj","NaN","<div style=""width:500px;"">
                            <p style=""font-size:50px; font-weight:bold;""
                            >serious</p>
                            <div style=""width:240px; margin: auto;"">
                                <img src=""images/gray_22.png"" style= ""width:200px""alt=""img"">
                            </div>
                        </div>","154","","0","images/gray_22.png","","","","serious"
"","","","","","html-slider-response","195","411802","0.0-191.0","c56jzdgmaj","NaN","<div style=""width:500px;"">
                            <p style=""font-size:50px; font-weight:bold;""
                            >serious</p>
                            <div style=""width:240px; margin: auto;"">
                                <img src=""images/gray_03.png"" style= ""width:200px""alt=""img"">
                            </div>
                        </div>","129","","0","images/gray_03.png","","","","serious"
"","","","","","html-slider-response","196","412894","0.0-192.0","c56jzdgmaj","NaN","<div style=""width:500px;"">
                            <p style=""font-size:50px; font-weight:bold;""
                            >serious</p>
                            <div style=""width:240px; margin: auto;"">
                                <img src=""images/gray_34.png"" style= ""width:200px""alt=""img"">
                            </div>
                        </div>","135","","0","images/gray_34.png","","","","serious"
"","","","","","html-slider-response","197","413875","0.0-193.0","c56jzdgmaj","NaN","<div style=""width:500px;"">
                            <p style=""font-size:50px; font-weight:bold;""
                            >serious</p>
                            <div style=""width:240px; margin: auto;"">
                                <img src=""images/gray_10.png"" style= ""width:200px""alt=""img"">
                            </div>
                        </div>","161","","0","images/gray_10.png","","","","serious"
"","","","","","html-slider-response","198","414990","0.0-194.0","c56jzdgmaj","NaN","<div style=""width:500px;"">
                            <p style=""font-size:50px; font-weight:bold;""
                            >serious</p>
                            <div style=""width:240px; margin: auto;"">
