"success","timeout","failed_images","failed_audio","failed_video","trial_type","trial_index","time_elapsed","internal_node_id","subject_id","rt","stimulus","response","question_order","slider_start","image_path","practiceTrial","practiceTrialNum","correct","concept"
"true","false","[]","[]","[]","preload","0","496","0.0-0.0","dmqvqv83zu","","","","","","","","","",""
"","","","","","html-button-response","1","4846","0.0-1.0","dmqvqv83zu","4347","Welcome to our experiment!<p>At the bottom of this screen, you will see a button that says ""Begin Experiment"".<br>Please only click that button when you are ready to complete the 25 minute experiment in one sitting.</p><p> Once you click that button, it will not be possible to restart the experiment.","0","","","","","","",""
"true","","","","","fullscreen","2","78074","0.0-2.0","dmqvqv83zu","72226","","","","","","","","",""
"","","","","","survey-multi-select","3","84106","0.0-3.0","dmqvqv83zu","6027","","{""Consent"":[""<strong>I consent</strong>""]}","[0]","","","","","",""
"","","","","","html-button-response","4","85868","0.0-4.0","dmqvqv83zu","1758","Welcome! <p> This experiment involves two parts: demographic information, followed by the experimental task.<p> It will take about 25 minutes to complete both parts.","0","","","","","","",""
"","","","","","survey-text","5","108008","0.0-5.0","dmqvqv83zu","22116","","{""Age"":""18"",""Gender"":""Man"",""Race/ethnicity"":""Dominican "",""Languages"":""Spanish\nEnglish""}","","","","","","",""
"","","","","","html-slider-response","6","141310","0.0-6.0","dmqvqv83zu","33301","
            <div style='text-align:left; font-size:20px; line-height:25px; width: 1200px;'>
                During this experiment you will be asked to rate how much you associate maps with    different concepts.<br> Below, you can see some examples of the maps you will be asked to rate. Next to the maps
    is the list of concepts.<br>You will be asked    to rate how much you associate each map with each concept on a scale from 'not at all' to 'very much' like the
    one below. <br><br>
    Now, please look at the list of concepts and maps. For each concept, think about the map you associate 'very
    much' with the concept.<br>     When you see that map during the experiment, please rate it near the 'very much' endpoint of the
    scale.<br>Now, please think about which map you associate 'not at all'     with each concept. When you see that map during the experiment, please rate it near the 'not at all' endpoint
    of the scale.<br>
    Please use the full range of the scale. That is, if a map is somewhat associated with the concept, you would
    click partway between the middle point and right side of the scale.    You will be asked to rate each map for a given concept before moving on to the next concept.<br><br>Press the
    'Continue' button for instructions on how to use the slider.    <br><br>
</div>

<div style=""width: 500px; margin: 0 auto;"">
    <div style=""text-align: left; width: 200px; float: left;"">
        <p style=""font-size:25px; line-height:18px;"">calm</p>
        <p style=""font-size:25px; line-height:18px;"">exciting</p>
        <p style=""font-size:25px;line-height:18px;"">positive</p>
        <p style=""font-size:25px;line-height:18px;"">negative</p>
        <p style=""font-size:25px;line-height:18px;"">serious</p>
        <p style=""font-size:25px;line-height:18px;"">playful</p>
        <p style=""font-size:25px;line-height:18px;"">trustworthy</p>
        <p style=""font-size:25px;line-height:18px;"">disturbing</p>
    </div>
    <div style=""width: 200px; float: right; padding-top:15px; padding-right:40px"">
        <br>
        <br>
        <img src=""maps_anchoring.png"" alt=""img"" style=""max-width:500px"">
    </div>
    <div style=""clear: both;""></div>
</div>
            ","-1","","0","maps_anchoring.png","true","","",""
"","","","","","html-button-response","7","142871","0.0-7.0","dmqvqv83zu","1559","<div style=""width:800px;""><p style=""text-align:left"">To move the slider, click and drag your cursor to the location of the scale where you would like to make your rating and then let go. When you let go of the slider, your response will be recorded and the next trial will begin. <br>
            We are interested in your initial impressions of each map for the given concept, so please go with your first intuition. <br>
            Before you begin the experiment, there will be four training trials for you to practice using the scale. <br>
             When you are ready to start the training trials, please click ""Continue"".</p><br></div>","0","","","","","","",""
"","","","","","html-slider-response","8","144974","0.0-8.0-0.0","dmqvqv83zu","NaN","<div style=""width:500px;"">
                            <p style=""font-size:25px;"">Please move the slider all the way to the <br> right endpoint of the scale</p>

                            </div>
                        </div>","200","","0","","true","0","true",""
"","","","","","html-button-response","9","146207","0.0-8.0-1.0","dmqvqv83zu","730","<p align='center'><b>Good job!</b> Click on 'Continue' to proceed.</p>","0","","","","","","",""
"","","","","","html-slider-response","10","147303","0.0-9.0-0.0","dmqvqv83zu","NaN","<div style=""width:500px;"">
                            <p style=""font-size:25px;"">Please move the slider all the way to the <br> left endpoint of the scale</p>

                            </div>
                        </div>","-200","","0","","true","1","true",""
"","","","","","html-button-response","11","148397","0.0-9.0-1.0","dmqvqv83zu","593","<p align='center'><b>Good job!</b> Click on 'Continue' to proceed.</p>","0","","","","","","",""
"","","","","","html-slider-response","12","150991","0.0-10.0-0.0","dmqvqv83zu","NaN","<div style=""width:500px;"">
                            <p style=""font-size:25px;"">Please move the slider halfway between the center and right endpoint of the scale</p>

                            </div>
                        </div>","108","","0","","true","2","true",""
"","","","","","html-button-response","13","152061","0.0-10.0-1.0","dmqvqv83zu","565","<p align='center'><b>Good job!</b> Click on 'Continue' to proceed.</p>","0","","","","","","",""
"","","","","","html-slider-response","14","153571","0.0-11.0-0.0","dmqvqv83zu","NaN","<div style=""width:500px;"">
                            <p style=""font-size:25px;"">Please move the slider halfway between the center and left endpoint of the scale</p>

                            </div>
                        </div>","-110","","0","","true","3","true",""
"","","","","","html-button-response","15","154717","0.0-11.0-1.0","dmqvqv83zu","643","<p align='center'><b>Good job!</b> Click on 'Continue' to proceed.</p>","0","","","","","","",""
"","","","","","html-button-response","16","156023","0.0-12.0","dmqvqv83zu","1304","<p>Great job! You've completed the practice trials. Now you will begin the main task.</p>","0","","","","","","",""
"","","","","","html-button-response","17","158256","0.0-13.0","dmqvqv83zu","2231","<p>In this block of trials, you will be asked to rate how much you associate each map with:</p > <p style = 'font-size:150%; font-weight: bold'>disturbing</p><br></br>","0","","","","","","",""
"","","","","","html-slider-response","18","168258","0.0-14.0","dmqvqv83zu","NaN","<div style=""width:500px;"">
                            <p style=""font-size:50px; font-weight:bold;""
                            >disturbing</p>
                            <div style=""width:240px; margin: auto;"">
                                <img src=""images/gray_30.png"" style= ""width:200px""alt=""img"">
                            </div>
                        </div>","-67","","0","images/gray_30.png","","","","disturbing"
"","","","","","html-slider-response","19","170956","0.0-15.0","dmqvqv83zu","NaN","<div style=""width:500px;"">
                            <p style=""font-size:50px; font-weight:bold;""
                            >disturbing</p>
                            <div style=""width:240px; margin: auto;"">
                                <img src=""images/gray_38.png"" style= ""width:200px""alt=""img"">
                            </div>
                        </div>","-130","","0","images/gray_38.png","","","","disturbing"
"","","","","","html-slider-response","20","173775","0.0-16.0","dmqvqv83zu","NaN","<div style=""width:500px;"">
                            <p style=""font-size:50px; font-weight:bold;""
                            >disturbing</p>
                            <div style=""width:240px; margin: auto;"">
                                <img src=""images/gray_32.png"" style= ""width:200px""alt=""img"">
                            </div>
                        </div>","-101","","0","images/gray_32.png","","","","disturbing"
"","","","","","html-slider-response","21","176347","0.0-17.0","dmqvqv83zu","NaN","<div style=""width:500px;"">
                            <p style=""font-size:50px; font-weight:bold;""
                            >disturbing</p>
                            <div style=""width:240px; margin: auto;"">
                                <img src=""images/gray_03.png"" style= ""width:200px""alt=""img"">
                            </div>
                        </div>","-114","","0","images/gray_03.png","","","","disturbing"
"","","","","","html-slider-response","22","178733","0.0-18.0","dmqvqv83zu","NaN","<div style=""width:500px;"">
                            <p style=""font-size:50px; font-weight:bold;""
                            >disturbing</p>
                            <div style=""width:240px; margin: auto;"">
                                <img src=""images/gray_08.png"" style= ""width:200px""alt=""img"">
                            </div>
                        </div>","-112","","0","images/gray_08.png","","","","disturbing"
"","","","","","html-slider-response","23","181634","0.0-19.0","dmqvqv83zu","NaN","<div style=""width:500px;"">
                            <p style=""font-size:50px; font-weight:bold;""
                            >disturbing</p>
                            <div style=""width:240px; margin: auto;"">
                                <img src=""images/gray_20.png"" style= ""width:200px""alt=""img"">
                            </div>
                        </div>","-121","","0","images/gray_20.png","","","","disturbing"
"","","","","","html-slider-response","24","183513","0.0-20.0","dmqvqv83zu","NaN","<div style=""width:500px;"">
                            <p style=""font-size:50px; font-weight:bold;""
                            >disturbing</p>
                            <div style=""width:240px; margin: auto;"">
                                <img src=""images/gray_37.png"" style= ""width:200px""alt=""img"">
                            </div>
                        </div>","-118","","0","images/gray_37.png","","","","disturbing"
"","","","","","html-slider-response","25","186248","0.0-21.0","dmqvqv83zu","NaN","<div style=""width:500px;"">
                            <p style=""font-size:50px; font-weight:bold;""
                            >disturbing</p>
                            <div style=""width:240px; margin: auto;"">
                                <img src=""images/gray_26.png"" style= ""width:200px""alt=""img"">
                            </div>
                        </div>","-118","","0","images/gray_26.png","","","","disturbing"
"","","","","","html-slider-response","26","188857","0.0-22.0","dmqvqv83zu","NaN","<div style=""width:500px;"">
                            <p style=""font-size:50px; font-weight:bold;""
                            >disturbing</p>
                            <div style=""width:240px; margin: auto;"">
                                <img src=""images/gray_34.png"" style= ""width:200px""alt=""img"">
                            </div>
                        </div>","-152","","0","images/gray_34.png","","","","disturbing"
"","","","","","html-slider-response","27","191863","0.0-23.0","dmqvqv83zu","NaN","<div style=""width:500px;"">
                            <p style=""font-size:50px; font-weight:bold;""
                            >disturbing</p>
                            <div style=""width:240px; margin: auto;"">
                                <img src=""images/gray_31.png"" style= ""width:200px""alt=""img"">
                            </div>
                        </div>","-118","","0","images/gray_31.png","","","","disturbing"
"","","","","","html-slider-response","28","194321","0.0-24.0","dmqvqv83zu","NaN","<div style=""width:500px;"">
                            <p style=""font-size:50px; font-weight:bold;""
                            >disturbing</p>
                            <div style=""width:240px; margin: auto;"">
                                <img src=""images/gray_11.png"" style= ""width:200px""alt=""img"">
                            </div>
                        </div>","-129","","0","images/gray_11.png","","","","disturbing"
"","","","","","html-slider-response","29","197056","0.0-25.0","dmqvqv83zu","NaN","<div style=""width:500px;"">
                            <p style=""font-size:50px; font-weight:bold;""
                            >disturbing</p>
                            <div style=""width:240px; margin: auto;"">
                                <img src=""images/gray_33.png"" style= ""width:200px""alt=""img"">
                            </div>
                        </div>","-101","","0","images/gray_33.png","","","","disturbing"
"","","","","","html-slider-response","30","199169","0.0-26.0","dmqvqv83zu","NaN","<div style=""width:500px;"">
                            <p style=""font-size:50px; font-weight:bold;""
                            >disturbing</p>
                            <div style=""width:240px; margin: auto;"">
                                <img src=""images/gray_15.png"" style= ""width:200px""alt=""img"">
                            </div>
                        </div>","-114","","0","images/gray_15.png","","","","disturbing"
"","","","","","html-slider-response","31","201452","0.0-27.0","dmqvqv83zu","NaN","<div style=""width:500px;"">
                            <p style=""font-size:50px; font-weight:bold;""
                            >disturbing</p>
                            <div style=""width:240px; margin: auto;"">
                                <img src=""images/gray_18.png"" style= ""width:200px""alt=""img"">
                            </div>
                        </div>","-112","","0","images/gray_18.png","","","","disturbing"
"","","","","","html-slider-response","32","203591","0.0-28.0","dmqvqv83zu","NaN","<div style=""width:500px;"">
                            <p style=""font-size:50px; font-weight:bold;""
                            >disturbing</p>
                            <div style=""width:240px; margin: auto;"">
                                <img src=""images/gray_02.png"" style= ""width:200px""alt=""img"">
                            </div>
                        </div>","-124","","0","images/gray_02.png","","","","disturbing"
"","","","","","html-slider-response","33","206070","0.0-29.0","dmqvqv83zu","NaN","<div style=""width:500px;"">
                            <p style=""font-size:50px; font-weight:bold;""
                            >disturbing</p>
                            <div style=""width:240px; margin: auto;"">
                                <img src=""images/gray_36.png"" style= ""width:200px""alt=""img"">
                            </div>
                        </div>","-135","","0","images/gray_36.png","","","","disturbing"
"","","","","","html-slider-response","34","208128","0.0-30.0","dmqvqv83zu","NaN","<div style=""width:500px;"">
                            <p style=""font-size:50px; font-weight:bold;""
                            >disturbing</p>
                            <div style=""width:240px; margin: auto;"">
                                <img src=""images/gray_04.png"" style= ""width:200px""alt=""img"">
                            </div>
                        </div>","-114","","0","images/gray_04.png","","","","disturbing"
"","","","","","html-slider-response","35","210191","0.0-31.0","dmqvqv83zu","NaN","<div style=""width:500px;"">
                            <p style=""font-size:50px; font-weight:bold;""
                            >disturbing</p>
                            <div style=""width:240px; margin: auto;"">
                                <img src=""images/gray_10.png"" style= ""width:200px""alt=""img"">
                            </div>
                        </div>","-109","","0","images/gray_10.png","","","","disturbing"
"","","","","","html-slider-response","36","212701","0.0-32.0","dmqvqv83zu","NaN","<div style=""width:500px;"">
                            <p style=""font-size:50px; font-weight:bold;""
                            >disturbing</p>
                            <div style=""width:240px; margin: auto;"">
                                <img src=""images/gray_05.png"" style= ""width:200px""alt=""img"">
                            </div>
                        </div>","-139","","0","images/gray_05.png","","","","disturbing"
"","","","","","html-slider-response","37","214557","0.0-33.0","dmqvqv83zu","NaN","<div style=""width:500px;"">
                            <p style=""font-size:50px; font-weight:bold;""
                            >disturbing</p>
                            <div style=""width:240px; margin: auto;"">
                                <img src=""images/gray_44.png"" style= ""width:200px""alt=""img"">
                            </div>
                        </div>","-98","","0","images/gray_44.png","","","","disturbing"
"","","","","","html-slider-response","38","216621","0.0-34.0","dmqvqv83zu","NaN","<div style=""width:500px;"">
                            <p style=""font-size:50px; font-weight:bold;""
                            >disturbing</p>
                            <div style=""width:240px; margin: auto;"">
                                <img src=""images/gray_43.png"" style= ""width:200px""alt=""img"">
                            </div>
                        </div>","-138","","0","images/gray_43.png","","","","disturbing"
"","","","","","html-slider-response","39","219220","0.0-35.0","dmqvqv83zu","NaN","<div style=""width:500px;"">
                            <p style=""font-size:50px; font-weight:bold;""
                            >disturbing</p>
                            <div style=""width:240px; margin: auto;"">
                                <img src=""images/gray_41.png"" style= ""width:200px""alt=""img"">
                            </div>
                        </div>","-126","","0","images/gray_41.png","","","","disturbing"
"","","","","","html-slider-response","40","221468","0.0-36.0","dmqvqv83zu","NaN","<div style=""width:500px;"">
                            <p style=""font-size:50px; font-weight:bold;""
                            >disturbing</p>
                            <div style=""width:240px; margin: auto;"">
                                <img src=""images/gray_25.png"" style= ""width:200px""alt=""img"">
                            </div>
                        </div>","-200","","0","images/gray_25.png","","","","disturbing"
"","","","","","html-slider-response","41","224012","0.0-37.0","dmqvqv83zu","NaN","<div style=""width:500px;"">
                            <p style=""font-size:50px; font-weight:bold;""
                            >disturbing</p>
                            <div style=""width:240px; margin: auto;"">
                                <img src=""images/gray_21.png"" style= ""width:200px""alt=""img"">
                            </div>
                        </div>","-156","","0","images/gray_21.png","","","","disturbing"
"","","","","","html-slider-response","42","225729","0.0-38.0","dmqvqv83zu","NaN","<div style=""width:500px;"">
                            <p style=""font-size:50px; font-weight:bold;""
                            >disturbing</p>
                            <div style=""width:240px; margin: auto;"">
                                <img src=""images/gray_01.png"" style= ""width:200px""alt=""img"">
                            </div>
                        </div>","-95","","0","images/gray_01.png","","","","disturbing"
"","","","","","html-slider-response","43","227417","0.0-39.0","dmqvqv83zu","NaN","<div style=""width:500px;"">
                            <p style=""font-size:50px; font-weight:bold;""
                            >disturbing</p>
                            <div style=""width:240px; margin: auto;"">
                                <img src=""images/gray_29.png"" style= ""width:200px""alt=""img"">
                            </div>
                        </div>","-152","","0","images/gray_29.png","","","","disturbing"
"","","","","","html-slider-response","44","229330","0.0-40.0","dmqvqv83zu","NaN","<div style=""width:500px;"">
                            <p style=""font-size:50px; font-weight:bold;""
                            >disturbing</p>
                            <div style=""width:240px; margin: auto;"">
                                <img src=""images/gray_13.png"" style= ""width:200px""alt=""img"">
                            </div>
                        </div>","-163","","0","images/gray_13.png","","","","disturbing"
"","","","","","html-slider-response","45","231045","0.0-41.0","dmqvqv83zu","NaN","<div style=""width:500px;"">
                            <p style=""font-size:50px; font-weight:bold;""
                            >disturbing</p>
                            <div style=""width:240px; margin: auto;"">
                                <img src=""images/gray_07.png"" style= ""width:200px""alt=""img"">
                            </div>
                        </div>","-125","","0","images/gray_07.png","","","","disturbing"
"","","","","","html-slider-response","46","232946","0.0-42.0","dmqvqv83zu","NaN","<div style=""width:500px;"">
                            <p style=""font-size:50px; font-weight:bold;""
                            >disturbing</p>
                            <div style=""width:240px; margin: auto;"">
                                <img src=""images/gray_06.png"" style= ""width:200px""alt=""img"">
                            </div>
                        </div>","-125","","0","images/gray_06.png","","","","disturbing"
"","","","","","html-slider-response","47","234894","0.0-43.0","dmqvqv83zu","NaN","<div style=""width:500px;"">
                            <p style=""font-size:50px; font-weight:bold;""
                            >disturbing</p>
                            <div style=""width:240px; margin: auto;"">
                                <img src=""images/gray_42.png"" style= ""width:200px""alt=""img"">
                            </div>
                        </div>","-137","","0","images/gray_42.png","","","","disturbing"
"","","","","","html-slider-response","48","236601","0.0-44.0","dmqvqv83zu","NaN","<div style=""width:500px;"">
                            <p style=""font-size:50px; font-weight:bold;""
                            >disturbing</p>
                            <div style=""width:240px; margin: auto;"">
                                <img src=""images/gray_17.png"" style= ""width:200px""alt=""img"">
                            </div>
                        </div>","-136","","0","images/gray_17.png","","","","disturbing"
"","","","","","html-slider-response","49","238141","0.0-45.0","dmqvqv83zu","NaN","<div style=""width:500px;"">
                            <p style=""font-size:50px; font-weight:bold;""
                            >disturbing</p>
                            <div style=""width:240px; margin: auto;"">
                                <img src=""images/gray_39.png"" style= ""width:200px""alt=""img"">
                            </div>
                        </div>","-117","","0","images/gray_39.png","","","","disturbing"
"","","","","","html-slider-response","50","239858","0.0-46.0","dmqvqv83zu","NaN","<div style=""width:500px;"">
                            <p style=""font-size:50px; font-weight:bold;""
                            >disturbing</p>
                            <div style=""width:240px; margin: auto;"">
                                <img src=""images/gray_16.png"" style= ""width:200px""alt=""img"">
                            </div>
                        </div>","-141","","0","images/gray_16.png","","","","disturbing"
"","","","","","html-slider-response","51","241374","0.0-47.0","dmqvqv83zu","NaN","<div style=""width:500px;"">
                            <p style=""font-size:50px; font-weight:bold;""
                            >disturbing</p>
                            <div style=""width:240px; margin: auto;"">
                                <img src=""images/gray_40.png"" style= ""width:200px""alt=""img"">
                            </div>
                        </div>","-63","","0","images/gray_40.png","","","","disturbing"
"","","","","","html-slider-response","52","242885","0.0-48.0","dmqvqv83zu","NaN","<div style=""width:500px;"">
                            <p style=""font-size:50px; font-weight:bold;""
                            >disturbing</p>
                            <div style=""width:240px; margin: auto;"">
                                <img src=""images/gray_22.png"" style= ""width:200px""alt=""img"">
                            </div>
                        </div>","-82","","0","images/gray_22.png","","","","disturbing"
"","","","","","html-slider-response","53","244420","0.0-49.0","dmqvqv83zu","NaN","<div style=""width:500px;"">
                            <p style=""font-size:50px; font-weight:bold;""
                            >disturbing</p>
                            <div style=""width:240px; margin: auto;"">
                                <img src=""images/gray_24.png"" style= ""width:200px""alt=""img"">
                            </div>
                        </div>","-138","","0","images/gray_24.png","","","","disturbing"
"","","","","","html-slider-response","54","246036","0.0-50.0","dmqvqv83zu","NaN","<div style=""width:500px;"">
                            <p style=""font-size:50px; font-weight:bold;""
                            >disturbing</p>
                            <div style=""width:240px; margin: auto;"">
                                <img src=""images/gray_14.png"" style= ""width:200px""alt=""img"">
                            </div>
                        </div>","-144","","0","images/gray_14.png","","","","disturbing"
"","","","","","html-slider-response","55","247619","0.0-51.0","dmqvqv83zu","NaN","<div style=""width:500px;"">
                            <p style=""font-size:50px; font-weight:bold;""
                            >disturbing</p>
                            <div style=""width:240px; margin: auto;"">
                                <img src=""images/gray_19.png"" style= ""width:200px""alt=""img"">
                            </div>
                        </div>","-116","","0","images/gray_19.png","","","","disturbing"
"","","","","","html-slider-response","56","249237","0.0-52.0","dmqvqv83zu","NaN","<div style=""width:500px;"">
                            <p style=""font-size:50px; font-weight:bold;""
                            >disturbing</p>
                            <div style=""width:240px; margin: auto;"">
                                <img src=""images/gray_35.png"" style= ""width:200px""alt=""img"">
                            </div>
                        </div>","-118","","0","images/gray_35.png","","","","disturbing"
"","","","","","html-slider-response","57","250729","0.0-53.0","dmqvqv83zu","NaN","<div style=""width:500px;"">
                            <p style=""font-size:50px; font-weight:bold;""
                            >disturbing</p>
                            <div style=""width:240px; margin: auto;"">
                                <img src=""images/gray_27.png"" style= ""width:200px""alt=""img"">
                            </div>
                        </div>","-145","","0","images/gray_27.png","","","","disturbing"
"","","","","","html-slider-response","58","252273","0.0-54.0","dmqvqv83zu","NaN","<div style=""width:500px;"">
                            <p style=""font-size:50px; font-weight:bold;""
                            >disturbing</p>
                            <div style=""width:240px; margin: auto;"">
                                <img src=""images/gray_12.png"" style= ""width:200px""alt=""img"">
                            </div>
                        </div>","-98","","0","images/gray_12.png","","","","disturbing"
"","","","","","html-slider-response","59","253770","0.0-55.0","dmqvqv83zu","NaN","<div style=""width:500px;"">
                            <p style=""font-size:50px; font-weight:bold;""
                            >disturbing</p>
                            <div style=""width:240px; margin: auto;"">
                                <img src=""images/gray_23.png"" style= ""width:200px""alt=""img"">
                            </div>
                        </div>","-123","","0","images/gray_23.png","","","","disturbing"
"","","","","","html-slider-response","60","255378","0.0-56.0","dmqvqv83zu","NaN","<div style=""width:500px;"">
                            <p style=""font-size:50px; font-weight:bold;""
                            >disturbing</p>
                            <div style=""width:240px; margin: auto;"">
                                <img src=""images/gray_09.png"" style= ""width:200px""alt=""img"">
                            </div>
                        </div>","-107","","0","images/gray_09.png","","","","disturbing"
"","","","","","html-slider-response","61","257046","0.0-57.0","dmqvqv83zu","NaN","<div style=""width:500px;"">
                            <p style=""font-size:50px; font-weight:bold;""
                            >disturbing</p>
                            <div style=""width:240px; margin: auto;"">
                                <img src=""images/gray_28.png"" style= ""width:200px""alt=""img"">
                            </div>
                        </div>","-127","","0","images/gray_28.png","","","","disturbing"
"","","","","","html-button-response","62","259890","0.0-58.0","dmqvqv83zu","2339","<p>Great Job! You've finished block 1.<br></br> You have 7 block(s) left to go.<br></br></p>","0","","","","","","",""
"","","","","","html-button-response","63","260631","0.0-59.0","dmqvqv83zu","738","<p>In this block of trials, you will be asked to rate how much you associate each map with:</p > <p style = 'font-size:150%; font-weight: bold'>trustworthy</p><br></br>","0","","","","","","",""
"","","","","","html-slider-response","64","264298","0.0-60.0","dmqvqv83zu","NaN","<div style=""width:500px;"">
                            <p style=""font-size:50px; font-weight:bold;""
                            >trustworthy</p>
                            <div style=""width:240px; margin: auto;"">
                                <img src=""images/gray_43.png"" style= ""width:200px""alt=""img"">
                            </div>
                        </div>","-106","","0","images/gray_43.png","","","","trustworthy"
"","","","","","html-slider-response","65","266683","0.0-61.0","dmqvqv83zu","NaN","<div style=""width:500px;"">
                            <p style=""font-size:50px; font-weight:bold;""
                            >trustworthy</p>
                            <div style=""width:240px; margin: auto;"">
                                <img src=""images/gray_07.png"" style= ""width:200px""alt=""img"">
                            </div>
                        </div>","-73","","0","images/gray_07.png","","","","trustworthy"
"","","","","","html-slider-response","66","270462","0.0-62.0","dmqvqv83zu","NaN","<div style=""width:500px;"">
                            <p style=""font-size:50px; font-weight:bold;""
                            >trustworthy</p>
                            <div style=""width:240px; margin: auto;"">
                                <img src=""images/gray_27.png"" style= ""width:200px""alt=""img"">
                            </div>
                        </div>","-98","","0","images/gray_27.png","","","","trustworthy"
"","","","","","html-slider-response","67","272705","0.0-63.0","dmqvqv83zu","NaN","<div style=""width:500px;"">
                            <p style=""font-size:50px; font-weight:bold;""
                            >trustworthy</p>
                            <div style=""width:240px; margin: auto;"">
                                <img src=""images/gray_31.png"" style= ""width:200px""alt=""img"">
                            </div>
                        </div>","74","","0","images/gray_31.png","","","","trustworthy"
"","","","","","html-slider-response","68","275234","0.0-64.0","dmqvqv83zu","NaN","<div style=""width:500px;"">
                            <p style=""font-size:50px; font-weight:bold;""
                            >trustworthy</p>
                            <div style=""width:240px; margin: auto;"">
                                <img src=""images/gray_14.png"" style= ""width:200px""alt=""img"">
                            </div>
                        </div>","60","","0","images/gray_14.png","","","","trustworthy"
"","","","","","html-slider-response","69","278832","0.0-65.0","dmqvqv83zu","NaN","<div style=""width:500px;"">
                            <p style=""font-size:50px; font-weight:bold;""
                            >trustworthy</p>
                            <div style=""width:240px; margin: auto;"">
                                <img src=""images/gray_22.png"" style= ""width:200px""alt=""img"">
                            </div>
                        </div>","-86","","0","images/gray_22.png","","","","trustworthy"
"","","","","","html-slider-response","70","281511","0.0-66.0","dmqvqv83zu","NaN","<div style=""width:500px;"">
                            <p style=""font-size:50px; font-weight:bold;""
                            >trustworthy</p>
                            <div style=""width:240px; margin: auto;"">
                                <img src=""images/gray_05.png"" style= ""width:200px""alt=""img"">
                            </div>
                        </div>","-65","","0","images/gray_05.png","","","","trustworthy"
"","","","","","html-slider-response","71","283975","0.0-67.0","dmqvqv83zu","NaN","<div style=""width:500px;"">
                            <p style=""font-size:50px; font-weight:bold;""
                            >trustworthy</p>
                            <div style=""width:240px; margin: auto;"">
                                <img src=""images/gray_30.png"" style= ""width:200px""alt=""img"">
                            </div>
                        </div>","57","","0","images/gray_30.png","","","","trustworthy"
"","","","","","html-slider-response","72","286181","0.0-68.0","dmqvqv83zu","NaN","<div style=""width:500px;"">
                            <p style=""font-size:50px; font-weight:bold;""
                            >trustworthy</p>
                            <div style=""width:240px; margin: auto;"">
                                <img src=""images/gray_03.png"" style= ""width:200px""alt=""img"">
                            </div>
                        </div>","71","","0","images/gray_03.png","","","","trustworthy"
"","","","","","html-slider-response","73","288545","0.0-69.0","dmqvqv83zu","NaN","<div style=""width:500px;"">
                            <p style=""font-size:50px; font-weight:bold;""
                            >trustworthy</p>
                            <div style=""width:240px; margin: auto;"">
                                <img src=""images/gray_15.png"" style= ""width:200px""alt=""img"">
                            </div>
                        </div>","-96","","0","images/gray_15.png","","","","trustworthy"
"","","","","","html-slider-response","74","290374","0.0-70.0","dmqvqv83zu","NaN","<div style=""width:500px;"">
                            <p style=""font-size:50px; font-weight:bold;""
                            >trustworthy</p>
                            <div style=""width:240px; margin: auto;"">
                                <img src=""images/gray_20.png"" style= ""width:200px""alt=""img"">
                            </div>
                        </div>","84","","0","images/gray_20.png","","","","trustworthy"
"","","","","","html-slider-response","75","292158","0.0-71.0","dmqvqv83zu","NaN","<div style=""width:500px;"">
                            <p style=""font-size:50px; font-weight:bold;""
                            >trustworthy</p>
                            <div style=""width:240px; margin: auto;"">
                                <img src=""images/gray_28.png"" style= ""width:200px""alt=""img"">
                            </div>
                        </div>","98","","0","images/gray_28.png","","","","trustworthy"
"","","","","","html-slider-response","76","294751","0.0-72.0","dmqvqv83zu","NaN","<div style=""width:500px;"">
                            <p style=""font-size:50px; font-weight:bold;""
                            >trustworthy</p>
                            <div style=""width:240px; margin: auto;"">
                                <img src=""images/gray_44.png"" style= ""width:200px""alt=""img"">
                            </div>
                        </div>","-90","","0","images/gray_44.png","","","","trustworthy"
"","","","","","html-slider-response","77","296531","0.0-73.0","dmqvqv83zu","NaN","<div style=""width:500px;"">
                            <p style=""font-size:50px; font-weight:bold;""
                            >trustworthy</p>
                            <div style=""width:240px; margin: auto;"">
                                <img src=""images/gray_40.png"" style= ""width:200px""alt=""img"">
                            </div>
                        </div>","-88","","0","images/gray_40.png","","","","trustworthy"
"","","","","","html-slider-response","78","299153","0.0-74.0","dmqvqv83zu","NaN","<div style=""width:500px;"">
                            <p style=""font-size:50px; font-weight:bold;""
                            >trustworthy</p>
                            <div style=""width:240px; margin: auto;"">
                                <img src=""images/gray_16.png"" style= ""width:200px""alt=""img"">
                            </div>
                        </div>","56","","0","images/gray_16.png","","","","trustworthy"
"","","","","","html-slider-response","79","300847","0.0-75.0","dmqvqv83zu","NaN","<div style=""width:500px;"">
                            <p style=""font-size:50px; font-weight:bold;""
                            >trustworthy</p>
                            <div style=""width:240px; margin: auto;"">
                                <img src=""images/gray_01.png"" style= ""width:200px""alt=""img"">
                            </div>
                        </div>","-86","","0","images/gray_01.png","","","","trustworthy"
"","","","","","html-slider-response","80","302495","0.0-76.0","dmqvqv83zu","NaN","<div style=""width:500px;"">
                            <p style=""font-size:50px; font-weight:bold;""
                            >trustworthy</p>
                            <div style=""width:240px; margin: auto;"">
                                <img src=""images/gray_06.png"" style= ""width:200px""alt=""img"">
                            </div>
                        </div>","-72","","0","images/gray_06.png","","","","trustworthy"
"","","","","","html-slider-response","81","304014","0.0-77.0","dmqvqv83zu","NaN","<div style=""width:500px;"">
                            <p style=""font-size:50px; font-weight:bold;""
                            >trustworthy</p>
                            <div style=""width:240px; margin: auto;"">
                                <img src=""images/gray_23.png"" style= ""width:200px""alt=""img"">
                            </div>
                        </div>","-79","","0","images/gray_23.png","","","","trustworthy"
"","","","","","html-slider-response","82","305683","0.0-78.0","dmqvqv83zu","NaN","<div style=""width:500px;"">
                            <p style=""font-size:50px; font-weight:bold;""
                            >trustworthy</p>
                            <div style=""width:240px; margin: auto;"">
                                <img src=""images/gray_36.png"" style= ""width:200px""alt=""img"">
                            </div>
                        </div>","60","","0","images/gray_36.png","","","","trustworthy"
"","","","","","html-slider-response","83","307160","0.0-79.0","dmqvqv83zu","NaN","<div style=""width:500px;"">
                            <p style=""font-size:50px; font-weight:bold;""
                            >trustworthy</p>
                            <div style=""width:240px; margin: auto;"">
                                <img src=""images/gray_32.png"" style= ""width:200px""alt=""img"">
                            </div>
                        </div>","-95","","0","images/gray_32.png","","","","trustworthy"
"","","","","","html-slider-response","84","309797","0.0-80.0","dmqvqv83zu","NaN","<div style=""width:500px;"">
                            <p style=""font-size:50px; font-weight:bold;""
                            >trustworthy</p>
                            <div style=""width:240px; margin: auto;"">
                                <img src=""images/gray_39.png"" style= ""width:200px""alt=""img"">
                            </div>
                        </div>","-59","","0","images/gray_39.png","","","","trustworthy"
"","","","","","html-slider-response","85","311304","0.0-81.0","dmqvqv83zu","NaN","<div style=""width:500px;"">
                            <p style=""font-size:50px; font-weight:bold;""
                            >trustworthy</p>
                            <div style=""width:240px; margin: auto;"">
                                <img src=""images/gray_38.png"" style= ""width:200px""alt=""img"">
                            </div>
                        </div>","2","","0","images/gray_38.png","","","","trustworthy"
"","","","","","html-slider-response","86","313088","0.0-82.0","dmqvqv83zu","NaN","<div style=""width:500px;"">
                            <p style=""font-size:50px; font-weight:bold;""
                            >trustworthy</p>
                            <div style=""width:240px; margin: auto;"">
                                <img src=""images/gray_11.png"" style= ""width:200px""alt=""img"">
                            </div>
                        </div>","-58","","0","images/gray_11.png","","","","trustworthy"
"","","","","","html-slider-response","87","315006","0.0-83.0","dmqvqv83zu","NaN","<div style=""width:500px;"">
                            <p style=""font-size:50px; font-weight:bold;""
                            >trustworthy</p>
                            <div style=""width:240px; margin: auto;"">
                                <img src=""images/gray_02.png"" style= ""width:200px""alt=""img"">
                            </div>
                        </div>","-62","","0","images/gray_02.png","","","","trustworthy"
"","","","","","html-slider-response","88","316774","0.0-84.0","dmqvqv83zu","NaN","<div style=""width:500px;"">
                            <p style=""font-size:50px; font-weight:bold;""
                            >trustworthy</p>
                            <div style=""width:240px; margin: auto;"">
                                <img src=""images/gray_41.png"" style= ""width:200px""alt=""img"">
                            </div>
                        </div>","-54","","0","images/gray_41.png","","","","trustworthy"
"","","","","","html-slider-response","89","318504","0.0-85.0","dmqvqv83zu","NaN","<div style=""width:500px;"">
                            <p style=""font-size:50px; font-weight:bold;""
                            >trustworthy</p>
                            <div style=""width:240px; margin: auto;"">
                                <img src=""images/gray_33.png"" style= ""width:200px""alt=""img"">
                            </div>
                        </div>","85","","0","images/gray_33.png","","","","trustworthy"
"","","","","","html-slider-response","90","320599","0.0-86.0","dmqvqv83zu","NaN","<div style=""width:500px;"">
                            <p style=""font-size:50px; font-weight:bold;""
                            >trustworthy</p>
                            <div style=""width:240px; margin: auto;"">
                                <img src=""images/gray_35.png"" style= ""width:200px""alt=""img"">
                            </div>
                        </div>","94","","0","images/gray_35.png","","","","trustworthy"
"","","","","","html-slider-response","91","323049","0.0-87.0","dmqvqv83zu","NaN","<div style=""width:500px;"">
                            <p style=""font-size:50px; font-weight:bold;""
                            >trustworthy</p>
                            <div style=""width:240px; margin: auto;"">
                                <img src=""images/gray_25.png"" style= ""width:200px""alt=""img"">
                            </div>
                        </div>","99","","0","images/gray_25.png","","","","trustworthy"
"","","","","","html-slider-response","92","324714","0.0-88.0","dmqvqv83zu","NaN","<div style=""width:500px;"">
                            <p style=""font-size:50px; font-weight:bold;""
                            >trustworthy</p>
                            <div style=""width:240px; margin: auto;"">
                                <img src=""images/gray_18.png"" style= ""width:200px""alt=""img"">
                            </div>
                        </div>","-104","","0","images/gray_18.png","","","","trustworthy"
"","","","","","html-slider-response","93","326539","0.0-89.0","dmqvqv83zu","NaN","<div style=""width:500px;"">
                            <p style=""font-size:50px; font-weight:bold;""
                            >trustworthy</p>
                            <div style=""width:240px; margin: auto;"">
                                <img src=""images/gray_08.png"" style= ""width:200px""alt=""img"">
                            </div>
                        </div>","125","","0","images/gray_08.png","","","","trustworthy"
"","","","","","html-slider-response","94","328614","0.0-90.0","dmqvqv83zu","NaN","<div style=""width:500px;"">
                            <p style=""font-size:50px; font-weight:bold;""
                            >trustworthy</p>
                            <div style=""width:240px; margin: auto;"">
                                <img src=""images/gray_04.png"" style= ""width:200px""alt=""img"">
                            </div>
                        </div>","-92","","0","images/gray_04.png","","","","trustworthy"
"","","","","","html-slider-response","95","330052","0.0-91.0","dmqvqv83zu","NaN","<div style=""width:500px;"">
                            <p style=""font-size:50px; font-weight:bold;""
                            >trustworthy</p>
                            <div style=""width:240px; margin: auto;"">
                                <img src=""images/gray_09.png"" style= ""width:200px""alt=""img"">
                            </div>
                        </div>","-106","","0","images/gray_09.png","","","","trustworthy"
"","","","","","html-slider-response","96","331993","0.0-92.0","dmqvqv83zu","NaN","<div style=""width:500px;"">
                            <p style=""font-size:50px; font-weight:bold;""
                            >trustworthy</p>
                            <div style=""width:240px; margin: auto;"">
                                <img src=""images/gray_17.png"" style= ""width:200px""alt=""img"">
                            </div>
                        </div>","108","","0","images/gray_17.png","","","","trustworthy"
"","","","","","html-slider-response","97","333659","0.0-93.0","dmqvqv83zu","NaN","<div style=""width:500px;"">
                            <p style=""font-size:50px; font-weight:bold;""
                            >trustworthy</p>
                            <div style=""width:240px; margin: auto;"">
                                <img src=""images/gray_19.png"" style= ""width:200px""alt=""img"">
                            </div>
                        </div>","-91","","0","images/gray_19.png","","","","trustworthy"
"","","","","","html-slider-response","98","335390","0.0-94.0","dmqvqv83zu","NaN","<div style=""width:500px;"">
                            <p style=""font-size:50px; font-weight:bold;""
                            >trustworthy</p>
                            <div style=""width:240px; margin: auto;"">
                                <img src=""images/gray_24.png"" style= ""width:200px""alt=""img"">
                            </div>
                        </div>","-109","","0","images/gray_24.png","","","","trustworthy"
"","","","","","html-slider-response","99","336880","0.0-95.0","dmqvqv83zu","NaN","<div style=""width:500px;"">
                            <p style=""font-size:50px; font-weight:bold;""
                            >trustworthy</p>
                            <div style=""width:240px; margin: auto;"">
                                <img src=""images/gray_37.png"" style= ""width:200px""alt=""img"">
                            </div>
                        </div>","-85","","0","images/gray_37.png","","","","trustworthy"
"","","","","","html-slider-response","100","337883","0.0-96.0","dmqvqv83zu","NaN","<div style=""width:500px;"">
                            <p style=""font-size:50px; font-weight:bold;""
                            >trustworthy</p>
                            <div style=""width:240px; margin: auto;"">
                                <img src=""images/gray_21.png"" style= ""width:200px""alt=""img"">
                            </div>
                        </div>","-96","","0","images/gray_21.png","","","","trustworthy"
"","","","","","html-slider-response","101","338798","0.0-97.0","dmqvqv83zu","NaN","<div style=""width:500px;"">
                            <p style=""font-size:50px; font-weight:bold;""
                            >trustworthy</p>
                            <div style=""width:240px; margin: auto;"">
                                <img src=""images/gray_34.png"" style= ""width:200px""alt=""img"">
                            </div>
                        </div>","-96","","0","images/gray_34.png","","","","trustworthy"
"","","","","","html-slider-response","102","339455","0.0-98.0","dmqvqv83zu","NaN","<div style=""width:500px;"">
                            <p style=""font-size:50px; font-weight:bold;""
                            >trustworthy</p>
                            <div style=""width:240px; margin: auto;"">
                                <img src=""images/gray_29.png"" style= ""width:200px""alt=""img"">
                            </div>
                        </div>","-126","","0","images/gray_29.png","","","","trustworthy"
"","","","","","html-slider-response","103","340137","0.0-99.0","dmqvqv83zu","NaN","<div style=""width:500px;"">
                            <p style=""font-size:50px; font-weight:bold;""
                            >trustworthy</p>
                            <div style=""width:240px; margin: auto;"">
                                <img src=""images/gray_13.png"" style= ""width:200px""alt=""img"">
                            </div>
                        </div>","-161","","0","images/gray_13.png","","","","trustworthy"
"","","","","","html-slider-response","104","340835","0.0-100.0","dmqvqv83zu","NaN","<div style=""width:500px;"">
                            <p style=""font-size:50px; font-weight:bold;""
                            >trustworthy</p>
                            <div style=""width:240px; margin: auto;"">
                                <img src=""images/gray_12.png"" style= ""width:200px""alt=""img"">
                            </div>
                        </div>","-85","","0","images/gray_12.png","","","","trustworthy"
"","","","","","html-slider-response","105","341519","0.0-101.0","dmqvqv83zu","NaN","<div style=""width:500px;"">
                            <p style=""font-size:50px; font-weight:bold;""
                            >trustworthy</p>
                            <div style=""width:240px; margin: auto;"">
                                <img src=""images/gray_42.png"" style= ""width:200px""alt=""img"">
                            </div>
                        </div>","-48","","0","images/gray_42.png","","","","trustworthy"
"","","","","","html-slider-response","106","342173","0.0-102.0","dmqvqv83zu","NaN","<div style=""width:500px;"">
                            <p style=""font-size:50px; font-weight:bold;""
                            >trustworthy</p>
                            <div style=""width:240px; margin: auto;"">
                                <img src=""images/gray_10.png"" style= ""width:200px""alt=""img"">
                            </div>
                        </div>","-104","","0","images/gray_10.png","","","","trustworthy"
"","","","","","html-slider-response","107","342845","0.0-103.0","dmqvqv83zu","NaN","<div style=""width:500px;"">
                            <p style=""font-size:50px; font-weight:bold;""
                            >trustworthy</p>
                            <div style=""width:240px; margin: auto;"">
                                <img src=""images/gray_26.png"" style= ""width:200px""alt=""img"">
                            </div>
                        </div>","-151","","0","images/gray_26.png","","","","trustworthy"
"","","","","","html-button-response","108","344754","0.0-104.0","dmqvqv83zu","1406","<p>Great Job! You've finished block 2.<br></br> You have 6 block(s) left to go.<br></br></p>","0","","","","","","",""
"","","","","","html-button-response","109","345465","0.0-105.0","dmqvqv83zu","708","<p>In this block of trials, you will be asked to rate how much you associate each map with:</p > <p style = 'font-size:150%; font-weight: bold'>calm</p><br></br>","0","","","","","","",""
"","","","","","html-slider-response","110","347325","0.0-106.0","dmqvqv83zu","NaN","<div style=""width:500px;"">
                            <p style=""font-size:50px; font-weight:bold;""
                            >calm</p>
                            <div style=""width:240px; margin: auto;"">
                                <img src=""images/gray_24.png"" style= ""width:200px""alt=""img"">
                            </div>
                        </div>","58","","0","images/gray_24.png","","","","calm"
"","","","","","html-slider-response","111","348910","0.0-107.0","dmqvqv83zu","NaN","<div style=""width:500px;"">
                            <p style=""font-size:50px; font-weight:bold;""
                            >calm</p>
                            <div style=""width:240px; margin: auto;"">
                                <img src=""images/gray_18.png"" style= ""width:200px""alt=""img"">
                            </div>
                        </div>","82","","0","images/gray_18.png","","","","calm"
"","","","","","html-slider-response","112","351318","0.0-108.0","dmqvqv83zu","NaN","<div style=""width:500px;"">
                            <p style=""font-size:50px; font-weight:bold;""
                            >calm</p>
                            <div style=""width:240px; margin: auto;"">
                                <img src=""images/gray_37.png"" style= ""width:200px""alt=""img"">
                            </div>
                        </div>","-83","","0","images/gray_37.png","","","","calm"
"","","","","","html-slider-response","113","353525","0.0-109.0","dmqvqv83zu","NaN","<div style=""width:500px;"">
                            <p style=""font-size:50px; font-weight:bold;""
                            >calm</p>
                            <div style=""width:240px; margin: auto;"">
                                <img src=""images/gray_34.png"" style= ""width:200px""alt=""img"">
                            </div>
                        </div>","-100","","0","images/gray_34.png","","","","calm"
"","","","","","html-slider-response","114","356023","0.0-110.0","dmqvqv83zu","NaN","<div style=""width:500px;"">
                            <p style=""font-size:50px; font-weight:bold;""
                            >calm</p>
                            <div style=""width:240px; margin: auto;"">
                                <img src=""images/gray_07.png"" style= ""width:200px""alt=""img"">
                            </div>
                        </div>","99","","0","images/gray_07.png","","","","calm"
"","","","","","html-slider-response","115","357755","0.0-111.0","dmqvqv83zu","NaN","<div style=""width:500px;"">
                            <p style=""font-size:50px; font-weight:bold;""
                            >calm</p>
                            <div style=""width:240px; margin: auto;"">
                                <img src=""images/gray_02.png"" style= ""width:200px""alt=""img"">
                            </div>
                        </div>","-70","","0","images/gray_02.png","","","","calm"
"","","","","","html-slider-response","116","359065","0.0-112.0","dmqvqv83zu","NaN","<div style=""width:500px;"">
                            <p style=""font-size:50px; font-weight:bold;""
                            >calm</p>
                            <div style=""width:240px; margin: auto;"">
                                <img src=""images/gray_38.png"" style= ""width:200px""alt=""img"">
                            </div>
                        </div>","-107","","0","images/gray_38.png","","","","calm"
"","","","","","html-slider-response","117","360366","0.0-113.0","dmqvqv83zu","NaN","<div style=""width:500px;"">
                            <p style=""font-size:50px; font-weight:bold;""
                            >calm</p>
                            <div style=""width:240px; margin: auto;"">
                                <img src=""images/gray_13.png"" style= ""width:200px""alt=""img"">
                            </div>
                        </div>","-99","","0","images/gray_13.png","","","","calm"
"","","","","","html-slider-response","118","361717","0.0-114.0","dmqvqv83zu","NaN","<div style=""width:500px;"">
                            <p style=""font-size:50px; font-weight:bold;""
                            >calm</p>
                            <div style=""width:240px; margin: auto;"">
                                <img src=""images/gray_11.png"" style= ""width:200px""alt=""img"">
                            </div>
                        </div>","76","","0","images/gray_11.png","","","","calm"
"","","","","","html-slider-response","119","363546","0.0-115.0","dmqvqv83zu","NaN","<div style=""width:500px;"">
                            <p style=""font-size:50px; font-weight:bold;""
                            >calm</p>
                            <div style=""width:240px; margin: auto;"">
                                <img src=""images/gray_29.png"" style= ""width:200px""alt=""img"">
                            </div>
                        </div>","108","","0","images/gray_29.png","","","","calm"
"","","","","","html-slider-response","120","364944","0.0-116.0","dmqvqv83zu","NaN","<div style=""width:500px;"">
                            <p style=""font-size:50px; font-weight:bold;""
                            >calm</p>
                            <div style=""width:240px; margin: auto;"">
                                <img src=""images/gray_21.png"" style= ""width:200px""alt=""img"">
                            </div>
                        </div>","106","","0","images/gray_21.png","","","","calm"
"","","","","","html-slider-response","121","366527","0.0-117.0","dmqvqv83zu","NaN","<div style=""width:500px;"">
                            <p style=""font-size:50px; font-weight:bold;""
                            >calm</p>
                            <div style=""width:240px; margin: auto;"">
                                <img src=""images/gray_42.png"" style= ""width:200px""alt=""img"">
                            </div>
                        </div>","-90","","0","images/gray_42.png","","","","calm"
"","","","","","html-slider-response","122","368278","0.0-118.0","dmqvqv83zu","NaN","<div style=""width:500px;"">
                            <p style=""font-size:50px; font-weight:bold;""
                            >calm</p>
                            <div style=""width:240px; margin: auto;"">
                                <img src=""images/gray_41.png"" style= ""width:200px""alt=""img"">
                            </div>
                        </div>","-53","","0","images/gray_41.png","","","","calm"
"","","","","","html-slider-response","123","370089","0.0-119.0","dmqvqv83zu","NaN","<div style=""width:500px;"">
                            <p style=""font-size:50px; font-weight:bold;""
                            >calm</p>
                            <div style=""width:240px; margin: auto;"">
                                <img src=""images/gray_30.png"" style= ""width:200px""alt=""img"">
                            </div>
                        </div>","151","","0","images/gray_30.png","","","","calm"
"","","","","","html-slider-response","124","371790","0.0-120.0","dmqvqv83zu","NaN","<div style=""width:500px;"">
                            <p style=""font-size:50px; font-weight:bold;""
                            >calm</p>
                            <div style=""width:240px; margin: auto;"">
                                <img src=""images/gray_22.png"" style= ""width:200px""alt=""img"">
                            </div>
                        </div>","-35","","0","images/gray_22.png","","","","calm"
"","","","","","html-slider-response","125","375261","0.0-121.0","dmqvqv83zu","NaN","<div style=""width:500px;"">
                            <p style=""font-size:50px; font-weight:bold;""
                            >calm</p>
                            <div style=""width:240px; margin: auto;"">
                                <img src=""images/gray_26.png"" style= ""width:200px""alt=""img"">
                            </div>
                        </div>","-82","","0","images/gray_26.png","","","","calm"
"","","","","","html-slider-response","126","376819","0.0-122.0","dmqvqv83zu","NaN","<div style=""width:500px;"">
                            <p style=""font-size:50px; font-weight:bold;""
                            >calm</p>
                            <div style=""width:240px; margin: auto;"">
                                <img src=""images/gray_20.png"" style= ""width:200px""alt=""img"">
                            </div>
                        </div>","68","","0","images/gray_20.png","","","","calm"
"","","","","","html-slider-response","127","378138","0.0-123.0","dmqvqv83zu","NaN","<div style=""width:500px;"">
                            <p style=""font-size:50px; font-weight:bold;""
                            >calm</p>
                            <div style=""width:240px; margin: auto;"">
                                <img src=""images/gray_05.png"" style= ""width:200px""alt=""img"">
                            </div>
                        </div>","-74","","0","images/gray_05.png","","","","calm"
"","","","","","html-slider-response","128","379450","0.0-124.0","dmqvqv83zu","NaN","<div style=""width:500px;"">
                            <p style=""font-size:50px; font-weight:bold;""
                            >calm</p>
                            <div style=""width:240px; margin: auto;"">
                                <img src=""images/gray_32.png"" style= ""width:200px""alt=""img"">
                            </div>
                        </div>","-75","","0","images/gray_32.png","","","","calm"
"","","","","","html-slider-response","129","380184","0.0-125.0","dmqvqv83zu","NaN","<div style=""width:500px;"">
                            <p style=""font-size:50px; font-weight:bold;""
                            >calm</p>
                            <div style=""width:240px; margin: auto;"">
                                <img src=""images/gray_14.png"" style= ""width:200px""alt=""img"">
                            </div>
                        </div>","-114","","0","images/gray_14.png","","","","calm"
"","","","","","html-slider-response","130","381303","0.0-126.0","dmqvqv83zu","NaN","<div style=""width:500px;"">
                            <p style=""font-size:50px; font-weight:bold;""
                            >calm</p>
                            <div style=""width:240px; margin: auto;"">
                                <img src=""images/gray_03.png"" style= ""width:200px""alt=""img"">
                            </div>
                        </div>","-132","","0","images/gray_03.png","","","","calm"
"","","","","","html-slider-response","131","382252","0.0-127.0","dmqvqv83zu","NaN","<div style=""width:500px;"">
                            <p style=""font-size:50px; font-weight:bold;""
                            >calm</p>
                            <div style=""width:240px; margin: auto;"">
                                <img src=""images/gray_33.png"" style= ""width:200px""alt=""img"">
                            </div>
                        </div>","-116","","0","images/gray_33.png","","","","calm"
"","","","","","html-slider-response","132","383450","0.0-128.0","dmqvqv83zu","NaN","<div style=""width:500px;"">
                            <p style=""font-size:50px; font-weight:bold;""
                            >calm</p>
                            <div style=""width:240px; margin: auto;"">
                                <img src=""images/gray_25.png"" style= ""width:200px""alt=""img"">
                            </div>
                        </div>","-116","","0","images/gray_25.png","","","","calm"
"","","","","","html-slider-response","133","386282","0.0-129.0","dmqvqv83zu","NaN","<div style=""width:500px;"">
                            <p style=""font-size:50px; font-weight:bold;""
                            >calm</p>
                            <div style=""width:240px; margin: auto;"">
                                <img src=""images/gray_08.png"" style= ""width:200px""alt=""img"">
                            </div>
                        </div>","-59","","0","images/gray_08.png","","","","calm"
"","","","","","html-slider-response","134","387818","0.0-130.0","dmqvqv83zu","NaN","<div style=""width:500px;"">
                            <p style=""font-size:50px; font-weight:bold;""
                            >calm</p>
                            <div style=""width:240px; margin: auto;"">
                                <img src=""images/gray_43.png"" style= ""width:200px""alt=""img"">
                            </div>
                        </div>","-104","","0","images/gray_43.png","","","","calm"
"","","","","","html-slider-response","135","389346","0.0-131.0","dmqvqv83zu","NaN","<div style=""width:500px;"">
                            <p style=""font-size:50px; font-weight:bold;""
                            >calm</p>
                            <div style=""width:240px; margin: auto;"">
                                <img src=""images/gray_15.png"" style= ""width:200px""alt=""img"">
                            </div>
                        </div>","-82","","0","images/gray_15.png","","","","calm"
"","","","","","html-slider-response","136","390777","0.0-132.0","dmqvqv83zu","NaN","<div style=""width:500px;"">
                            <p style=""font-size:50px; font-weight:bold;""
                            >calm</p>
                            <div style=""width:240px; margin: auto;"">
                                <img src=""images/gray_27.png"" style= ""width:200px""alt=""img"">
                            </div>
                        </div>","-89","","0","images/gray_27.png","","","","calm"
"","","","","","html-slider-response","137","391942","0.0-133.0","dmqvqv83zu","NaN","<div style=""width:500px;"">
                            <p style=""font-size:50px; font-weight:bold;""
                            >calm</p>
                            <div style=""width:240px; margin: auto;"">
                                <img src=""images/gray_01.png"" style= ""width:200px""alt=""img"">
                            </div>
                        </div>","-104","","0","images/gray_01.png","","","","calm"
"","","","","","html-slider-response","138","392793","0.0-134.0","dmqvqv83zu","NaN","<div style=""width:500px;"">
                            <p style=""font-size:50px; font-weight:bold;""
                            >calm</p>
                            <div style=""width:240px; margin: auto;"">
                                <img src=""images/gray_16.png"" style= ""width:200px""alt=""img"">
                            </div>
                        </div>","-102","","0","images/gray_16.png","","","","calm"
"","","","","","html-slider-response","139","393659","0.0-135.0","dmqvqv83zu","NaN","<div style=""width:500px;"">
                            <p style=""font-size:50px; font-weight:bold;""
                            >calm</p>
                            <div style=""width:240px; margin: auto;"">
                                <img src=""images/gray_17.png"" style= ""width:200px""alt=""img"">
                            </div>
                        </div>","-102","","0","images/gray_17.png","","","","calm"
"","","","","","html-slider-response","140","394461","0.0-136.0","dmqvqv83zu","NaN","<div style=""width:500px;"">
                            <p style=""font-size:50px; font-weight:bold;""
                            >calm</p>
                            <div style=""width:240px; margin: auto;"">
                                <img src=""images/gray_12.png"" style= ""width:200px""alt=""img"">
                            </div>
                        </div>","-102","","0","images/gray_12.png","","","","calm"
"","","","","","html-slider-response","141","395179","0.0-137.0","dmqvqv83zu","NaN","<div style=""width:500px;"">
                            <p style=""font-size:50px; font-weight:bold;""
                            >calm</p>
                            <div style=""width:240px; margin: auto;"">
                                <img src=""images/gray_04.png"" style= ""width:200px""alt=""img"">
                            </div>
                        </div>","-102","","0","images/gray_04.png","","","","calm"
"","","","","","html-slider-response","142","395824","0.0-138.0","dmqvqv83zu","NaN","<div style=""width:500px;"">
                            <p style=""font-size:50px; font-weight:bold;""
                            >calm</p>
                            <div style=""width:240px; margin: auto;"">
                                <img src=""images/gray_09.png"" style= ""width:200px""alt=""img"">
                            </div>
                        </div>","-102","","0","images/gray_09.png","","","","calm"
"","","","","","html-slider-response","143","396509","0.0-139.0","dmqvqv83zu","NaN","<div style=""width:500px;"">
                            <p style=""font-size:50px; font-weight:bold;""
                            >calm</p>
                            <div style=""width:240px; margin: auto;"">
                                <img src=""images/gray_44.png"" style= ""width:200px""alt=""img"">
                            </div>
                        </div>","-102","","0","images/gray_44.png","","","","calm"
"","","","","","html-slider-response","144","397187","0.0-140.0","dmqvqv83zu","NaN","<div style=""width:500px;"">
                            <p style=""font-size:50px; font-weight:bold;""
                            >calm</p>
                            <div style=""width:240px; margin: auto;"">
                                <img src=""images/gray_40.png"" style= ""width:200px""alt=""img"">
                            </div>
                        </div>","-102","","0","images/gray_40.png","","","","calm"
"","","","","","html-slider-response","145","397871","0.0-141.0","dmqvqv83zu","NaN","<div style=""width:500px;"">
                            <p style=""font-size:50px; font-weight:bold;""
                            >calm</p>
                            <div style=""width:240px; margin: auto;"">
                                <img src=""images/gray_10.png"" style= ""width:200px""alt=""img"">
                            </div>
                        </div>","-102","","0","images/gray_10.png","","","","calm"
"","","","","","html-slider-response","146","398591","0.0-142.0","dmqvqv83zu","NaN","<div style=""width:500px;"">
                            <p style=""font-size:50px; font-weight:bold;""
                            >calm</p>
                            <div style=""width:240px; margin: auto;"">
                                <img src=""images/gray_39.png"" style= ""width:200px""alt=""img"">
                            </div>
                        </div>","-102","","0","images/gray_39.png","","","","calm"
"","","","","","html-slider-response","147","399295","0.0-143.0","dmqvqv83zu","NaN","<div style=""width:500px;"">
                            <p style=""font-size:50px; font-weight:bold;""
                            >calm</p>
                            <div style=""width:240px; margin: auto;"">
                                <img src=""images/gray_19.png"" style= ""width:200px""alt=""img"">
                            </div>
                        </div>","-102","","0","images/gray_19.png","","","","calm"
"","","","","","html-slider-response","148","400003","0.0-144.0","dmqvqv83zu","NaN","<div style=""width:500px;"">
                            <p style=""font-size:50px; font-weight:bold;""
                            >calm</p>
                            <div style=""width:240px; margin: auto;"">
                                <img src=""images/gray_23.png"" style= ""width:200px""alt=""img"">
                            </div>
                        </div>","-102","","0","images/gray_23.png","","","","calm"
"","","","","","html-slider-response","149","400720","0.0-145.0","dmqvqv83zu","NaN","<div style=""width:500px;"">
                            <p style=""font-size:50px; font-weight:bold;""
                            >calm</p>
                            <div style=""width:240px; margin: auto;"">
                                <img src=""images/gray_06.png"" style= ""width:200px""alt=""img"">
                            </div>
                        </div>","-102","","0","images/gray_06.png","","","","calm"
"","","","","","html-slider-response","150","401704","0.0-146.0","dmqvqv83zu","NaN","<div style=""width:500px;"">
                            <p style=""font-size:50px; font-weight:bold;""
                            >calm</p>
                            <div style=""width:240px; margin: auto;"">
                                <img src=""images/gray_28.png"" style= ""width:200px""alt=""img"">
                            </div>
                        </div>","-102","","0","images/gray_28.png","","","","calm"
"","","","","","html-slider-response","151","402636","0.0-147.0","dmqvqv83zu","NaN","<div style=""width:500px;"">
                            <p style=""font-size:50px; font-weight:bold;""
                            >calm</p>
                            <div style=""width:240px; margin: auto;"">
                                <img src=""images/gray_35.png"" style= ""width:200px""alt=""img"">
                            </div>
                        </div>","-102","","0","images/gray_35.png","","","","calm"
"","","","","","html-slider-response","152","403506","0.0-148.0","dmqvqv83zu","NaN","<div style=""width:500px;"">
                            <p style=""font-size:50px; font-weight:bold;""
                            >calm</p>
                            <div style=""width:240px; margin: auto;"">
                                <img src=""images/gray_31.png"" style= ""width:200px""alt=""img"">
                            </div>
                        </div>","-102","","0","images/gray_31.png","","","","calm"
"","","","","","html-slider-response","153","404155","0.0-149.0","dmqvqv83zu","NaN","<div style=""width:500px;"">
                            <p style=""font-size:50px; font-weight:bold;""
                            >calm</p>
                            <div style=""width:240px; margin: auto;"">
                                <img src=""images/gray_36.png"" style= ""width:200px""alt=""img"">
                            </div>
                        </div>","-123","","0","images/gray_36.png","","","","calm"
"","","","","","html-button-response","154","406118","0.0-150.0","dmqvqv83zu","1461","<p>Great Job! You've finished block 3.<br></br> You have 5 block(s) left to go.<br></br></p>","0","","","","","","",""
"","","","","","html-button-response","155","406589","0.0-151.0","dmqvqv83zu","467","<p>In this block of trials, you will be asked to rate how much you associate each map with:</p > <p style = 'font-size:150%; font-weight: bold'>negative</p><br></br>","0","","","","","","",""
"","","","","","html-slider-response","156","408353","0.0-152.0","dmqvqv83zu","NaN","<div style=""width:500px;"">
                            <p style=""font-size:50px; font-weight:bold;""
                            >negative</p>
                            <div style=""width:240px; margin: auto;"">
                                <img src=""images/gray_41.png"" style= ""width:200px""alt=""img"">
                            </div>
                        </div>","-70","","0","images/gray_41.png","","","","negative"
"","","","","","html-slider-response","157","409160","0.0-153.0","dmqvqv83zu","NaN","<div style=""width:500px;"">
                            <p style=""font-size:50px; font-weight:bold;""
                            >negative</p>
                            <div style=""width:240px; margin: auto;"">
                                <img src=""images/gray_16.png"" style= ""width:200px""alt=""img"">
                            </div>
                        </div>","-37","","0","images/gray_16.png","","","","negative"
"","","","","","html-slider-response","158","410073","0.0-154.0","dmqvqv83zu","NaN","<div style=""width:500px;"">
                            <p style=""font-size:50px; font-weight:bold;""
                            >negative</p>
                            <div style=""width:240px; margin: auto;"">
                                <img src=""images/gray_24.png"" style= ""width:200px""alt=""img"">
                            </div>
                        </div>","-118","","0","images/gray_24.png","","","","negative"
"","","","","","html-slider-response","159","410944","0.0-155.0","dmqvqv83zu","NaN","<div style=""width:500px;"">
                            <p style=""font-size:50px; font-weight:bold;""
                            >negative</p>
                            <div style=""width:240px; margin: auto;"">
                                <img src=""images/gray_15.png"" style= ""width:200px""alt=""img"">
                            </div>
                        </div>","-152","","0","images/gray_15.png","","","","negative"
"","","","","","html-slider-response","160","411779","0.0-156.0","dmqvqv83zu","NaN","<div style=""width:500px;"">
                            <p style=""font-size:50px; font-weight:bold;""
                            >negative</p>
                            <div style=""width:240px; margin: auto;"">
                                <img src=""images/gray_03.png"" style= ""width:200px""alt=""img"">
                            </div>
                        </div>","-131","","0","images/gray_03.png","","","","negative"
"","","","","","html-slider-response","161","412627","0.0-157.0","dmqvqv83zu","NaN","<div style=""width:500px;"">
                            <p style=""font-size:50px; font-weight:bold;""
                            >negative</p>
                            <div style=""width:240px; margin: auto;"">
                                <img src=""images/gray_20.png"" style= ""width:200px""alt=""img"">
                            </div>
                        </div>","-114","","0","images/gray_20.png","","","","negative"
"","","","","","html-slider-response","162","415098","0.0-158.0","dmqvqv83zu","NaN","<div style=""width:500px;"">
                            <p style=""font-size:50px; font-weight:bold;""
                            >negative</p>
                            <div style=""width:240px; margin: auto;"">
                                <img src=""images/gray_17.png"" style= ""width:200px""alt=""img"">
                            </div>
                        </div>","-119","","0","images/gray_17.png","","","","negative"
"","","","","","html-slider-response","163","415827","0.0-159.0","dmqvqv83zu","NaN","<div style=""width:500px;"">
                            <p style=""font-size:50px; font-weight:bold;""
                            >negative</p>
                            <div style=""width:240px; margin: auto;"">
                                <img src=""images/gray_34.png"" style= ""width:200px""alt=""img"">
                            </div>
                        </div>","-136","","0","images/gray_34.png","","","","negative"
"","","","","","html-slider-response","164","416544","0.0-160.0","dmqvqv83zu","NaN","<div style=""width:500px;"">
                            <p style=""font-size:50px; font-weight:bold;""
                            >negative</p>
                            <div style=""width:240px; margin: auto;"">
                                <img src=""images/gray_11.png"" style= ""width:200px""alt=""img"">
                            </div>
                        </div>","-184","","0","images/gray_11.png","","","","negative"
"","","","","","html-slider-response","165","417278","0.0-161.0","dmqvqv83zu","NaN","<div style=""width:500px;"">
                            <p style=""font-size:50px; font-weight:bold;""
                            >negative</p>
                            <div style=""width:240px; margin: auto;"">
                                <img src=""images/gray_19.png"" style= ""width:200px""alt=""img"">
                            </div>
                        </div>","-159","","0","images/gray_19.png","","","","negative"
"","","","","","html-slider-response","166","417974","0.0-162.0","dmqvqv83zu","NaN","<div style=""width:500px;"">
                            <p style=""font-size:50px; font-weight:bold;""
                            >negative</p>
                            <div style=""width:240px; margin: auto;"">
                                <img src=""images/gray_05.png"" style= ""width:200px""alt=""img"">
                            </div>
                        </div>","-126","","0","images/gray_05.png","","","","negative"
"","","","","","html-slider-response","167","418673","0.0-163.0","dmqvqv83zu","NaN","<div style=""width:500px;"">
                            <p style=""font-size:50px; font-weight:bold;""
                            >negative</p>
                            <div style=""width:240px; margin: auto;"">
                                <img src=""images/gray_27.png"" style= ""width:200px""alt=""img"">
                            </div>
                        </div>","-72","","0","images/gray_27.png","","","","negative"
"","","","","","html-slider-response","168","419420","0.0-164.0","dmqvqv83zu","NaN","<div style=""width:500px;"">
                            <p style=""font-size:50px; font-weight:bold;""
                            >negative</p>
                            <div style=""width:240px; margin: auto;"">
                                <img src=""images/gray_18.png"" style= ""width:200px""alt=""img"">
                            </div>
                        </div>","-4","","0","images/gray_18.png","","","","negative"
"","","","","","html-slider-response","169","420175","0.0-165.0","dmqvqv83zu","NaN","<div style=""width:500px;"">
                            <p style=""font-size:50px; font-weight:bold;""
                            >negative</p>
                            <div style=""width:240px; margin: auto;"">
                                <img src=""images/gray_31.png"" style= ""width:200px""alt=""img"">
                            </div>
                        </div>","-34","","0","images/gray_31.png","","","","negative"
"","","","","","html-slider-response","170","420873","0.0-166.0","dmqvqv83zu","NaN","<div style=""width:500px;"">
                            <p style=""font-size:50px; font-weight:bold;""
                            >negative</p>
                            <div style=""width:240px; margin: auto;"">
                                <img src=""images/gray_06.png"" style= ""width:200px""alt=""img"">
                            </div>
                        </div>","-77","","0","images/gray_06.png","","","","negative"
"","","","","","html-slider-response","171","421590","0.0-167.0","dmqvqv83zu","NaN","<div style=""width:500px;"">
                            <p style=""font-size:50px; font-weight:bold;""
                            >negative</p>
                            <div style=""width:240px; margin: auto;"">
                                <img src=""images/gray_43.png"" style= ""width:200px""alt=""img"">
                            </div>
                        </div>","-115","","0","images/gray_43.png","","","","negative"
"","","","","","html-slider-response","172","422244","0.0-168.0","dmqvqv83zu","NaN","<div style=""width:500px;"">
                            <p style=""font-size:50px; font-weight:bold;""
                            >negative</p>
                            <div style=""width:240px; margin: auto;"">
                                <img src=""images/gray_04.png"" style= ""width:200px""alt=""img"">
                            </div>
                        </div>","-142","","0","images/gray_04.png","","","","negative"
"","","","","","html-slider-response","173","422921","0.0-169.0","dmqvqv83zu","NaN","<div style=""width:500px;"">
                            <p style=""font-size:50px; font-weight:bold;""
                            >negative</p>
                            <div style=""width:240px; margin: auto;"">
                                <img src=""images/gray_30.png"" style= ""width:200px""alt=""img"">
                            </div>
                        </div>","-162","","0","images/gray_30.png","","","","negative"
"","","","","","html-slider-response","174","423591","0.0-170.0","dmqvqv83zu","NaN","<div style=""width:500px;"">
                            <p style=""font-size:50px; font-weight:bold;""
                            >negative</p>
                            <div style=""width:240px; margin: auto;"">
                                <img src=""images/gray_22.png"" style= ""width:200px""alt=""img"">
                            </div>
                        </div>","-177","","0","images/gray_22.png","","","","negative"
"","","","","","html-slider-response","175","424839","0.0-171.0","dmqvqv83zu","NaN","<div style=""width:500px;"">
                            <p style=""font-size:50px; font-weight:bold;""
                            >negative</p>
                            <div style=""width:240px; margin: auto;"">
                                <img src=""images/gray_44.png"" style= ""width:200px""alt=""img"">
                            </div>
                        </div>","-168","","0","images/gray_44.png","","","","negative"
"","","","","","html-slider-response","176","427939","0.0-172.0","dmqvqv83zu","NaN","<div style=""width:500px;"">
                            <p style=""font-size:50px; font-weight:bold;""
                            >negative</p>
                            <div style=""width:240px; margin: auto;"">
                                <img src=""images/gray_40.png"" style= ""width:200px""alt=""img"">
                            </div>
                        </div>","-138","","0","images/gray_40.png","","","","negative"
"","","","","","html-slider-response","177","428700","0.0-173.0","dmqvqv83zu","NaN","<div style=""width:500px;"">
                            <p style=""font-size:50px; font-weight:bold;""
                            >negative</p>
                            <div style=""width:240px; margin: auto;"">
                                <img src=""images/gray_28.png"" style= ""width:200px""alt=""img"">
                            </div>
                        </div>","-123","","0","images/gray_28.png","","","","negative"
"","","","","","html-slider-response","178","429450","0.0-174.0","dmqvqv83zu","NaN","<div style=""width:500px;"">
                            <p style=""font-size:50px; font-weight:bold;""
                            >negative</p>
                            <div style=""width:240px; margin: auto;"">
                                <img src=""images/gray_09.png"" style= ""width:200px""alt=""img"">
                            </div>
                        </div>","-107","","0","images/gray_09.png","","","","negative"
"","","","","","html-slider-response","179","430921","0.0-175.0","dmqvqv83zu","NaN","<div style=""width:500px;"">
                            <p style=""font-size:50px; font-weight:bold;""
                            >negative</p>
                            <div style=""width:240px; margin: auto;"">
                                <img src=""images/gray_39.png"" style= ""width:200px""alt=""img"">
                            </div>
                        </div>","-129","","0","images/gray_39.png","","","","negative"
"","","","","","html-slider-response","180","431716","0.0-176.0","dmqvqv83zu","NaN","<div style=""width:500px;"">
                            <p style=""font-size:50px; font-weight:bold;""
                            >negative</p>
                            <div style=""width:240px; margin: auto;"">
                                <img src=""images/gray_01.png"" style= ""width:200px""alt=""img"">
                            </div>
                        </div>","-146","","0","images/gray_01.png","","","","negative"
"","","","","","html-slider-response","181","432371","0.0-177.0","dmqvqv83zu","NaN","<div style=""width:500px;"">
                            <p style=""font-size:50px; font-weight:bold;""
                            >negative</p>
                            <div style=""width:240px; margin: auto;"">
                                <img src=""images/gray_23.png"" style= ""width:200px""alt=""img"">
                            </div>
                        </div>","-172","","0","images/gray_23.png","","","","negative"
"","","","","","html-slider-response","182","433049","0.0-178.0","dmqvqv83zu","NaN","<div style=""width:500px;"">
                            <p style=""font-size:50px; font-weight:bold;""
                            >negative</p>
                            <div style=""width:240px; margin: auto;"">
                                <img src=""images/gray_10.png"" style= ""width:200px""alt=""img"">
                            </div>
                        </div>","-173","","0","images/gray_10.png","","","","negative"
"","","","","","html-slider-response","183","434365","0.0-179.0","dmqvqv83zu","NaN","<div style=""width:500px;"">
                            <p style=""font-size:50px; font-weight:bold;""
                            >negative</p>
                            <div style=""width:240px; margin: auto;"">
                                <img src=""images/gray_02.png"" style= ""width:200px""alt=""img"">
                            </div>
                        </div>","-152","","0","images/gray_02.png","","","","negative"
"","","","","","html-slider-response","184","435117","0.0-180.0","dmqvqv83zu","NaN","<div style=""width:500px;"">
                            <p style=""font-size:50px; font-weight:bold;""
                            >negative</p>
                            <div style=""width:240px; margin: auto;"">
                                <img src=""images/gray_32.png"" style= ""width:200px""alt=""img"">
                            </div>
                        </div>","-100","","0","images/gray_32.png","","","","negative"
"","","","","","html-slider-response","185","436497","0.0-181.0","dmqvqv83zu","NaN","<div style=""width:500px;"">
                            <p style=""font-size:50px; font-weight:bold;""
                            >negative</p>
                            <div style=""width:240px; margin: auto;"">
                                <img src=""images/gray_21.png"" style= ""width:200px""alt=""img"">
                            </div>
                        </div>","-82","","0","images/gray_21.png","","","","negative"
"","","","","","html-slider-response","186","437447","0.0-182.0","dmqvqv83zu","NaN","<div style=""width:500px;"">
                            <p style=""font-size:50px; font-weight:bold;""
                            >negative</p>
                            <div style=""width:240px; margin: auto;"">
                                <img src=""images/gray_08.png"" style= ""width:200px""alt=""img"">
                            </div>
                        </div>","-68","","0","images/gray_08.png","","","","negative"
"","","","","","html-slider-response","187","438246","0.0-183.0","dmqvqv83zu","NaN","<div style=""width:500px;"">
                            <p style=""font-size:50px; font-weight:bold;""
                            >negative</p>
                            <div style=""width:240px; margin: auto;"">
                                <img src=""images/gray_25.png"" style= ""width:200px""alt=""img"">
                            </div>
                        </div>","-114","","0","images/gray_25.png","","","","negative"
"","","","","","html-slider-response","188","438960","0.0-184.0","dmqvqv83zu","NaN","<div style=""width:500px;"">
                            <p style=""font-size:50px; font-weight:bold;""
                            >negative</p>
                            <div style=""width:240px; margin: auto;"">
                                <img src=""images/gray_35.png"" style= ""width:200px""alt=""img"">
                            </div>
                        </div>","-144","","0","images/gray_35.png","","","","negative"
"","","","","","html-slider-response","189","439714","0.0-185.0","dmqvqv83zu","NaN","<div style=""width:500px;"">
                            <p style=""font-size:50px; font-weight:bold;""
                            >negative</p>
                            <div style=""width:240px; margin: auto;"">
                                <img src=""images/gray_42.png"" style= ""width:200px""alt=""img"">
                            </div>
                        </div>","-63","","0","images/gray_42.png","","","","negative"
"","","","","","html-slider-response","190","440424","0.0-186.0","dmqvqv83zu","NaN","<div style=""width:500px;"">
                            <p style=""font-size:50px; font-weight:bold;""
                            >negative</p>
                            <div style=""width:240px; margin: auto;"">
                                <img src=""images/gray_13.png"" style= ""width:200px""alt=""img"">
                            </div>
                        </div>","-90","","0","images/gray_13.png","","","","negative"
"","","","","","html-slider-response","191","441127","0.0-187.0","dmqvqv83zu","NaN","<div style=""width:500px;"">
                            <p style=""font-size:50px; font-weight:bold;""
                            >negative</p>
                            <div style=""width:240px; margin: auto;"">
                                <img src=""images/gray_37.png"" style= ""width:200px""alt=""img"">
                            </div>
                        </div>","-138","","0","images/gray_37.png","","","","negative"
"","","","","","html-slider-response","192","441909","0.0-188.0","dmqvqv83zu","NaN","<div style=""width:500px;"">
                            <p style=""font-size:50px; font-weight:bold;""
                            >negative</p>
                            <div style=""width:240px; margin: auto;"">
                                <img src=""images/gray_36.png"" style= ""width:200px""alt=""img"">
                            </div>
                        </div>","-170","","0","images/gray_36.png","","","","negative"
"","","","","","html-slider-response","193","442595","0.0-189.0","dmqvqv83zu","NaN","<div style=""width:500px;"">
                            <p style=""font-size:50px; font-weight:bold;""
                            >negative</p>
                            <div style=""width:240px; margin: auto;"">
                                <img src=""images/gray_12.png"" style= ""width:200px""alt=""img"">
                            </div>
                        </div>","-84","","0","images/gray_12.png","","","","negative"
"","","","","","html-slider-response","194","443377","0.0-190.0","dmqvqv83zu","NaN","<div style=""width:500px;"">
                            <p style=""font-size:50px; font-weight:bold;""
                            >negative</p>
                            <div style=""width:240px; margin: auto;"">
                                <img src=""images/gray_38.png"" style= ""width:200px""alt=""img"">
                            </div>
                        </div>","-60","","0","images/gray_38.png","","","","negative"
"","","","","","html-slider-response","195","445509","0.0-191.0","dmqvqv83zu","NaN","<div style=""width:500px;"">
                            <p style=""font-size:50px; font-weight:bold;""
                            >negative</p>
                            <div style=""width:240px; margin: auto;"">
                                <img src=""images/gray_14.png"" style= ""width:200px""alt=""img"">
                            </div>
                        </div>","-135","","0","images/gray_14.png","","","","negative"
"","","","","","html-slider-response","196","450723","0.0-192.0","dmqvqv83zu","NaN","<div style=""width:500px;"">
                            <p style=""font-size:50px; font-weight:bold;""
                            >negative</p>
                            <div style=""width:240px; margin: auto;"">
                                <img src=""images/gray_26.png"" style= ""width:200px""alt=""img"">
                            </div>
                        </div>","-135","","0","images/gray_26.png","","","","negative"
"","","","","","html-slider-response","197","451521","0.0-193.0","dmqvqv83zu","NaN","<div style=""width:500px;"">
                            <p style=""font-size:50px; font-weight:bold;""
                            >negative</p>
                            <div style=""width:240px; margin: auto;"">
                                <img src=""images/gray_07.png"" style= ""width:200px""alt=""img"">
                            </div>
                        </div>","-99","","0","images/gray_07.png","","","","negative"
"","","","","","html-slider-response","198","452305","0.0-194.0","dmqvqv83zu","NaN","<div style=""width:500px;"">
                            <p style=""font-size:50px; font-weight:bold;""
