"success","timeout","failed_images","failed_audio","failed_video","trial_type","trial_index","time_elapsed","internal_node_id","subject_id","rt","stimulus","response","question_order","slider_start","image_path","practiceTrial","practiceTrialNum","correct","concept"
"true","false","[]","[]","[]","preload","0","838","0.0-0.0","f3h03n4xd4","","","","","","","","","",""
"","","","","","html-button-response","1","1722","0.0-1.0","f3h03n4xd4","882","Welcome to our experiment!<p>At the bottom of this screen, you will see a button that says ""Begin Experiment"".<br>Please only click that button when you are ready to complete the 25 minute experiment in one sitting.</p><p> Once you click that button, it will not be possible to restart the experiment.","0","","","","","","",""
"true","","","","","fullscreen","2","3456","0.0-2.0","f3h03n4xd4","729","","","","","","","","",""
"","","","","","survey-multi-select","3","11852","0.0-3.0","f3h03n4xd4","8391","","{""Consent"":[""<strong>I consent</strong>""]}","[0]","","","","","",""
"","","","","","html-button-response","4","13785","0.0-4.0","f3h03n4xd4","1927","Welcome! <p> This experiment involves two parts: demographic information, followed by the experimental task.<p> It will take about 25 minutes to complete both parts.","0","","","","","","",""
"","","","","","survey-text","5","27314","0.0-5.0","f3h03n4xd4","13514","","{""Age"":""18"",""Gender"":""Female"",""Race/ethnicity"":""White"",""Languages"":""English""}","","","","","","",""
"","","","","","html-slider-response","6","61129","0.0-6.0","f3h03n4xd4","33812","
            <div style='text-align:left; font-size:20px; line-height:25px; width: 1200px;'>
                During this experiment you will be asked to rate how much you associate maps with    different concepts.<br> Below, you can see some examples of the maps you will be asked to rate. Next to the maps
    is the list of concepts.<br>You will be asked    to rate how much you associate each map with each concept on a scale from 'not at all' to 'very much' like the
    one below. <br><br>
    Now, please look at the list of concepts and maps. For each concept, think about the map you associate 'very
    much' with the concept.<br>     When you see that map during the experiment, please rate it near the 'very much' endpoint of the
    scale.<br>Now, please think about which map you associate 'not at all'     with each concept. When you see that map during the experiment, please rate it near the 'not at all' endpoint
    of the scale.<br>
    Please use the full range of the scale. That is, if a map is somewhat associated with the concept, you would
    click partway between the middle point and right side of the scale.    You will be asked to rate each map for a given concept before moving on to the next concept.<br><br>Press the
    'Continue' button for instructions on how to use the slider.    <br><br>
</div>

<div style=""width: 500px; margin: 0 auto;"">
    <div style=""text-align: left; width: 200px; float: left;"">
        <p style=""font-size:25px; line-height:18px;"">calm</p>
        <p style=""font-size:25px; line-height:18px;"">exciting</p>
        <p style=""font-size:25px;line-height:18px;"">positive</p>
        <p style=""font-size:25px;line-height:18px;"">negative</p>
        <p style=""font-size:25px;line-height:18px;"">serious</p>
        <p style=""font-size:25px;line-height:18px;"">playful</p>
        <p style=""font-size:25px;line-height:18px;"">trustworthy</p>
        <p style=""font-size:25px;line-height:18px;"">disturbing</p>
    </div>
    <div style=""width: 200px; float: right; padding-top:15px; padding-right:40px"">
        <br>
        <br>
        <img src=""maps_anchoring.png"" alt=""img"" style=""max-width:500px"">
    </div>
    <div style=""clear: both;""></div>
</div>
            ","1","","0","maps_anchoring.png","true","","",""
"","","","","","html-button-response","7","63006","0.0-7.0","f3h03n4xd4","1874","<div style=""width:800px;""><p style=""text-align:left"">To move the slider, click and drag your cursor to the location of the scale where you would like to make your rating and then let go. When you let go of the slider, your response will be recorded and the next trial will begin. <br>
            We are interested in your initial impressions of each map for the given concept, so please go with your first intuition. <br>
            Before you begin the experiment, there will be four training trials for you to practice using the scale. <br>
             When you are ready to start the training trials, please click ""Continue"".</p><br></div>","0","","","","","","",""
"","","","","","html-slider-response","8","66290","0.0-8.0-0.0","f3h03n4xd4","NaN","<div style=""width:500px;"">
                            <p style=""font-size:25px;"">Please move the slider all the way to the <br> right endpoint of the scale</p>

                            </div>
                        </div>","200","","0","","true","0","true",""
"","","","","","html-button-response","9","67832","0.0-8.0-1.0","f3h03n4xd4","1039","<p align='center'><b>Good job!</b> Click on 'Continue' to proceed.</p>","0","","","","","","",""
"","","","","","html-slider-response","10","70090","0.0-9.0-0.0","f3h03n4xd4","NaN","<div style=""width:500px;"">
                            <p style=""font-size:25px;"">Please move the slider all the way to the <br> left endpoint of the scale</p>

                            </div>
                        </div>","-200","","0","","true","1","true",""
"","","","","","html-button-response","11","71641","0.0-9.0-1.0","f3h03n4xd4","1048","<p align='center'><b>Good job!</b> Click on 'Continue' to proceed.</p>","0","","","","","","",""
"","","","","","html-slider-response","12","77156","0.0-10.0-0.0","f3h03n4xd4","NaN","<div style=""width:500px;"">
                            <p style=""font-size:25px;"">Please move the slider halfway between the center and right endpoint of the scale</p>

                            </div>
                        </div>","99","","0","","true","2","true",""
"","","","","","html-button-response","13","78649","0.0-10.0-1.0","f3h03n4xd4","991","<p align='center'><b>Good job!</b> Click on 'Continue' to proceed.</p>","0","","","","","","",""
"","","","","","html-slider-response","14","80651","0.0-11.0-0.0","f3h03n4xd4","NaN","<div style=""width:500px;"">
                            <p style=""font-size:25px;"">Please move the slider halfway between the center and left endpoint of the scale</p>

                            </div>
                        </div>","-110","","0","","true","3","true",""
"","","","","","html-button-response","15","82005","0.0-11.0-1.0","f3h03n4xd4","850","<p align='center'><b>Good job!</b> Click on 'Continue' to proceed.</p>","0","","","","","","",""
"","","","","","html-button-response","16","82893","0.0-12.0","f3h03n4xd4","887","<p>Great job! You've completed the practice trials. Now you will begin the main task.</p>","0","","","","","","",""
"","","","","","html-button-response","17","90583","0.0-13.0","f3h03n4xd4","7689","<p>In this block of trials, you will be asked to rate how much you associate each map with:</p > <p style = 'font-size:150%; font-weight: bold'>negative</p><br></br>","0","","","","","","",""
"","","","","","html-slider-response","18","98590","0.0-14.0","f3h03n4xd4","NaN","<div style=""width:500px;"">
                            <p style=""font-size:50px; font-weight:bold;""
                            >negative</p>
                            <div style=""width:240px; margin: auto;"">
                                <img src=""images/gray_08.png"" style= ""width:200px""alt=""img"">
                            </div>
                        </div>","-82","","0","images/gray_08.png","","","","negative"
"","","","","","html-slider-response","19","103744","0.0-15.0","f3h03n4xd4","NaN","<div style=""width:500px;"">
                            <p style=""font-size:50px; font-weight:bold;""
                            >negative</p>
                            <div style=""width:240px; margin: auto;"">
                                <img src=""images/gray_18.png"" style= ""width:200px""alt=""img"">
                            </div>
                        </div>","39","","0","images/gray_18.png","","","","negative"
"","","","","","html-slider-response","20","105386","0.0-16.0","f3h03n4xd4","NaN","<div style=""width:500px;"">
                            <p style=""font-size:50px; font-weight:bold;""
                            >negative</p>
                            <div style=""width:240px; margin: auto;"">
                                <img src=""images/gray_35.png"" style= ""width:200px""alt=""img"">
                            </div>
                        </div>","-63","","0","images/gray_35.png","","","","negative"
"","","","","","html-slider-response","21","107430","0.0-17.0","f3h03n4xd4","NaN","<div style=""width:500px;"">
                            <p style=""font-size:50px; font-weight:bold;""
                            >negative</p>
                            <div style=""width:240px; margin: auto;"">
                                <img src=""images/gray_32.png"" style= ""width:200px""alt=""img"">
                            </div>
                        </div>","-145","","0","images/gray_32.png","","","","negative"
"","","","","","html-slider-response","22","109505","0.0-18.0","f3h03n4xd4","NaN","<div style=""width:500px;"">
                            <p style=""font-size:50px; font-weight:bold;""
                            >negative</p>
                            <div style=""width:240px; margin: auto;"">
                                <img src=""images/gray_12.png"" style= ""width:200px""alt=""img"">
                            </div>
                        </div>","-67","","0","images/gray_12.png","","","","negative"
"","","","","","html-slider-response","23","111218","0.0-19.0","f3h03n4xd4","NaN","<div style=""width:500px;"">
                            <p style=""font-size:50px; font-weight:bold;""
                            >negative</p>
                            <div style=""width:240px; margin: auto;"">
                                <img src=""images/gray_20.png"" style= ""width:200px""alt=""img"">
                            </div>
                        </div>","49","","0","images/gray_20.png","","","","negative"
"","","","","","html-slider-response","24","112901","0.0-20.0","f3h03n4xd4","NaN","<div style=""width:500px;"">
                            <p style=""font-size:50px; font-weight:bold;""
                            >negative</p>
                            <div style=""width:240px; margin: auto;"">
                                <img src=""images/gray_43.png"" style= ""width:200px""alt=""img"">
                            </div>
                        </div>","43","","0","images/gray_43.png","","","","negative"
"","","","","","html-slider-response","25","114544","0.0-21.0","f3h03n4xd4","NaN","<div style=""width:500px;"">
                            <p style=""font-size:50px; font-weight:bold;""
                            >negative</p>
                            <div style=""width:240px; margin: auto;"">
                                <img src=""images/gray_10.png"" style= ""width:200px""alt=""img"">
                            </div>
                        </div>","50","","0","images/gray_10.png","","","","negative"
"","","","","","html-slider-response","26","116076","0.0-22.0","f3h03n4xd4","NaN","<div style=""width:500px;"">
                            <p style=""font-size:50px; font-weight:bold;""
                            >negative</p>
                            <div style=""width:240px; margin: auto;"">
                                <img src=""images/gray_41.png"" style= ""width:200px""alt=""img"">
                            </div>
                        </div>","-35","","0","images/gray_41.png","","","","negative"
"","","","","","html-slider-response","27","117442","0.0-23.0","f3h03n4xd4","NaN","<div style=""width:500px;"">
                            <p style=""font-size:50px; font-weight:bold;""
                            >negative</p>
                            <div style=""width:240px; margin: auto;"">
                                <img src=""images/gray_36.png"" style= ""width:200px""alt=""img"">
                            </div>
                        </div>","-66","","0","images/gray_36.png","","","","negative"
"","","","","","html-slider-response","28","118735","0.0-24.0","f3h03n4xd4","NaN","<div style=""width:500px;"">
                            <p style=""font-size:50px; font-weight:bold;""
                            >negative</p>
                            <div style=""width:240px; margin: auto;"">
                                <img src=""images/gray_25.png"" style= ""width:200px""alt=""img"">
                            </div>
                        </div>","-49","","0","images/gray_25.png","","","","negative"
"","","","","","html-slider-response","29","120114","0.0-25.0","f3h03n4xd4","NaN","<div style=""width:500px;"">
                            <p style=""font-size:50px; font-weight:bold;""
                            >negative</p>
                            <div style=""width:240px; margin: auto;"">
                                <img src=""images/gray_14.png"" style= ""width:200px""alt=""img"">
                            </div>
                        </div>","29","","0","images/gray_14.png","","","","negative"
"","","","","","html-slider-response","30","121318","0.0-26.0","f3h03n4xd4","NaN","<div style=""width:500px;"">
                            <p style=""font-size:50px; font-weight:bold;""
                            >negative</p>
                            <div style=""width:240px; margin: auto;"">
                                <img src=""images/gray_34.png"" style= ""width:200px""alt=""img"">
                            </div>
                        </div>","-52","","0","images/gray_34.png","","","","negative"
"","","","","","html-slider-response","31","122460","0.0-27.0","f3h03n4xd4","NaN","<div style=""width:500px;"">
                            <p style=""font-size:50px; font-weight:bold;""
                            >negative</p>
                            <div style=""width:240px; margin: auto;"">
                                <img src=""images/gray_39.png"" style= ""width:200px""alt=""img"">
                            </div>
                        </div>","-86","","0","images/gray_39.png","","","","negative"
"","","","","","html-slider-response","32","124358","0.0-28.0","f3h03n4xd4","NaN","<div style=""width:500px;"">
                            <p style=""font-size:50px; font-weight:bold;""
                            >negative</p>
                            <div style=""width:240px; margin: auto;"">
                                <img src=""images/gray_07.png"" style= ""width:200px""alt=""img"">
                            </div>
                        </div>","90","","0","images/gray_07.png","","","","negative"
"","","","","","html-slider-response","33","126119","0.0-29.0","f3h03n4xd4","NaN","<div style=""width:500px;"">
                            <p style=""font-size:50px; font-weight:bold;""
                            >negative</p>
                            <div style=""width:240px; margin: auto;"">
                                <img src=""images/gray_06.png"" style= ""width:200px""alt=""img"">
                            </div>
                        </div>","-42","","0","images/gray_06.png","","","","negative"
"","","","","","html-slider-response","34","128364","0.0-30.0","f3h03n4xd4","NaN","<div style=""width:500px;"">
                            <p style=""font-size:50px; font-weight:bold;""
                            >negative</p>
                            <div style=""width:240px; margin: auto;"">
                                <img src=""images/gray_24.png"" style= ""width:200px""alt=""img"">
                            </div>
                        </div>","-92","","0","images/gray_24.png","","","","negative"
"","","","","","html-slider-response","35","131096","0.0-31.0","f3h03n4xd4","NaN","<div style=""width:500px;"">
                            <p style=""font-size:50px; font-weight:bold;""
                            >negative</p>
                            <div style=""width:240px; margin: auto;"">
                                <img src=""images/gray_16.png"" style= ""width:200px""alt=""img"">
                            </div>
                        </div>","-56","","0","images/gray_16.png","","","","negative"
"","","","","","html-slider-response","36","132461","0.0-32.0","f3h03n4xd4","NaN","<div style=""width:500px;"">
                            <p style=""font-size:50px; font-weight:bold;""
                            >negative</p>
                            <div style=""width:240px; margin: auto;"">
                                <img src=""images/gray_42.png"" style= ""width:200px""alt=""img"">
                            </div>
                        </div>","-73","","0","images/gray_42.png","","","","negative"
"","","","","","html-slider-response","37","133943","0.0-33.0","f3h03n4xd4","NaN","<div style=""width:500px;"">
                            <p style=""font-size:50px; font-weight:bold;""
                            >negative</p>
                            <div style=""width:240px; margin: auto;"">
                                <img src=""images/gray_09.png"" style= ""width:200px""alt=""img"">
                            </div>
                        </div>","-47","","0","images/gray_09.png","","","","negative"
"","","","","","html-slider-response","38","135619","0.0-34.0","f3h03n4xd4","NaN","<div style=""width:500px;"">
                            <p style=""font-size:50px; font-weight:bold;""
                            >negative</p>
                            <div style=""width:240px; margin: auto;"">
                                <img src=""images/gray_19.png"" style= ""width:200px""alt=""img"">
                            </div>
                        </div>","-112","","0","images/gray_19.png","","","","negative"
"","","","","","html-slider-response","39","137086","0.0-35.0","f3h03n4xd4","NaN","<div style=""width:500px;"">
                            <p style=""font-size:50px; font-weight:bold;""
                            >negative</p>
                            <div style=""width:240px; margin: auto;"">
                                <img src=""images/gray_40.png"" style= ""width:200px""alt=""img"">
                            </div>
                        </div>","-65","","0","images/gray_40.png","","","","negative"
"","","","","","html-slider-response","40","138474","0.0-36.0","f3h03n4xd4","NaN","<div style=""width:500px;"">
                            <p style=""font-size:50px; font-weight:bold;""
                            >negative</p>
                            <div style=""width:240px; margin: auto;"">
                                <img src=""images/gray_26.png"" style= ""width:200px""alt=""img"">
                            </div>
                        </div>","-98","","0","images/gray_26.png","","","","negative"
"","","","","","html-slider-response","41","140088","0.0-37.0","f3h03n4xd4","NaN","<div style=""width:500px;"">
                            <p style=""font-size:50px; font-weight:bold;""
                            >negative</p>
                            <div style=""width:240px; margin: auto;"">
                                <img src=""images/gray_38.png"" style= ""width:200px""alt=""img"">
                            </div>
                        </div>","-56","","0","images/gray_38.png","","","","negative"
"","","","","","html-slider-response","42","141328","0.0-38.0","f3h03n4xd4","NaN","<div style=""width:500px;"">
                            <p style=""font-size:50px; font-weight:bold;""
                            >negative</p>
                            <div style=""width:240px; margin: auto;"">
                                <img src=""images/gray_01.png"" style= ""width:200px""alt=""img"">
                            </div>
                        </div>","37","","0","images/gray_01.png","","","","negative"
"","","","","","html-slider-response","43","142777","0.0-39.0","f3h03n4xd4","NaN","<div style=""width:500px;"">
                            <p style=""font-size:50px; font-weight:bold;""
                            >negative</p>
                            <div style=""width:240px; margin: auto;"">
                                <img src=""images/gray_05.png"" style= ""width:200px""alt=""img"">
                            </div>
                        </div>","78","","0","images/gray_05.png","","","","negative"
"","","","","","html-slider-response","44","144134","0.0-40.0","f3h03n4xd4","NaN","<div style=""width:500px;"">
                            <p style=""font-size:50px; font-weight:bold;""
                            >negative</p>
                            <div style=""width:240px; margin: auto;"">
                                <img src=""images/gray_30.png"" style= ""width:200px""alt=""img"">
                            </div>
                        </div>","-37","","0","images/gray_30.png","","","","negative"
"","","","","","html-slider-response","45","145326","0.0-41.0","f3h03n4xd4","NaN","<div style=""width:500px;"">
                            <p style=""font-size:50px; font-weight:bold;""
                            >negative</p>
                            <div style=""width:240px; margin: auto;"">
                                <img src=""images/gray_03.png"" style= ""width:200px""alt=""img"">
                            </div>
                        </div>","-56","","0","images/gray_03.png","","","","negative"
"","","","","","html-slider-response","46","146453","0.0-42.0","f3h03n4xd4","NaN","<div style=""width:500px;"">
                            <p style=""font-size:50px; font-weight:bold;""
                            >negative</p>
                            <div style=""width:240px; margin: auto;"">
                                <img src=""images/gray_11.png"" style= ""width:200px""alt=""img"">
                            </div>
                        </div>","-98","","0","images/gray_11.png","","","","negative"
"","","","","","html-slider-response","47","147562","0.0-43.0","f3h03n4xd4","NaN","<div style=""width:500px;"">
                            <p style=""font-size:50px; font-weight:bold;""
                            >negative</p>
                            <div style=""width:240px; margin: auto;"">
                                <img src=""images/gray_37.png"" style= ""width:200px""alt=""img"">
                            </div>
                        </div>","-37","","0","images/gray_37.png","","","","negative"
"","","","","","html-slider-response","48","148602","0.0-44.0","f3h03n4xd4","NaN","<div style=""width:500px;"">
                            <p style=""font-size:50px; font-weight:bold;""
                            >negative</p>
                            <div style=""width:240px; margin: auto;"">
                                <img src=""images/gray_02.png"" style= ""width:200px""alt=""img"">
                            </div>
                        </div>","-18","","0","images/gray_02.png","","","","negative"
"","","","","","html-slider-response","49","149677","0.0-45.0","f3h03n4xd4","NaN","<div style=""width:500px;"">
                            <p style=""font-size:50px; font-weight:bold;""
                            >negative</p>
                            <div style=""width:240px; margin: auto;"">
                                <img src=""images/gray_27.png"" style= ""width:200px""alt=""img"">
                            </div>
                        </div>","-41","","0","images/gray_27.png","","","","negative"
"","","","","","html-slider-response","50","151010","0.0-46.0","f3h03n4xd4","NaN","<div style=""width:500px;"">
                            <p style=""font-size:50px; font-weight:bold;""
                            >negative</p>
                            <div style=""width:240px; margin: auto;"">
                                <img src=""images/gray_17.png"" style= ""width:200px""alt=""img"">
                            </div>
                        </div>","79","","0","images/gray_17.png","","","","negative"
"","","","","","html-slider-response","51","152293","0.0-47.0","f3h03n4xd4","NaN","<div style=""width:500px;"">
                            <p style=""font-size:50px; font-weight:bold;""
                            >negative</p>
                            <div style=""width:240px; margin: auto;"">
                                <img src=""images/gray_31.png"" style= ""width:200px""alt=""img"">
                            </div>
                        </div>","121","","0","images/gray_31.png","","","","negative"
"","","","","","html-slider-response","52","153703","0.0-48.0","f3h03n4xd4","NaN","<div style=""width:500px;"">
                            <p style=""font-size:50px; font-weight:bold;""
                            >negative</p>
                            <div style=""width:240px; margin: auto;"">
                                <img src=""images/gray_23.png"" style= ""width:200px""alt=""img"">
                            </div>
                        </div>","-82","","0","images/gray_23.png","","","","negative"
"","","","","","html-slider-response","53","155287","0.0-49.0","f3h03n4xd4","NaN","<div style=""width:500px;"">
                            <p style=""font-size:50px; font-weight:bold;""
                            >negative</p>
                            <div style=""width:240px; margin: auto;"">
                                <img src=""images/gray_21.png"" style= ""width:200px""alt=""img"">
                            </div>
                        </div>","174","","0","images/gray_21.png","","","","negative"
"","","","","","html-slider-response","54","156324","0.0-50.0","f3h03n4xd4","NaN","<div style=""width:500px;"">
                            <p style=""font-size:50px; font-weight:bold;""
                            >negative</p>
                            <div style=""width:240px; margin: auto;"">
                                <img src=""images/gray_13.png"" style= ""width:200px""alt=""img"">
                            </div>
                        </div>","-82","","0","images/gray_13.png","","","","negative"
"","","","","","html-slider-response","55","157317","0.0-51.0","f3h03n4xd4","NaN","<div style=""width:500px;"">
                            <p style=""font-size:50px; font-weight:bold;""
                            >negative</p>
                            <div style=""width:240px; margin: auto;"">
                                <img src=""images/gray_29.png"" style= ""width:200px""alt=""img"">
                            </div>
                        </div>","44","","0","images/gray_29.png","","","","negative"
"","","","","","html-slider-response","56","158216","0.0-52.0","f3h03n4xd4","NaN","<div style=""width:500px;"">
                            <p style=""font-size:50px; font-weight:bold;""
                            >negative</p>
                            <div style=""width:240px; margin: auto;"">
                                <img src=""images/gray_22.png"" style= ""width:200px""alt=""img"">
                            </div>
                        </div>","-96","","0","images/gray_22.png","","","","negative"
"","","","","","html-slider-response","57","159161","0.0-53.0","f3h03n4xd4","NaN","<div style=""width:500px;"">
                            <p style=""font-size:50px; font-weight:bold;""
                            >negative</p>
                            <div style=""width:240px; margin: auto;"">
                                <img src=""images/gray_04.png"" style= ""width:200px""alt=""img"">
                            </div>
                        </div>","56","","0","images/gray_04.png","","","","negative"
"","","","","","html-slider-response","58","160082","0.0-54.0","f3h03n4xd4","NaN","<div style=""width:500px;"">
                            <p style=""font-size:50px; font-weight:bold;""
                            >negative</p>
                            <div style=""width:240px; margin: auto;"">
                                <img src=""images/gray_15.png"" style= ""width:200px""alt=""img"">
                            </div>
                        </div>","-75","","0","images/gray_15.png","","","","negative"
"","","","","","html-slider-response","59","160978","0.0-55.0","f3h03n4xd4","NaN","<div style=""width:500px;"">
                            <p style=""font-size:50px; font-weight:bold;""
                            >negative</p>
                            <div style=""width:240px; margin: auto;"">
                                <img src=""images/gray_33.png"" style= ""width:200px""alt=""img"">
                            </div>
                        </div>","38","","0","images/gray_33.png","","","","negative"
"","","","","","html-slider-response","60","161842","0.0-56.0","f3h03n4xd4","NaN","<div style=""width:500px;"">
                            <p style=""font-size:50px; font-weight:bold;""
                            >negative</p>
                            <div style=""width:240px; margin: auto;"">
                                <img src=""images/gray_44.png"" style= ""width:200px""alt=""img"">
                            </div>
                        </div>","-75","","0","images/gray_44.png","","","","negative"
"","","","","","html-slider-response","61","162731","0.0-57.0","f3h03n4xd4","NaN","<div style=""width:500px;"">
                            <p style=""font-size:50px; font-weight:bold;""
                            >negative</p>
                            <div style=""width:240px; margin: auto;"">
                                <img src=""images/gray_28.png"" style= ""width:200px""alt=""img"">
                            </div>
                        </div>","-94","","0","images/gray_28.png","","","","negative"
"","","","","","html-button-response","62","165434","0.0-58.0","f3h03n4xd4","2201","<p>Great Job! You've finished block 1.<br></br> You have 7 block(s) left to go.<br></br></p>","0","","","","","","",""
"","","","","","html-button-response","63","167605","0.0-59.0","f3h03n4xd4","2170","<p>In this block of trials, you will be asked to rate how much you associate each map with:</p > <p style = 'font-size:150%; font-weight: bold'>disturbing</p><br></br>","0","","","","","","",""
"","","","","","html-slider-response","64","170273","0.0-60.0","f3h03n4xd4","NaN","<div style=""width:500px;"">
                            <p style=""font-size:50px; font-weight:bold;""
                            >disturbing</p>
                            <div style=""width:240px; margin: auto;"">
                                <img src=""images/gray_04.png"" style= ""width:200px""alt=""img"">
                            </div>
                        </div>","-62","","0","images/gray_04.png","","","","disturbing"
"","","","","","html-slider-response","65","171433","0.0-61.0","f3h03n4xd4","NaN","<div style=""width:500px;"">
                            <p style=""font-size:50px; font-weight:bold;""
                            >disturbing</p>
                            <div style=""width:240px; margin: auto;"">
                                <img src=""images/gray_17.png"" style= ""width:200px""alt=""img"">
                            </div>
                        </div>","-98","","0","images/gray_17.png","","","","disturbing"
"","","","","","html-slider-response","66","173513","0.0-62.0","f3h03n4xd4","NaN","<div style=""width:500px;"">
                            <p style=""font-size:50px; font-weight:bold;""
                            >disturbing</p>
                            <div style=""width:240px; margin: auto;"">
                                <img src=""images/gray_38.png"" style= ""width:200px""alt=""img"">
                            </div>
                        </div>","146","","0","images/gray_38.png","","","","disturbing"
"","","","","","html-slider-response","67","175809","0.0-63.0","f3h03n4xd4","NaN","<div style=""width:500px;"">
                            <p style=""font-size:50px; font-weight:bold;""
                            >disturbing</p>
                            <div style=""width:240px; margin: auto;"">
                                <img src=""images/gray_13.png"" style= ""width:200px""alt=""img"">
                            </div>
                        </div>","51","","0","images/gray_13.png","","","","disturbing"
"","","","","","html-slider-response","68","176993","0.0-64.0","f3h03n4xd4","NaN","<div style=""width:500px;"">
                            <p style=""font-size:50px; font-weight:bold;""
                            >disturbing</p>
                            <div style=""width:240px; margin: auto;"">
                                <img src=""images/gray_40.png"" style= ""width:200px""alt=""img"">
                            </div>
                        </div>","-121","","0","images/gray_40.png","","","","disturbing"
"","","","","","html-slider-response","69","178432","0.0-65.0","f3h03n4xd4","NaN","<div style=""width:500px;"">
                            <p style=""font-size:50px; font-weight:bold;""
                            >disturbing</p>
                            <div style=""width:240px; margin: auto;"">
                                <img src=""images/gray_19.png"" style= ""width:200px""alt=""img"">
                            </div>
                        </div>","-106","","0","images/gray_19.png","","","","disturbing"
"","","","","","html-slider-response","70","179781","0.0-66.0","f3h03n4xd4","NaN","<div style=""width:500px;"">
                            <p style=""font-size:50px; font-weight:bold;""
                            >disturbing</p>
                            <div style=""width:240px; margin: auto;"">
                                <img src=""images/gray_25.png"" style= ""width:200px""alt=""img"">
                            </div>
                        </div>","-74","","0","images/gray_25.png","","","","disturbing"
"","","","","","html-slider-response","71","181197","0.0-67.0","f3h03n4xd4","NaN","<div style=""width:500px;"">
                            <p style=""font-size:50px; font-weight:bold;""
                            >disturbing</p>
                            <div style=""width:240px; margin: auto;"">
                                <img src=""images/gray_43.png"" style= ""width:200px""alt=""img"">
                            </div>
                        </div>","-66","","0","images/gray_43.png","","","","disturbing"
"","","","","","html-slider-response","72","182504","0.0-68.0","f3h03n4xd4","NaN","<div style=""width:500px;"">
                            <p style=""font-size:50px; font-weight:bold;""
                            >disturbing</p>
                            <div style=""width:240px; margin: auto;"">
                                <img src=""images/gray_44.png"" style= ""width:200px""alt=""img"">
                            </div>
                        </div>","54","","0","images/gray_44.png","","","","disturbing"
"","","","","","html-slider-response","73","183976","0.0-69.0","f3h03n4xd4","NaN","<div style=""width:500px;"">
                            <p style=""font-size:50px; font-weight:bold;""
                            >disturbing</p>
                            <div style=""width:240px; margin: auto;"">
                                <img src=""images/gray_11.png"" style= ""width:200px""alt=""img"">
                            </div>
                        </div>","45","","0","images/gray_11.png","","","","disturbing"
"","","","","","html-slider-response","74","185177","0.0-70.0","f3h03n4xd4","NaN","<div style=""width:500px;"">
                            <p style=""font-size:50px; font-weight:bold;""
                            >disturbing</p>
                            <div style=""width:240px; margin: auto;"">
                                <img src=""images/gray_35.png"" style= ""width:200px""alt=""img"">
                            </div>
                        </div>","-50","","0","images/gray_35.png","","","","disturbing"
"","","","","","html-slider-response","75","186758","0.0-71.0","f3h03n4xd4","NaN","<div style=""width:500px;"">
                            <p style=""font-size:50px; font-weight:bold;""
                            >disturbing</p>
                            <div style=""width:240px; margin: auto;"">
                                <img src=""images/gray_31.png"" style= ""width:200px""alt=""img"">
                            </div>
                        </div>","50","","0","images/gray_31.png","","","","disturbing"
"","","","","","html-slider-response","76","188402","0.0-72.0","f3h03n4xd4","NaN","<div style=""width:500px;"">
                            <p style=""font-size:50px; font-weight:bold;""
                            >disturbing</p>
                            <div style=""width:240px; margin: auto;"">
                                <img src=""images/gray_29.png"" style= ""width:200px""alt=""img"">
                            </div>
                        </div>","36","","0","images/gray_29.png","","","","disturbing"
"","","","","","html-slider-response","77","189899","0.0-73.0","f3h03n4xd4","NaN","<div style=""width:500px;"">
                            <p style=""font-size:50px; font-weight:bold;""
                            >disturbing</p>
                            <div style=""width:240px; margin: auto;"">
                                <img src=""images/gray_09.png"" style= ""width:200px""alt=""img"">
                            </div>
                        </div>","-77","","0","images/gray_09.png","","","","disturbing"
"","","","","","html-slider-response","78","191034","0.0-74.0","f3h03n4xd4","NaN","<div style=""width:500px;"">
                            <p style=""font-size:50px; font-weight:bold;""
                            >disturbing</p>
                            <div style=""width:240px; margin: auto;"">
                                <img src=""images/gray_15.png"" style= ""width:200px""alt=""img"">
                            </div>
                        </div>","-43","","0","images/gray_15.png","","","","disturbing"
"","","","","","html-slider-response","79","192235","0.0-75.0","f3h03n4xd4","NaN","<div style=""width:500px;"">
                            <p style=""font-size:50px; font-weight:bold;""
                            >disturbing</p>
                            <div style=""width:240px; margin: auto;"">
                                <img src=""images/gray_26.png"" style= ""width:200px""alt=""img"">
                            </div>
                        </div>","32","","0","images/gray_26.png","","","","disturbing"
"","","","","","html-slider-response","80","193593","0.0-76.0","f3h03n4xd4","NaN","<div style=""width:500px;"">
                            <p style=""font-size:50px; font-weight:bold;""
                            >disturbing</p>
                            <div style=""width:240px; margin: auto;"">
                                <img src=""images/gray_27.png"" style= ""width:200px""alt=""img"">
                            </div>
                        </div>","42","","0","images/gray_27.png","","","","disturbing"
"","","","","","html-slider-response","81","195000","0.0-77.0","f3h03n4xd4","NaN","<div style=""width:500px;"">
                            <p style=""font-size:50px; font-weight:bold;""
                            >disturbing</p>
                            <div style=""width:240px; margin: auto;"">
                                <img src=""images/gray_02.png"" style= ""width:200px""alt=""img"">
                            </div>
                        </div>","-54","","0","images/gray_02.png","","","","disturbing"
"","","","","","html-slider-response","82","196282","0.0-78.0","f3h03n4xd4","NaN","<div style=""width:500px;"">
                            <p style=""font-size:50px; font-weight:bold;""
                            >disturbing</p>
                            <div style=""width:240px; margin: auto;"">
                                <img src=""images/gray_08.png"" style= ""width:200px""alt=""img"">
                            </div>
                        </div>","-56","","0","images/gray_08.png","","","","disturbing"
"","","","","","html-slider-response","83","198125","0.0-79.0","f3h03n4xd4","NaN","<div style=""width:500px;"">
                            <p style=""font-size:50px; font-weight:bold;""
                            >disturbing</p>
                            <div style=""width:240px; margin: auto;"">
                                <img src=""images/gray_16.png"" style= ""width:200px""alt=""img"">
                            </div>
                        </div>","-84","","0","images/gray_16.png","","","","disturbing"
"","","","","","html-slider-response","84","200322","0.0-80.0","f3h03n4xd4","NaN","<div style=""width:500px;"">
                            <p style=""font-size:50px; font-weight:bold;""
                            >disturbing</p>
                            <div style=""width:240px; margin: auto;"">
                                <img src=""images/gray_21.png"" style= ""width:200px""alt=""img"">
                            </div>
                        </div>","-78","","0","images/gray_21.png","","","","disturbing"
"","","","","","html-slider-response","85","202107","0.0-81.0","f3h03n4xd4","NaN","<div style=""width:500px;"">
                            <p style=""font-size:50px; font-weight:bold;""
                            >disturbing</p>
                            <div style=""width:240px; margin: auto;"">
                                <img src=""images/gray_28.png"" style= ""width:200px""alt=""img"">
                            </div>
                        </div>","-92","","0","images/gray_28.png","","","","disturbing"
"","","","","","html-slider-response","86","203274","0.0-82.0","f3h03n4xd4","NaN","<div style=""width:500px;"">
                            <p style=""font-size:50px; font-weight:bold;""
                            >disturbing</p>
                            <div style=""width:240px; margin: auto;"">
                                <img src=""images/gray_20.png"" style= ""width:200px""alt=""img"">
                            </div>
                        </div>","-96","","0","images/gray_20.png","","","","disturbing"
"","","","","","html-slider-response","87","204475","0.0-83.0","f3h03n4xd4","NaN","<div style=""width:500px;"">
                            <p style=""font-size:50px; font-weight:bold;""
                            >disturbing</p>
                            <div style=""width:240px; margin: auto;"">
                                <img src=""images/gray_24.png"" style= ""width:200px""alt=""img"">
                            </div>
                        </div>","-96","","0","images/gray_24.png","","","","disturbing"
"","","","","","html-slider-response","88","205685","0.0-84.0","f3h03n4xd4","NaN","<div style=""width:500px;"">
                            <p style=""font-size:50px; font-weight:bold;""
                            >disturbing</p>
                            <div style=""width:240px; margin: auto;"">
                                <img src=""images/gray_33.png"" style= ""width:200px""alt=""img"">
                            </div>
                        </div>","-95","","0","images/gray_33.png","","","","disturbing"
"","","","","","html-slider-response","89","207586","0.0-85.0","f3h03n4xd4","NaN","<div style=""width:500px;"">
                            <p style=""font-size:50px; font-weight:bold;""
                            >disturbing</p>
                            <div style=""width:240px; margin: auto;"">
                                <img src=""images/gray_34.png"" style= ""width:200px""alt=""img"">
                            </div>
                        </div>","-93","","0","images/gray_34.png","","","","disturbing"
"","","","","","html-slider-response","90","209863","0.0-86.0","f3h03n4xd4","NaN","<div style=""width:500px;"">
                            <p style=""font-size:50px; font-weight:bold;""
                            >disturbing</p>
                            <div style=""width:240px; margin: auto;"">
                                <img src=""images/gray_14.png"" style= ""width:200px""alt=""img"">
                            </div>
                        </div>","-66","","0","images/gray_14.png","","","","disturbing"
"","","","","","html-slider-response","91","211262","0.0-87.0","f3h03n4xd4","NaN","<div style=""width:500px;"">
                            <p style=""font-size:50px; font-weight:bold;""
                            >disturbing</p>
                            <div style=""width:240px; margin: auto;"">
                                <img src=""images/gray_10.png"" style= ""width:200px""alt=""img"">
                            </div>
                        </div>","22","","0","images/gray_10.png","","","","disturbing"
"","","","","","html-slider-response","92","212578","0.0-88.0","f3h03n4xd4","NaN","<div style=""width:500px;"">
                            <p style=""font-size:50px; font-weight:bold;""
                            >disturbing</p>
                            <div style=""width:240px; margin: auto;"">
                                <img src=""images/gray_39.png"" style= ""width:200px""alt=""img"">
                            </div>
                        </div>","-66","","0","images/gray_39.png","","","","disturbing"
"","","","","","html-slider-response","93","214214","0.0-89.0","f3h03n4xd4","NaN","<div style=""width:500px;"">
                            <p style=""font-size:50px; font-weight:bold;""
                            >disturbing</p>
                            <div style=""width:240px; margin: auto;"">
                                <img src=""images/gray_05.png"" style= ""width:200px""alt=""img"">
                            </div>
                        </div>","27","","0","images/gray_05.png","","","","disturbing"
"","","","","","html-slider-response","94","216288","0.0-90.0","f3h03n4xd4","NaN","<div style=""width:500px;"">
                            <p style=""font-size:50px; font-weight:bold;""
                            >disturbing</p>
                            <div style=""width:240px; margin: auto;"">
                                <img src=""images/gray_22.png"" style= ""width:200px""alt=""img"">
                            </div>
                        </div>","42","","0","images/gray_22.png","","","","disturbing"
"","","","","","html-slider-response","95","217414","0.0-91.0","f3h03n4xd4","NaN","<div style=""width:500px;"">
                            <p style=""font-size:50px; font-weight:bold;""
                            >disturbing</p>
                            <div style=""width:240px; margin: auto;"">
                                <img src=""images/gray_37.png"" style= ""width:200px""alt=""img"">
                            </div>
                        </div>","-62","","0","images/gray_37.png","","","","disturbing"
"","","","","","html-slider-response","96","218681","0.0-92.0","f3h03n4xd4","NaN","<div style=""width:500px;"">
                            <p style=""font-size:50px; font-weight:bold;""
                            >disturbing</p>
                            <div style=""width:240px; margin: auto;"">
                                <img src=""images/gray_01.png"" style= ""width:200px""alt=""img"">
                            </div>
                        </div>","18","","0","images/gray_01.png","","","","disturbing"
"","","","","","html-slider-response","97","219939","0.0-93.0","f3h03n4xd4","NaN","<div style=""width:500px;"">
                            <p style=""font-size:50px; font-weight:bold;""
                            >disturbing</p>
                            <div style=""width:240px; margin: auto;"">
                                <img src=""images/gray_18.png"" style= ""width:200px""alt=""img"">
                            </div>
                        </div>","-24","","0","images/gray_18.png","","","","disturbing"
"","","","","","html-slider-response","98","221149","0.0-94.0","f3h03n4xd4","NaN","<div style=""width:500px;"">
                            <p style=""font-size:50px; font-weight:bold;""
                            >disturbing</p>
                            <div style=""width:240px; margin: auto;"">
                                <img src=""images/gray_36.png"" style= ""width:200px""alt=""img"">
                            </div>
                        </div>","-44","","0","images/gray_36.png","","","","disturbing"
"","","","","","html-slider-response","99","222761","0.0-95.0","f3h03n4xd4","NaN","<div style=""width:500px;"">
                            <p style=""font-size:50px; font-weight:bold;""
                            >disturbing</p>
                            <div style=""width:240px; margin: auto;"">
                                <img src=""images/gray_32.png"" style= ""width:200px""alt=""img"">
                            </div>
                        </div>","-46","","0","images/gray_32.png","","","","disturbing"
"","","","","","html-slider-response","100","224307","0.0-96.0","f3h03n4xd4","NaN","<div style=""width:500px;"">
                            <p style=""font-size:50px; font-weight:bold;""
                            >disturbing</p>
                            <div style=""width:240px; margin: auto;"">
                                <img src=""images/gray_30.png"" style= ""width:200px""alt=""img"">
                            </div>
                        </div>","29","","0","images/gray_30.png","","","","disturbing"
"","","","","","html-slider-response","101","226412","0.0-97.0","f3h03n4xd4","NaN","<div style=""width:500px;"">
                            <p style=""font-size:50px; font-weight:bold;""
                            >disturbing</p>
                            <div style=""width:240px; margin: auto;"">
                                <img src=""images/gray_12.png"" style= ""width:200px""alt=""img"">
                            </div>
                        </div>","-48","","0","images/gray_12.png","","","","disturbing"
"","","","","","html-slider-response","102","228091","0.0-98.0","f3h03n4xd4","NaN","<div style=""width:500px;"">
                            <p style=""font-size:50px; font-weight:bold;""
                            >disturbing</p>
                            <div style=""width:240px; margin: auto;"">
                                <img src=""images/gray_03.png"" style= ""width:200px""alt=""img"">
                            </div>
                        </div>","-83","","0","images/gray_03.png","","","","disturbing"
"","","","","","html-slider-response","103","229210","0.0-99.0","f3h03n4xd4","NaN","<div style=""width:500px;"">
                            <p style=""font-size:50px; font-weight:bold;""
                            >disturbing</p>
                            <div style=""width:240px; margin: auto;"">
                                <img src=""images/gray_23.png"" style= ""width:200px""alt=""img"">
                            </div>
                        </div>","-102","","0","images/gray_23.png","","","","disturbing"
"","","","","","html-slider-response","104","250182","0.0-100.0","f3h03n4xd4","NaN","<div style=""width:500px;"">
                            <p style=""font-size:50px; font-weight:bold;""
                            >disturbing</p>
                            <div style=""width:240px; margin: auto;"">
                                <img src=""images/gray_41.png"" style= ""width:200px""alt=""img"">
                            </div>
                        </div>","49","","0","images/gray_41.png","","","","disturbing"
"","","","","","html-slider-response","105","251612","0.0-101.0","f3h03n4xd4","NaN","<div style=""width:500px;"">
                            <p style=""font-size:50px; font-weight:bold;""
                            >disturbing</p>
                            <div style=""width:240px; margin: auto;"">
                                <img src=""images/gray_07.png"" style= ""width:200px""alt=""img"">
                            </div>
                        </div>","42","","0","images/gray_07.png","","","","disturbing"
"","","","","","html-slider-response","106","252871","0.0-102.0","f3h03n4xd4","NaN","<div style=""width:500px;"">
                            <p style=""font-size:50px; font-weight:bold;""
                            >disturbing</p>
                            <div style=""width:240px; margin: auto;"">
                                <img src=""images/gray_42.png"" style= ""width:200px""alt=""img"">
                            </div>
                        </div>","67","","0","images/gray_42.png","","","","disturbing"
"","","","","","html-slider-response","107","254277","0.0-103.0","f3h03n4xd4","NaN","<div style=""width:500px;"">
                            <p style=""font-size:50px; font-weight:bold;""
                            >disturbing</p>
                            <div style=""width:240px; margin: auto;"">
                                <img src=""images/gray_06.png"" style= ""width:200px""alt=""img"">
                            </div>
                        </div>","-42","","0","images/gray_06.png","","","","disturbing"
"","","","","","html-button-response","108","255599","0.0-104.0","f3h03n4xd4","818","<p>Great Job! You've finished block 2.<br></br> You have 6 block(s) left to go.<br></br></p>","0","","","","","","",""
"","","","","","html-button-response","109","256423","0.0-105.0","f3h03n4xd4","823","<p>In this block of trials, you will be asked to rate how much you associate each map with:</p > <p style = 'font-size:150%; font-weight: bold'>serious</p><br></br>","0","","","","","","",""
"","","","","","html-slider-response","110","258218","0.0-106.0","f3h03n4xd4","NaN","<div style=""width:500px;"">
                            <p style=""font-size:50px; font-weight:bold;""
                            >serious</p>
                            <div style=""width:240px; margin: auto;"">
                                <img src=""images/gray_15.png"" style= ""width:200px""alt=""img"">
                            </div>
                        </div>","45","","0","images/gray_15.png","","","","serious"
"","","","","","html-slider-response","111","259361","0.0-107.0","f3h03n4xd4","NaN","<div style=""width:500px;"">
                            <p style=""font-size:50px; font-weight:bold;""
                            >serious</p>
                            <div style=""width:240px; margin: auto;"">
                                <img src=""images/gray_06.png"" style= ""width:200px""alt=""img"">
                            </div>
                        </div>","49","","0","images/gray_06.png","","","","serious"
"","","","","","html-slider-response","112","260414","0.0-108.0","f3h03n4xd4","NaN","<div style=""width:500px;"">
                            <p style=""font-size:50px; font-weight:bold;""
                            >serious</p>
                            <div style=""width:240px; margin: auto;"">
                                <img src=""images/gray_12.png"" style= ""width:200px""alt=""img"">
                            </div>
                        </div>","48","","0","images/gray_12.png","","","","serious"
"","","","","","html-slider-response","113","261334","0.0-109.0","f3h03n4xd4","NaN","<div style=""width:500px;"">
                            <p style=""font-size:50px; font-weight:bold;""
                            >serious</p>
                            <div style=""width:240px; margin: auto;"">
                                <img src=""images/gray_43.png"" style= ""width:200px""alt=""img"">
                            </div>
                        </div>","48","","0","images/gray_43.png","","","","serious"
"","","","","","html-slider-response","114","262544","0.0-110.0","f3h03n4xd4","NaN","<div style=""width:500px;"">
                            <p style=""font-size:50px; font-weight:bold;""
                            >serious</p>
                            <div style=""width:240px; margin: auto;"">
                                <img src=""images/gray_20.png"" style= ""width:200px""alt=""img"">
                            </div>
                        </div>","117","","0","images/gray_20.png","","","","serious"
"","","","","","html-slider-response","115","263489","0.0-111.0","f3h03n4xd4","NaN","<div style=""width:500px;"">
                            <p style=""font-size:50px; font-weight:bold;""
                            >serious</p>
                            <div style=""width:240px; margin: auto;"">
                                <img src=""images/gray_10.png"" style= ""width:200px""alt=""img"">
                            </div>
                        </div>","102","","0","images/gray_10.png","","","","serious"
"","","","","","html-slider-response","116","264312","0.0-112.0","f3h03n4xd4","NaN","<div style=""width:500px;"">
                            <p style=""font-size:50px; font-weight:bold;""
                            >serious</p>
                            <div style=""width:240px; margin: auto;"">
                                <img src=""images/gray_41.png"" style= ""width:200px""alt=""img"">
                            </div>
                        </div>","81","","0","images/gray_41.png","","","","serious"
"","","","","","html-slider-response","117","265176","0.0-113.0","f3h03n4xd4","NaN","<div style=""width:500px;"">
                            <p style=""font-size:50px; font-weight:bold;""
                            >serious</p>
                            <div style=""width:240px; margin: auto;"">
                                <img src=""images/gray_28.png"" style= ""width:200px""alt=""img"">
                            </div>
                        </div>","58","","0","images/gray_28.png","","","","serious"
"","","","","","html-slider-response","118","266048","0.0-114.0","f3h03n4xd4","NaN","<div style=""width:500px;"">
                            <p style=""font-size:50px; font-weight:bold;""
                            >serious</p>
                            <div style=""width:240px; margin: auto;"">
                                <img src=""images/gray_09.png"" style= ""width:200px""alt=""img"">
                            </div>
                        </div>","57","","0","images/gray_09.png","","","","serious"
"","","","","","html-slider-response","119","267019","0.0-115.0","f3h03n4xd4","NaN","<div style=""width:500px;"">
                            <p style=""font-size:50px; font-weight:bold;""
                            >serious</p>
                            <div style=""width:240px; margin: auto;"">
                                <img src=""images/gray_34.png"" style= ""width:200px""alt=""img"">
                            </div>
                        </div>","59","","0","images/gray_34.png","","","","serious"
"","","","","","html-slider-response","120","267931","0.0-116.0","f3h03n4xd4","NaN","<div style=""width:500px;"">
                            <p style=""font-size:50px; font-weight:bold;""
                            >serious</p>
                            <div style=""width:240px; margin: auto;"">
                                <img src=""images/gray_05.png"" style= ""width:200px""alt=""img"">
                            </div>
                        </div>","61","","0","images/gray_05.png","","","","serious"
"","","","","","html-slider-response","121","268877","0.0-117.0","f3h03n4xd4","NaN","<div style=""width:500px;"">
                            <p style=""font-size:50px; font-weight:bold;""
                            >serious</p>
                            <div style=""width:240px; margin: auto;"">
                                <img src=""images/gray_27.png"" style= ""width:200px""alt=""img"">
                            </div>
                        </div>","56","","0","images/gray_27.png","","","","serious"
"","","","","","html-slider-response","122","269799","0.0-118.0","f3h03n4xd4","NaN","<div style=""width:500px;"">
                            <p style=""font-size:50px; font-weight:bold;""
                            >serious</p>
                            <div style=""width:240px; margin: auto;"">
                                <img src=""images/gray_01.png"" style= ""width:200px""alt=""img"">
                            </div>
                        </div>","55","","0","images/gray_01.png","","","","serious"
"","","","","","html-slider-response","123","271419","0.0-119.0","f3h03n4xd4","NaN","<div style=""width:500px;"">
                            <p style=""font-size:50px; font-weight:bold;""
                            >serious</p>
                            <div style=""width:240px; margin: auto;"">
                                <img src=""images/gray_33.png"" style= ""width:200px""alt=""img"">
                            </div>
                        </div>","-63","","0","images/gray_33.png","","","","serious"
"","","","","","html-slider-response","124","273105","0.0-120.0","f3h03n4xd4","NaN","<div style=""width:500px;"">
                            <p style=""font-size:50px; font-weight:bold;""
                            >serious</p>
                            <div style=""width:240px; margin: auto;"">
                                <img src=""images/gray_14.png"" style= ""width:200px""alt=""img"">
                            </div>
                        </div>","-83","","0","images/gray_14.png","","","","serious"
"","","","","","html-slider-response","125","274405","0.0-121.0","f3h03n4xd4","NaN","<div style=""width:500px;"">
                            <p style=""font-size:50px; font-weight:bold;""
                            >serious</p>
                            <div style=""width:240px; margin: auto;"">
                                <img src=""images/gray_31.png"" style= ""width:200px""alt=""img"">
                            </div>
                        </div>","66","","0","images/gray_31.png","","","","serious"
"","","","","","html-slider-response","126","275729","0.0-122.0","f3h03n4xd4","NaN","<div style=""width:500px;"">
                            <p style=""font-size:50px; font-weight:bold;""
                            >serious</p>
                            <div style=""width:240px; margin: auto;"">
                                <img src=""images/gray_38.png"" style= ""width:200px""alt=""img"">
                            </div>
                        </div>","56","","0","images/gray_38.png","","","","serious"
"","","","","","html-slider-response","127","277044","0.0-123.0","f3h03n4xd4","NaN","<div style=""width:500px;"">
                            <p style=""font-size:50px; font-weight:bold;""
                            >serious</p>
                            <div style=""width:240px; margin: auto;"">
                                <img src=""images/gray_19.png"" style= ""width:200px""alt=""img"">
                            </div>
                        </div>","58","","0","images/gray_19.png","","","","serious"
"","","","","","html-slider-response","128","278244","0.0-124.0","f3h03n4xd4","NaN","<div style=""width:500px;"">
                            <p style=""font-size:50px; font-weight:bold;""
                            >serious</p>
                            <div style=""width:240px; margin: auto;"">
                                <img src=""images/gray_37.png"" style= ""width:200px""alt=""img"">
                            </div>
                        </div>","55","","0","images/gray_37.png","","","","serious"
"","","","","","html-slider-response","129","279183","0.0-125.0","f3h03n4xd4","NaN","<div style=""width:500px;"">
                            <p style=""font-size:50px; font-weight:bold;""
                            >serious</p>
                            <div style=""width:240px; margin: auto;"">
                                <img src=""images/gray_42.png"" style= ""width:200px""alt=""img"">
                            </div>
                        </div>","95","","0","images/gray_42.png","","","","serious"
"","","","","","html-slider-response","130","280277","0.0-126.0","f3h03n4xd4","NaN","<div style=""width:500px;"">
                            <p style=""font-size:50px; font-weight:bold;""
                            >serious</p>
                            <div style=""width:240px; margin: auto;"">
                                <img src=""images/gray_17.png"" style= ""width:200px""alt=""img"">
                            </div>
                        </div>","71","","0","images/gray_17.png","","","","serious"
"","","","","","html-slider-response","131","281372","0.0-127.0","f3h03n4xd4","NaN","<div style=""width:500px;"">
                            <p style=""font-size:50px; font-weight:bold;""
                            >serious</p>
                            <div style=""width:240px; margin: auto;"">
                                <img src=""images/gray_24.png"" style= ""width:200px""alt=""img"">
                            </div>
                        </div>","70","","0","images/gray_24.png","","","","serious"
"","","","","","html-slider-response","132","283074","0.0-128.0","f3h03n4xd4","NaN","<div style=""width:500px;"">
                            <p style=""font-size:50px; font-weight:bold;""
                            >serious</p>
                            <div style=""width:240px; margin: auto;"">
                                <img src=""images/gray_32.png"" style= ""width:200px""alt=""img"">
                            </div>
                        </div>","69","","0","images/gray_32.png","","","","serious"
"","","","","","html-slider-response","133","284135","0.0-129.0","f3h03n4xd4","NaN","<div style=""width:500px;"">
                            <p style=""font-size:50px; font-weight:bold;""
                            >serious</p>
                            <div style=""width:240px; margin: auto;"">
                                <img src=""images/gray_22.png"" style= ""width:200px""alt=""img"">
                            </div>
                        </div>","58","","0","images/gray_22.png","","","","serious"
"","","","","","html-slider-response","134","285024","0.0-130.0","f3h03n4xd4","NaN","<div style=""width:500px;"">
                            <p style=""font-size:50px; font-weight:bold;""
                            >serious</p>
                            <div style=""width:240px; margin: auto;"">
                                <img src=""images/gray_16.png"" style= ""width:200px""alt=""img"">
                            </div>
                        </div>","74","","0","images/gray_16.png","","","","serious"
"","","","","","html-slider-response","135","286752","0.0-131.0","f3h03n4xd4","NaN","<div style=""width:500px;"">
                            <p style=""font-size:50px; font-weight:bold;""
                            >serious</p>
                            <div style=""width:240px; margin: auto;"">
                                <img src=""images/gray_18.png"" style= ""width:200px""alt=""img"">
                            </div>
                        </div>","-138","","0","images/gray_18.png","","","","serious"
"","","","","","html-slider-response","136","287910","0.0-132.0","f3h03n4xd4","NaN","<div style=""width:500px;"">
                            <p style=""font-size:50px; font-weight:bold;""
                            >serious</p>
                            <div style=""width:240px; margin: auto;"">
                                <img src=""images/gray_23.png"" style= ""width:200px""alt=""img"">
                            </div>
                        </div>","88","","0","images/gray_23.png","","","","serious"
"","","","","","html-slider-response","137","289629","0.0-133.0","f3h03n4xd4","NaN","<div style=""width:500px;"">
                            <p style=""font-size:50px; font-weight:bold;""
                            >serious</p>
                            <div style=""width:240px; margin: auto;"">
                                <img src=""images/gray_29.png"" style= ""width:200px""alt=""img"">
                            </div>
                        </div>","-90","","0","images/gray_29.png","","","","serious"
"","","","","","html-slider-response","138","291398","0.0-134.0","f3h03n4xd4","NaN","<div style=""width:500px;"">
                            <p style=""font-size:50px; font-weight:bold;""
                            >serious</p>
                            <div style=""width:240px; margin: auto;"">
                                <img src=""images/gray_02.png"" style= ""width:200px""alt=""img"">
                            </div>
                        </div>","62","","0","images/gray_02.png","","","","serious"
"","","","","","html-slider-response","139","293282","0.0-135.0","f3h03n4xd4","NaN","<div style=""width:500px;"">
                            <p style=""font-size:50px; font-weight:bold;""
                            >serious</p>
                            <div style=""width:240px; margin: auto;"">
                                <img src=""images/gray_25.png"" style= ""width:200px""alt=""img"">
                            </div>
                        </div>","-37","","0","images/gray_25.png","","","","serious"
"","","","","","html-slider-response","140","294959","0.0-136.0","f3h03n4xd4","NaN","<div style=""width:500px;"">
                            <p style=""font-size:50px; font-weight:bold;""
                            >serious</p>
                            <div style=""width:240px; margin: auto;"">
                                <img src=""images/gray_30.png"" style= ""width:200px""alt=""img"">
                            </div>
                        </div>","138","","0","images/gray_30.png","","","","serious"
"","","","","","html-slider-response","141","296678","0.0-137.0","f3h03n4xd4","NaN","<div style=""width:500px;"">
                            <p style=""font-size:50px; font-weight:bold;""
                            >serious</p>
                            <div style=""width:240px; margin: auto;"">
                                <img src=""images/gray_07.png"" style= ""width:200px""alt=""img"">
                            </div>
                        </div>","198","","0","images/gray_07.png","","","","serious"
"","","","","","html-slider-response","142","298965","0.0-138.0","f3h03n4xd4","NaN","<div style=""width:500px;"">
                            <p style=""font-size:50px; font-weight:bold;""
                            >serious</p>
                            <div style=""width:240px; margin: auto;"">
                                <img src=""images/gray_36.png"" style= ""width:200px""alt=""img"">
                            </div>
                        </div>","50","","0","images/gray_36.png","","","","serious"
"","","","","","html-slider-response","143","300841","0.0-139.0","f3h03n4xd4","NaN","<div style=""width:500px;"">
                            <p style=""font-size:50px; font-weight:bold;""
                            >serious</p>
                            <div style=""width:240px; margin: auto;"">
                                <img src=""images/gray_39.png"" style= ""width:200px""alt=""img"">
                            </div>
                        </div>","77","","0","images/gray_39.png","","","","serious"
"","","","","","html-slider-response","144","301975","0.0-140.0","f3h03n4xd4","NaN","<div style=""width:500px;"">
                            <p style=""font-size:50px; font-weight:bold;""
                            >serious</p>
                            <div style=""width:240px; margin: auto;"">
                                <img src=""images/gray_03.png"" style= ""width:200px""alt=""img"">
                            </div>
                        </div>","68","","0","images/gray_03.png","","","","serious"
"","","","","","html-slider-response","145","302988","0.0-141.0","f3h03n4xd4","NaN","<div style=""width:500px;"">
                            <p style=""font-size:50px; font-weight:bold;""
                            >serious</p>
                            <div style=""width:240px; margin: auto;"">
                                <img src=""images/gray_44.png"" style= ""width:200px""alt=""img"">
                            </div>
                        </div>","58","","0","images/gray_44.png","","","","serious"
"","","","","","html-slider-response","146","303876","0.0-142.0","f3h03n4xd4","NaN","<div style=""width:500px;"">
                            <p style=""font-size:50px; font-weight:bold;""
                            >serious</p>
                            <div style=""width:240px; margin: auto;"">
                                <img src=""images/gray_21.png"" style= ""width:200px""alt=""img"">
                            </div>
                        </div>","40","","0","images/gray_21.png","","","","serious"
"","","","","","html-slider-response","147","305422","0.0-143.0","f3h03n4xd4","NaN","<div style=""width:500px;"">
                            <p style=""font-size:50px; font-weight:bold;""
                            >serious</p>
                            <div style=""width:240px; margin: auto;"">
                                <img src=""images/gray_11.png"" style= ""width:200px""alt=""img"">
                            </div>
                        </div>","79","","0","images/gray_11.png","","","","serious"
"","","","","","html-slider-response","148","306606","0.0-144.0","f3h03n4xd4","NaN","<div style=""width:500px;"">
                            <p style=""font-size:50px; font-weight:bold;""
                            >serious</p>
                            <div style=""width:240px; margin: auto;"">
                                <img src=""images/gray_04.png"" style= ""width:200px""alt=""img"">
                            </div>
                        </div>","58","","0","images/gray_04.png","","","","serious"
"","","","","","html-slider-response","149","307963","0.0-145.0","f3h03n4xd4","NaN","<div style=""width:500px;"">
                            <p style=""font-size:50px; font-weight:bold;""
                            >serious</p>
                            <div style=""width:240px; margin: auto;"">
                                <img src=""images/gray_26.png"" style= ""width:200px""alt=""img"">
                            </div>
                        </div>","94","","0","images/gray_26.png","","","","serious"
"","","","","","html-slider-response","150","309648","0.0-146.0","f3h03n4xd4","NaN","<div style=""width:500px;"">
                            <p style=""font-size:50px; font-weight:bold;""
                            >serious</p>
                            <div style=""width:240px; margin: auto;"">
                                <img src=""images/gray_35.png"" style= ""width:200px""alt=""img"">
                            </div>
                        </div>","106","","0","images/gray_35.png","","","","serious"
"","","","","","html-slider-response","151","311279","0.0-147.0","f3h03n4xd4","NaN","<div style=""width:500px;"">
                            <p style=""font-size:50px; font-weight:bold;""
                            >serious</p>
                            <div style=""width:240px; margin: auto;"">
                                <img src=""images/gray_08.png"" style= ""width:200px""alt=""img"">
                            </div>
                        </div>","62","","0","images/gray_08.png","","","","serious"
"","","","","","html-slider-response","152","312315","0.0-148.0","f3h03n4xd4","NaN","<div style=""width:500px;"">
                            <p style=""font-size:50px; font-weight:bold;""
                            >serious</p>
                            <div style=""width:240px; margin: auto;"">
                                <img src=""images/gray_13.png"" style= ""width:200px""alt=""img"">
                            </div>
                        </div>","72","","0","images/gray_13.png","","","","serious"
"","","","","","html-slider-response","153","314536","0.0-149.0","f3h03n4xd4","NaN","<div style=""width:500px;"">
                            <p style=""font-size:50px; font-weight:bold;""
                            >serious</p>
                            <div style=""width:240px; margin: auto;"">
                                <img src=""images/gray_40.png"" style= ""width:200px""alt=""img"">
                            </div>
                        </div>","22","","0","images/gray_40.png","","","","serious"
"","","","","","html-button-response","154","315651","0.0-150.0","f3h03n4xd4","613","<p>Great Job! You've finished block 3.<br></br> You have 5 block(s) left to go.<br></br></p>","0","","","","","","",""
"","","","","","html-button-response","155","316268","0.0-151.0","f3h03n4xd4","615","<p>In this block of trials, you will be asked to rate how much you associate each map with:</p > <p style = 'font-size:150%; font-weight: bold'>playful</p><br></br>","0","","","","","","",""
"","","","","","html-slider-response","156","317891","0.0-152.0","f3h03n4xd4","NaN","<div style=""width:500px;"">
                            <p style=""font-size:50px; font-weight:bold;""
                            >playful</p>
                            <div style=""width:240px; margin: auto;"">
                                <img src=""images/gray_39.png"" style= ""width:200px""alt=""img"">
                            </div>
                        </div>","-16","","0","images/gray_39.png","","","","playful"
"","","","","","html-slider-response","157","319248","0.0-153.0","f3h03n4xd4","NaN","<div style=""width:500px;"">
                            <p style=""font-size:50px; font-weight:bold;""
                            >playful</p>
                            <div style=""width:240px; margin: auto;"">
                                <img src=""images/gray_28.png"" style= ""width:200px""alt=""img"">
                            </div>
                        </div>","-57","","0","images/gray_28.png","","","","playful"
"","","","","","html-slider-response","158","320399","0.0-154.0","f3h03n4xd4","NaN","<div style=""width:500px;"">
                            <p style=""font-size:50px; font-weight:bold;""
                            >playful</p>
                            <div style=""width:240px; margin: auto;"">
                                <img src=""images/gray_27.png"" style= ""width:200px""alt=""img"">
                            </div>
                        </div>","-66","","0","images/gray_27.png","","","","playful"
"","","","","","html-slider-response","159","323015","0.0-155.0","f3h03n4xd4","NaN","<div style=""width:500px;"">
                            <p style=""font-size:50px; font-weight:bold;""
                            >playful</p>
                            <div style=""width:240px; margin: auto;"">
                                <img src=""images/gray_21.png"" style= ""width:200px""alt=""img"">
                            </div>
                        </div>","188","","0","images/gray_21.png","","","","playful"
"","","","","","html-slider-response","160","325311","0.0-156.0","f3h03n4xd4","NaN","<div style=""width:500px;"">
                            <p style=""font-size:50px; font-weight:bold;""
                            >playful</p>
                            <div style=""width:240px; margin: auto;"">
                                <img src=""images/gray_26.png"" style= ""width:200px""alt=""img"">
                            </div>
                        </div>","128","","0","images/gray_26.png","","","","playful"
"","","","","","html-slider-response","161","326667","0.0-157.0","f3h03n4xd4","NaN","<div style=""width:500px;"">
                            <p style=""font-size:50px; font-weight:bold;""
                            >playful</p>
                            <div style=""width:240px; margin: auto;"">
                                <img src=""images/gray_24.png"" style= ""width:200px""alt=""img"">
                            </div>
                        </div>","101","","0","images/gray_24.png","","","","playful"
"","","","","","html-slider-response","162","328182","0.0-158.0","f3h03n4xd4","NaN","<div style=""width:500px;"">
                            <p style=""font-size:50px; font-weight:bold;""
                            >playful</p>
                            <div style=""width:240px; margin: auto;"">
                                <img src=""images/gray_10.png"" style= ""width:200px""alt=""img"">
                            </div>
                        </div>","78","","0","images/gray_10.png","","","","playful"
"","","","","","html-slider-response","163","329538","0.0-159.0","f3h03n4xd4","NaN","<div style=""width:500px;"">
                            <p style=""font-size:50px; font-weight:bold;""
                            >playful</p>
                            <div style=""width:240px; margin: auto;"">
                                <img src=""images/gray_42.png"" style= ""width:200px""alt=""img"">
                            </div>
                        </div>","-34","","0","images/gray_42.png","","","","playful"
"","","","","","html-slider-response","164","330798","0.0-160.0","f3h03n4xd4","NaN","<div style=""width:500px;"">
                            <p style=""font-size:50px; font-weight:bold;""
                            >playful</p>
                            <div style=""width:240px; margin: auto;"">
                                <img src=""images/gray_03.png"" style= ""width:200px""alt=""img"">
                            </div>
                        </div>","-91","","0","images/gray_03.png","","","","playful"
"","","","","","html-slider-response","165","332022","0.0-161.0","f3h03n4xd4","NaN","<div style=""width:500px;"">
                            <p style=""font-size:50px; font-weight:bold;""
                            >playful</p>
                            <div style=""width:240px; margin: auto;"">
                                <img src=""images/gray_40.png"" style= ""width:200px""alt=""img"">
                            </div>
                        </div>","-171","","0","images/gray_40.png","","","","playful"
"","","","","","html-slider-response","166","333248","0.0-162.0","f3h03n4xd4","NaN","<div style=""width:500px;"">
                            <p style=""font-size:50px; font-weight:bold;""
                            >playful</p>
                            <div style=""width:240px; margin: auto;"">
                                <img src=""images/gray_05.png"" style= ""width:200px""alt=""img"">
                            </div>
                        </div>","-150","","0","images/gray_05.png","","","","playful"
"","","","","","html-slider-response","167","334309","0.0-163.0","f3h03n4xd4","NaN","<div style=""width:500px;"">
                            <p style=""font-size:50px; font-weight:bold;""
                            >playful</p>
                            <div style=""width:240px; margin: auto;"">
                                <img src=""images/gray_06.png"" style= ""width:200px""alt=""img"">
                            </div>
                        </div>","-169","","0","images/gray_06.png","","","","playful"
"","","","","","html-slider-response","168","336143","0.0-164.0","f3h03n4xd4","NaN","<div style=""width:500px;"">
                            <p style=""font-size:50px; font-weight:bold;""
                            >playful</p>
                            <div style=""width:240px; margin: auto;"">
                                <img src=""images/gray_31.png"" style= ""width:200px""alt=""img"">
                            </div>
                        </div>","141","","0","images/gray_31.png","","","","playful"
"","","","","","html-slider-response","169","338058","0.0-165.0","f3h03n4xd4","NaN","<div style=""width:500px;"">
                            <p style=""font-size:50px; font-weight:bold;""
                            >playful</p>
                            <div style=""width:240px; margin: auto;"">
                                <img src=""images/gray_43.png"" style= ""width:200px""alt=""img"">
                            </div>
                        </div>","-173","","0","images/gray_43.png","","","","playful"
"","","","","","html-slider-response","170","339277","0.0-166.0","f3h03n4xd4","NaN","<div style=""width:500px;"">
                            <p style=""font-size:50px; font-weight:bold;""
                            >playful</p>
                            <div style=""width:240px; margin: auto;"">
                                <img src=""images/gray_41.png"" style= ""width:200px""alt=""img"">
                            </div>
                        </div>","-142","","0","images/gray_41.png","","","","playful"
"","","","","","html-slider-response","171","341053","0.0-167.0","f3h03n4xd4","NaN","<div style=""width:500px;"">
                            <p style=""font-size:50px; font-weight:bold;""
                            >playful</p>
                            <div style=""width:240px; margin: auto;"">
                                <img src=""images/gray_18.png"" style= ""width:200px""alt=""img"">
                            </div>
                        </div>","109","","0","images/gray_18.png","","","","playful"
"","","","","","html-slider-response","172","342525","0.0-168.0","f3h03n4xd4","NaN","<div style=""width:500px;"">
                            <p style=""font-size:50px; font-weight:bold;""
                            >playful</p>
                            <div style=""width:240px; margin: auto;"">
                                <img src=""images/gray_29.png"" style= ""width:200px""alt=""img"">
                            </div>
                        </div>","102","","0","images/gray_29.png","","","","playful"
"","","","","","html-slider-response","173","344105","0.0-169.0","f3h03n4xd4","NaN","<div style=""width:500px;"">
                            <p style=""font-size:50px; font-weight:bold;""
                            >playful</p>
                            <div style=""width:240px; margin: auto;"">
                                <img src=""images/gray_30.png"" style= ""width:200px""alt=""img"">
                            </div>
                        </div>","-134","","0","images/gray_30.png","","","","playful"
"","","","","","html-slider-response","174","345372","0.0-170.0","f3h03n4xd4","NaN","<div style=""width:500px;"">
                            <p style=""font-size:50px; font-weight:bold;""
                            >playful</p>
                            <div style=""width:240px; margin: auto;"">
                                <img src=""images/gray_44.png"" style= ""width:200px""alt=""img"">
                            </div>
                        </div>","-80","","0","images/gray_44.png","","","","playful"
"","","","","","html-slider-response","175","346383","0.0-171.0","f3h03n4xd4","NaN","<div style=""width:500px;"">
                            <p style=""font-size:50px; font-weight:bold;""
                            >playful</p>
                            <div style=""width:240px; margin: auto;"">
                                <img src=""images/gray_35.png"" style= ""width:200px""alt=""img"">
                            </div>
                        </div>","-115","","0","images/gray_35.png","","","","playful"
"","","","","","html-slider-response","176","347304","0.0-172.0","f3h03n4xd4","NaN","<div style=""width:500px;"">
                            <p style=""font-size:50px; font-weight:bold;""
                            >playful</p>
                            <div style=""width:240px; margin: auto;"">
                                <img src=""images/gray_08.png"" style= ""width:200px""alt=""img"">
                            </div>
                        </div>","-105","","0","images/gray_08.png","","","","playful"
"","","","","","html-slider-response","177","348916","0.0-173.0","f3h03n4xd4","NaN","<div style=""width:500px;"">
                            <p style=""font-size:50px; font-weight:bold;""
                            >playful</p>
                            <div style=""width:240px; margin: auto;"">
                                <img src=""images/gray_01.png"" style= ""width:200px""alt=""img"">
                            </div>
                        </div>","99","","0","images/gray_01.png","","","","playful"
"","","","","","html-slider-response","178","350256","0.0-174.0","f3h03n4xd4","NaN","<div style=""width:500px;"">
                            <p style=""font-size:50px; font-weight:bold;""
                            >playful</p>
                            <div style=""width:240px; margin: auto;"">
                                <img src=""images/gray_19.png"" style= ""width:200px""alt=""img"">
                            </div>
                        </div>","44","","0","images/gray_19.png","","","","playful"
"","","","","","html-slider-response","179","351293","0.0-175.0","f3h03n4xd4","NaN","<div style=""width:500px;"">
                            <p style=""font-size:50px; font-weight:bold;""
                            >playful</p>
                            <div style=""width:240px; margin: auto;"">
                                <img src=""images/gray_22.png"" style= ""width:200px""alt=""img"">
                            </div>
                        </div>","54","","0","images/gray_22.png","","","","playful"
"","","","","","html-slider-response","180","352839","0.0-176.0","f3h03n4xd4","NaN","<div style=""width:500px;"">
                            <p style=""font-size:50px; font-weight:bold;""
                            >playful</p>
                            <div style=""width:240px; margin: auto;"">
                                <img src=""images/gray_14.png"" style= ""width:200px""alt=""img"">
                            </div>
                        </div>","66","","0","images/gray_14.png","","","","playful"
"","","","","","html-slider-response","181","354862","0.0-177.0","f3h03n4xd4","NaN","<div style=""width:500px;"">
                            <p style=""font-size:50px; font-weight:bold;""
                            >playful</p>
                            <div style=""width:240px; margin: auto;"">
                                <img src=""images/gray_09.png"" style= ""width:200px""alt=""img"">
                            </div>
                        </div>","-66","","0","images/gray_09.png","","","","playful"
"","","","","","html-slider-response","182","356113","0.0-178.0","f3h03n4xd4","NaN","<div style=""width:500px;"">
                            <p style=""font-size:50px; font-weight:bold;""
                            >playful</p>
                            <div style=""width:240px; margin: auto;"">
                                <img src=""images/gray_17.png"" style= ""width:200px""alt=""img"">
                            </div>
                        </div>","-67","","0","images/gray_17.png","","","","playful"
"","","","","","html-slider-response","183","357535","0.0-179.0","f3h03n4xd4","NaN","<div style=""width:500px;"">
                            <p style=""font-size:50px; font-weight:bold;""
                            >playful</p>
                            <div style=""width:240px; margin: auto;"">
                                <img src=""images/gray_12.png"" style= ""width:200px""alt=""img"">
                            </div>
                        </div>","-197","","0","images/gray_12.png","","","","playful"
"","","","","","html-slider-response","184","359263","0.0-180.0","f3h03n4xd4","NaN","<div style=""width:500px;"">
                            <p style=""font-size:50px; font-weight:bold;""
                            >playful</p>
                            <div style=""width:240px; margin: auto;"">
                                <img src=""images/gray_25.png"" style= ""width:200px""alt=""img"">
                            </div>
                        </div>","-198","","0","images/gray_25.png","","","","playful"
"","","","","","html-slider-response","185","360275","0.0-181.0","f3h03n4xd4","NaN","<div style=""width:500px;"">
                            <p style=""font-size:50px; font-weight:bold;""
                            >playful</p>
                            <div style=""width:240px; margin: auto;"">
                                <img src=""images/gray_38.png"" style= ""width:200px""alt=""img"">
                            </div>
                        </div>","-198","","0","images/gray_38.png","","","","playful"
"","","","","","html-slider-response","186","361401","0.0-182.0","f3h03n4xd4","NaN","<div style=""width:500px;"">
                            <p style=""font-size:50px; font-weight:bold;""
                            >playful</p>
                            <div style=""width:240px; margin: auto;"">
                                <img src=""images/gray_13.png"" style= ""width:200px""alt=""img"">
                            </div>
                        </div>","-198","","0","images/gray_13.png","","","","playful"
"","","","","","html-slider-response","187","362454","0.0-183.0","f3h03n4xd4","NaN","<div style=""width:500px;"">
                            <p style=""font-size:50px; font-weight:bold;""
                            >playful</p>
                            <div style=""width:240px; margin: auto;"">
                                <img src=""images/gray_04.png"" style= ""width:200px""alt=""img"">
                            </div>
                        </div>","-198","","0","images/gray_04.png","","","","playful"
"","","","","","html-slider-response","188","364436","0.0-184.0","f3h03n4xd4","NaN","<div style=""width:500px;"">
                            <p style=""font-size:50px; font-weight:bold;""
                            >playful</p>
                            <div style=""width:240px; margin: auto;"">
                                <img src=""images/gray_34.png"" style= ""width:200px""alt=""img"">
                            </div>
                        </div>","51","","0","images/gray_34.png","","","","playful"
"","","","","","html-slider-response","189","366707","0.0-185.0","f3h03n4xd4","NaN","<div style=""width:500px;"">
                            <p style=""font-size:50px; font-weight:bold;""
                            >playful</p>
                            <div style=""width:240px; margin: auto;"">
                                <img src=""images/gray_36.png"" style= ""width:200px""alt=""img"">
                            </div>
                        </div>","87","","0","images/gray_36.png","","","","playful"
"","","","","","html-slider-response","190","368269","0.0-186.0","f3h03n4xd4","NaN","<div style=""width:500px;"">
                            <p style=""font-size:50px; font-weight:bold;""
                            >playful</p>
                            <div style=""width:240px; margin: auto;"">
                                <img src=""images/gray_11.png"" style= ""width:200px""alt=""img"">
                            </div>
                        </div>","-180","","0","images/gray_11.png","","","","playful"
"","","","","","html-slider-response","191","369264","0.0-187.0","f3h03n4xd4","NaN","<div style=""width:500px;"">
                            <p style=""font-size:50px; font-weight:bold;""
                            >playful</p>
                            <div style=""width:240px; margin: auto;"">
                                <img src=""images/gray_23.png"" style= ""width:200px""alt=""img"">
                            </div>
                        </div>","-122","","0","images/gray_23.png","","","","playful"
"","","","","","html-slider-response","192","370745","0.0-188.0","f3h03n4xd4","NaN","<div style=""width:500px;"">
                            <p style=""font-size:50px; font-weight:bold;""
                            >playful</p>
                            <div style=""width:240px; margin: auto;"">
                                <img src=""images/gray_15.png"" style= ""width:200px""alt=""img"">
                            </div>
                        </div>","-112","","0","images/gray_15.png","","","","playful"
"","","","","","html-slider-response","193","371946","0.0-189.0","f3h03n4xd4","NaN","<div style=""width:500px;"">
                            <p style=""font-size:50px; font-weight:bold;""
                            >playful</p>
                            <div style=""width:240px; margin: auto;"">
                                <img src=""images/gray_02.png"" style= ""width:200px""alt=""img"">
                            </div>
                        </div>","-198","","0","images/gray_02.png","","","","playful"
"","","","","","html-slider-response","194","373073","0.0-190.0","f3h03n4xd4","NaN","<div style=""width:500px;"">
                            <p style=""font-size:50px; font-weight:bold;""
                            >playful</p>
                            <div style=""width:240px; margin: auto;"">
                                <img src=""images/gray_32.png"" style= ""width:200px""alt=""img"">
                            </div>
                        </div>","-182","","0","images/gray_32.png","","","","playful"
"","","","","","html-slider-response","195","374027","0.0-191.0","f3h03n4xd4","NaN","<div style=""width:500px;"">
                            <p style=""font-size:50px; font-weight:bold;""
                            >playful</p>
                            <div style=""width:240px; margin: auto;"">
                                <img src=""images/gray_16.png"" style= ""width:200px""alt=""img"">
                            </div>
                        </div>","-183","","0","images/gray_16.png","","","","playful"
"","","","","","html-slider-response","196","376001","0.0-192.0","f3h03n4xd4","NaN","<div style=""width:500px;"">
                            <p style=""font-size:50px; font-weight:bold;""
                            >playful</p>
                            <div style=""width:240px; margin: auto;"">
                                <img src=""images/gray_20.png"" style= ""width:200px""alt=""img"">
                            </div>
                        </div>","114","","0","images/gray_20.png","","","","playful"
"","","","","","html-slider-response","197","378344","0.0-193.0","f3h03n4xd4","NaN","<div style=""width:500px;"">
                            <p style=""font-size:50px; font-weight:bold;""
                            >playful</p>
                            <div style=""width:240px; margin: auto;"">
                                <img src=""images/gray_07.png"" style= ""width:200px""alt=""img"">
                            </div>
                        </div>","31","","0","images/gray_07.png","","","","playful"
"","","","","","html-slider-response","198","380352","0.0-194.0","f3h03n4xd4","NaN","<div style=""width:500px;"">
                            <p style=""font-size:50px; font-weight:bold;""
                            >playful</p>
                            <div style=""width:240px; margin: auto;"">
                                <img src=""images/gray_33.png"" style= ""width:200px""alt=""img"">
                            </div>
