"success","timeout","failed_images","failed_audio","failed_video","trial_type","trial_index","time_elapsed","internal_node_id","subject_id","rt","stimulus","response","question_order","slider_start","image_path","practiceTrial","practiceTrialNum","correct","concept"
"true","false","[]","[]","[]","preload","0","1286","0.0-0.0","fozctw3drn","","","","","","","","","",""
"","","","","","html-button-response","1","2373","0.0-1.0","fozctw3drn","1085","Welcome to our experiment!<p>At the bottom of this screen, you will see a button that says ""Begin Experiment"".<br>Please only click that button when you are ready to complete the 25 minute experiment in one sitting.</p><p> Once you click that button, it will not be possible to restart the experiment.","0","","","","","","",""
"true","","","","","fullscreen","2","5342","0.0-2.0","fozctw3drn","1960","","","","","","","","",""
"","","","","","survey-multi-select","3","12214","0.0-3.0","fozctw3drn","6869","","{""Consent"":[""<strong>I consent</strong>""]}","[0]","","","","","",""
"","","","","","html-button-response","4","13810","0.0-4.0","fozctw3drn","1593","Welcome! <p> This experiment involves two parts: demographic information, followed by the experimental task.<p> It will take about 25 minutes to complete both parts.","0","","","","","","",""
"","","","","","survey-text","5","29200","0.0-5.0","fozctw3drn","15343","","{""Age"":""23"",""Gender"":""Male"",""Race/ethnicity"":""White"",""Languages"":""English\nFrench\nHebrew""}","","","","","","",""
"","","","","","html-slider-response","6","49208","0.0-6.0","fozctw3drn","20006","
            <div style='text-align:left; font-size:20px; line-height:25px; width: 1200px;'>
                During this experiment you will be asked to rate how much you associate maps with    different concepts.<br> Below, you can see some examples of the maps you will be asked to rate. Next to the maps
    is the list of concepts.<br>You will be asked    to rate how much you associate each map with each concept on a scale from 'not at all' to 'very much' like the
    one below. <br><br>
    Now, please look at the list of concepts and maps. For each concept, think about the map you associate 'very
    much' with the concept.<br>     When you see that map during the experiment, please rate it near the 'very much' endpoint of the
    scale.<br>Now, please think about which map you associate 'not at all'     with each concept. When you see that map during the experiment, please rate it near the 'not at all' endpoint
    of the scale.<br>
    Please use the full range of the scale. That is, if a map is somewhat associated with the concept, you would
    click partway between the middle point and right side of the scale.    You will be asked to rate each map for a given concept before moving on to the next concept.<br><br>Press the
    'Continue' button for instructions on how to use the slider.    <br><br>
</div>

<div style=""width: 500px; margin: 0 auto;"">
    <div style=""text-align: left; width: 200px; float: left;"">
        <p style=""font-size:25px; line-height:18px;"">calm</p>
        <p style=""font-size:25px; line-height:18px;"">exciting</p>
        <p style=""font-size:25px;line-height:18px;"">positive</p>
        <p style=""font-size:25px;line-height:18px;"">negative</p>
        <p style=""font-size:25px;line-height:18px;"">serious</p>
        <p style=""font-size:25px;line-height:18px;"">playful</p>
        <p style=""font-size:25px;line-height:18px;"">trustworthy</p>
        <p style=""font-size:25px;line-height:18px;"">disturbing</p>
    </div>
    <div style=""width: 200px; float: right; padding-top:15px; padding-right:40px"">
        <br>
        <br>
        <img src=""maps_anchoring.png"" alt=""img"" style=""max-width:500px"">
    </div>
    <div style=""clear: both;""></div>
</div>
            ","55","","0","maps_anchoring.png","true","","",""
"","","","","","html-button-response","7","50219","0.0-7.0","fozctw3drn","1009","<div style=""width:800px;""><p style=""text-align:left"">To move the slider, click and drag your cursor to the location of the scale where you would like to make your rating and then let go. When you let go of the slider, your response will be recorded and the next trial will begin. <br>
            We are interested in your initial impressions of each map for the given concept, so please go with your first intuition. <br>
            Before you begin the experiment, there will be four training trials for you to practice using the scale. <br>
             When you are ready to start the training trials, please click ""Continue"".</p><br></div>","0","","","","","","",""
"","","","","","html-slider-response","8","52746","0.0-8.0-0.0","fozctw3drn","NaN","<div style=""width:500px;"">
                            <p style=""font-size:25px;"">Please move the slider all the way to the <br> right endpoint of the scale</p>

                            </div>
                        </div>","200","","0","","true","0","true",""
"","","","","","html-button-response","9","54132","0.0-8.0-1.0","fozctw3drn","880","<p align='center'><b>Good job!</b> Click on 'Continue' to proceed.</p>","0","","","","","","",""
"","","","","","html-slider-response","10","55445","0.0-9.0-0.0","fozctw3drn","NaN","<div style=""width:500px;"">
                            <p style=""font-size:25px;"">Please move the slider all the way to the <br> left endpoint of the scale</p>

                            </div>
                        </div>","-200","","0","","true","1","true",""
"","","","","","html-button-response","11","57127","0.0-9.0-1.0","fozctw3drn","1179","<p align='center'><b>Good job!</b> Click on 'Continue' to proceed.</p>","0","","","","","","",""
"","","","","","html-slider-response","12","59826","0.0-10.0-0.0","fozctw3drn","NaN","<div style=""width:500px;"">
                            <p style=""font-size:25px;"">Please move the slider halfway between the center and right endpoint of the scale</p>

                            </div>
                        </div>","106","","0","","true","2","true",""
"","","","","","html-button-response","13","60915","0.0-10.0-1.0","fozctw3drn","575","<p align='center'><b>Good job!</b> Click on 'Continue' to proceed.</p>","0","","","","","","",""
"","","","","","html-slider-response","14","62319","0.0-11.0-0.0","fozctw3drn","NaN","<div style=""width:500px;"">
                            <p style=""font-size:25px;"">Please move the slider halfway between the center and left endpoint of the scale</p>

                            </div>
                        </div>","-105","","0","","true","3","true",""
"","","","","","html-button-response","15","63524","0.0-11.0-1.0","fozctw3drn","702","<p align='center'><b>Good job!</b> Click on 'Continue' to proceed.</p>","0","","","","","","",""
"","","","","","html-button-response","16","64594","0.0-12.0","fozctw3drn","1069","<p>Great job! You've completed the practice trials. Now you will begin the main task.</p>","0","","","","","","",""
"","","","","","html-button-response","17","65517","0.0-13.0","fozctw3drn","922","<p>In this block of trials, you will be asked to rate how much you associate each map with:</p > <p style = 'font-size:150%; font-weight: bold'>playful</p><br></br>","0","","","","","","",""
"","","","","","html-slider-response","18","69324","0.0-14.0","fozctw3drn","NaN","<div style=""width:500px;"">
                            <p style=""font-size:50px; font-weight:bold;""
                            >playful</p>
                            <div style=""width:240px; margin: auto;"">
                                <img src=""images/gray_44.png"" style= ""width:200px""alt=""img"">
                            </div>
                        </div>","-98","","0","images/gray_44.png","","","","playful"
"","","","","","html-slider-response","19","73114","0.0-15.0","fozctw3drn","NaN","<div style=""width:500px;"">
                            <p style=""font-size:50px; font-weight:bold;""
                            >playful</p>
                            <div style=""width:240px; margin: auto;"">
                                <img src=""images/gray_22.png"" style= ""width:200px""alt=""img"">
                            </div>
                        </div>","-97","","0","images/gray_22.png","","","","playful"
"","","","","","html-slider-response","20","75115","0.0-16.0","fozctw3drn","NaN","<div style=""width:500px;"">
                            <p style=""font-size:50px; font-weight:bold;""
                            >playful</p>
                            <div style=""width:240px; margin: auto;"">
                                <img src=""images/gray_37.png"" style= ""width:200px""alt=""img"">
                            </div>
                        </div>","88","","0","images/gray_37.png","","","","playful"
"","","","","","html-slider-response","21","77698","0.0-17.0","fozctw3drn","NaN","<div style=""width:500px;"">
                            <p style=""font-size:50px; font-weight:bold;""
                            >playful</p>
                            <div style=""width:240px; margin: auto;"">
                                <img src=""images/gray_42.png"" style= ""width:200px""alt=""img"">
                            </div>
                        </div>","114","","0","images/gray_42.png","","","","playful"
"","","","","","html-slider-response","22","80602","0.0-18.0","fozctw3drn","NaN","<div style=""width:500px;"">
                            <p style=""font-size:50px; font-weight:bold;""
                            >playful</p>
                            <div style=""width:240px; margin: auto;"">
                                <img src=""images/gray_03.png"" style= ""width:200px""alt=""img"">
                            </div>
                        </div>","200","","0","images/gray_03.png","","","","playful"
"","","","","","html-slider-response","23","82373","0.0-19.0","fozctw3drn","NaN","<div style=""width:500px;"">
                            <p style=""font-size:50px; font-weight:bold;""
                            >playful</p>
                            <div style=""width:240px; margin: auto;"">
                                <img src=""images/gray_09.png"" style= ""width:200px""alt=""img"">
                            </div>
                        </div>","-86","","0","images/gray_09.png","","","","playful"
"","","","","","html-slider-response","24","84904","0.0-20.0","fozctw3drn","NaN","<div style=""width:500px;"">
                            <p style=""font-size:50px; font-weight:bold;""
                            >playful</p>
                            <div style=""width:240px; margin: auto;"">
                                <img src=""images/gray_20.png"" style= ""width:200px""alt=""img"">
                            </div>
                        </div>","74","","0","images/gray_20.png","","","","playful"
"","","","","","html-slider-response","25","87979","0.0-21.0","fozctw3drn","NaN","<div style=""width:500px;"">
                            <p style=""font-size:50px; font-weight:bold;""
                            >playful</p>
                            <div style=""width:240px; margin: auto;"">
                                <img src=""images/gray_23.png"" style= ""width:200px""alt=""img"">
                            </div>
                        </div>","90","","0","images/gray_23.png","","","","playful"
"","","","","","html-slider-response","26","90902","0.0-22.0","fozctw3drn","NaN","<div style=""width:500px;"">
                            <p style=""font-size:50px; font-weight:bold;""
                            >playful</p>
                            <div style=""width:240px; margin: auto;"">
                                <img src=""images/gray_33.png"" style= ""width:200px""alt=""img"">
                            </div>
                        </div>","-200","","0","images/gray_33.png","","","","playful"
"","","","","","html-slider-response","27","93028","0.0-23.0","fozctw3drn","NaN","<div style=""width:500px;"">
                            <p style=""font-size:50px; font-weight:bold;""
                            >playful</p>
                            <div style=""width:240px; margin: auto;"">
                                <img src=""images/gray_39.png"" style= ""width:200px""alt=""img"">
                            </div>
                        </div>","-200","","0","images/gray_39.png","","","","playful"
"","","","","","html-slider-response","28","96042","0.0-24.0","fozctw3drn","NaN","<div style=""width:500px;"">
                            <p style=""font-size:50px; font-weight:bold;""
                            >playful</p>
                            <div style=""width:240px; margin: auto;"">
                                <img src=""images/gray_10.png"" style= ""width:200px""alt=""img"">
                            </div>
                        </div>","154","","0","images/gray_10.png","","","","playful"
"","","","","","html-slider-response","29","98803","0.0-25.0","fozctw3drn","NaN","<div style=""width:500px;"">
                            <p style=""font-size:50px; font-weight:bold;""
                            >playful</p>
                            <div style=""width:240px; margin: auto;"">
                                <img src=""images/gray_01.png"" style= ""width:200px""alt=""img"">
                            </div>
                        </div>","-51","","0","images/gray_01.png","","","","playful"
"","","","","","html-slider-response","30","100905","0.0-26.0","fozctw3drn","NaN","<div style=""width:500px;"">
                            <p style=""font-size:50px; font-weight:bold;""
                            >playful</p>
                            <div style=""width:240px; margin: auto;"">
                                <img src=""images/gray_32.png"" style= ""width:200px""alt=""img"">
                            </div>
                        </div>","30","","0","images/gray_32.png","","","","playful"
"","","","","","html-slider-response","31","103020","0.0-27.0","fozctw3drn","NaN","<div style=""width:500px;"">
                            <p style=""font-size:50px; font-weight:bold;""
                            >playful</p>
                            <div style=""width:240px; margin: auto;"">
                                <img src=""images/gray_43.png"" style= ""width:200px""alt=""img"">
                            </div>
                        </div>","40","","0","images/gray_43.png","","","","playful"
"","","","","","html-slider-response","32","105237","0.0-28.0","fozctw3drn","NaN","<div style=""width:500px;"">
                            <p style=""font-size:50px; font-weight:bold;""
                            >playful</p>
                            <div style=""width:240px; margin: auto;"">
                                <img src=""images/gray_04.png"" style= ""width:200px""alt=""img"">
                            </div>
                        </div>","113","","0","images/gray_04.png","","","","playful"
"","","","","","html-slider-response","33","107848","0.0-29.0","fozctw3drn","NaN","<div style=""width:500px;"">
                            <p style=""font-size:50px; font-weight:bold;""
                            >playful</p>
                            <div style=""width:240px; margin: auto;"">
                                <img src=""images/gray_12.png"" style= ""width:200px""alt=""img"">
                            </div>
                        </div>","-42","","0","images/gray_12.png","","","","playful"
"","","","","","html-slider-response","34","110653","0.0-30.0","fozctw3drn","NaN","<div style=""width:500px;"">
                            <p style=""font-size:50px; font-weight:bold;""
                            >playful</p>
                            <div style=""width:240px; margin: auto;"">
                                <img src=""images/gray_25.png"" style= ""width:200px""alt=""img"">
                            </div>
                        </div>","200","","0","images/gray_25.png","","","","playful"
"","","","","","html-slider-response","35","112921","0.0-31.0","fozctw3drn","NaN","<div style=""width:500px;"">
                            <p style=""font-size:50px; font-weight:bold;""
                            >playful</p>
                            <div style=""width:240px; margin: auto;"">
                                <img src=""images/gray_36.png"" style= ""width:200px""alt=""img"">
                            </div>
                        </div>","200","","0","images/gray_36.png","","","","playful"
"","","","","","html-slider-response","36","115222","0.0-32.0","fozctw3drn","NaN","<div style=""width:500px;"">
                            <p style=""font-size:50px; font-weight:bold;""
                            >playful</p>
                            <div style=""width:240px; margin: auto;"">
                                <img src=""images/gray_30.png"" style= ""width:200px""alt=""img"">
                            </div>
                        </div>","-200","","0","images/gray_30.png","","","","playful"
"","","","","","html-slider-response","37","118006","0.0-33.0","fozctw3drn","NaN","<div style=""width:500px;"">
                            <p style=""font-size:50px; font-weight:bold;""
                            >playful</p>
                            <div style=""width:240px; margin: auto;"">
                                <img src=""images/gray_31.png"" style= ""width:200px""alt=""img"">
                            </div>
                        </div>","46","","0","images/gray_31.png","","","","playful"
"","","","","","html-slider-response","38","120513","0.0-34.0","fozctw3drn","NaN","<div style=""width:500px;"">
                            <p style=""font-size:50px; font-weight:bold;""
                            >playful</p>
                            <div style=""width:240px; margin: auto;"">
                                <img src=""images/gray_21.png"" style= ""width:200px""alt=""img"">
                            </div>
                        </div>","125","","0","images/gray_21.png","","","","playful"
"","","","","","html-slider-response","39","122687","0.0-35.0","fozctw3drn","NaN","<div style=""width:500px;"">
                            <p style=""font-size:50px; font-weight:bold;""
                            >playful</p>
                            <div style=""width:240px; margin: auto;"">
                                <img src=""images/gray_06.png"" style= ""width:200px""alt=""img"">
                            </div>
                        </div>","-50","","0","images/gray_06.png","","","","playful"
"","","","","","html-slider-response","40","125201","0.0-36.0","fozctw3drn","NaN","<div style=""width:500px;"">
                            <p style=""font-size:50px; font-weight:bold;""
                            >playful</p>
                            <div style=""width:240px; margin: auto;"">
                                <img src=""images/gray_40.png"" style= ""width:200px""alt=""img"">
                            </div>
                        </div>","-145","","0","images/gray_40.png","","","","playful"
"","","","","","html-slider-response","41","127420","0.0-37.0","fozctw3drn","NaN","<div style=""width:500px;"">
                            <p style=""font-size:50px; font-weight:bold;""
                            >playful</p>
                            <div style=""width:240px; margin: auto;"">
                                <img src=""images/gray_18.png"" style= ""width:200px""alt=""img"">
                            </div>
                        </div>","-44","","0","images/gray_18.png","","","","playful"
"","","","","","html-slider-response","42","129768","0.0-38.0","fozctw3drn","NaN","<div style=""width:500px;"">
                            <p style=""font-size:50px; font-weight:bold;""
                            >playful</p>
                            <div style=""width:240px; margin: auto;"">
                                <img src=""images/gray_19.png"" style= ""width:200px""alt=""img"">
                            </div>
                        </div>","-78","","0","images/gray_19.png","","","","playful"
"","","","","","html-slider-response","43","131750","0.0-39.0","fozctw3drn","NaN","<div style=""width:500px;"">
                            <p style=""font-size:50px; font-weight:bold;""
                            >playful</p>
                            <div style=""width:240px; margin: auto;"">
                                <img src=""images/gray_27.png"" style= ""width:200px""alt=""img"">
                            </div>
                        </div>","66","","0","images/gray_27.png","","","","playful"
"","","","","","html-slider-response","44","133344","0.0-40.0","fozctw3drn","NaN","<div style=""width:500px;"">
                            <p style=""font-size:50px; font-weight:bold;""
                            >playful</p>
                            <div style=""width:240px; margin: auto;"">
                                <img src=""images/gray_08.png"" style= ""width:200px""alt=""img"">
                            </div>
                        </div>","86","","0","images/gray_08.png","","","","playful"
"","","","","","html-slider-response","45","135203","0.0-41.0","fozctw3drn","NaN","<div style=""width:500px;"">
                            <p style=""font-size:50px; font-weight:bold;""
                            >playful</p>
                            <div style=""width:240px; margin: auto;"">
                                <img src=""images/gray_17.png"" style= ""width:200px""alt=""img"">
                            </div>
                        </div>","153","","0","images/gray_17.png","","","","playful"
"","","","","","html-slider-response","46","137337","0.0-42.0","fozctw3drn","NaN","<div style=""width:500px;"">
                            <p style=""font-size:50px; font-weight:bold;""
                            >playful</p>
                            <div style=""width:240px; margin: auto;"">
                                <img src=""images/gray_29.png"" style= ""width:200px""alt=""img"">
                            </div>
                        </div>","200","","0","images/gray_29.png","","","","playful"
"","","","","","html-slider-response","47","139371","0.0-43.0","fozctw3drn","NaN","<div style=""width:500px;"">
                            <p style=""font-size:50px; font-weight:bold;""
                            >playful</p>
                            <div style=""width:240px; margin: auto;"">
                                <img src=""images/gray_35.png"" style= ""width:200px""alt=""img"">
                            </div>
                        </div>","-69","","0","images/gray_35.png","","","","playful"
"","","","","","html-slider-response","48","141820","0.0-44.0","fozctw3drn","NaN","<div style=""width:500px;"">
                            <p style=""font-size:50px; font-weight:bold;""
                            >playful</p>
                            <div style=""width:240px; margin: auto;"">
                                <img src=""images/gray_28.png"" style= ""width:200px""alt=""img"">
                            </div>
                        </div>","67","","0","images/gray_28.png","","","","playful"
"","","","","","html-slider-response","49","143914","0.0-45.0","fozctw3drn","NaN","<div style=""width:500px;"">
                            <p style=""font-size:50px; font-weight:bold;""
                            >playful</p>
                            <div style=""width:240px; margin: auto;"">
                                <img src=""images/gray_05.png"" style= ""width:200px""alt=""img"">
                            </div>
                        </div>","69","","0","images/gray_05.png","","","","playful"
"","","","","","html-slider-response","50","145850","0.0-46.0","fozctw3drn","NaN","<div style=""width:500px;"">
                            <p style=""font-size:50px; font-weight:bold;""
                            >playful</p>
                            <div style=""width:240px; margin: auto;"">
                                <img src=""images/gray_34.png"" style= ""width:200px""alt=""img"">
                            </div>
                        </div>","-200","","0","images/gray_34.png","","","","playful"
"","","","","","html-slider-response","51","149100","0.0-47.0","fozctw3drn","NaN","<div style=""width:500px;"">
                            <p style=""font-size:50px; font-weight:bold;""
                            >playful</p>
                            <div style=""width:240px; margin: auto;"">
                                <img src=""images/gray_07.png"" style= ""width:200px""alt=""img"">
                            </div>
                        </div>","136","","0","images/gray_07.png","","","","playful"
"","","","","","html-slider-response","52","164742","0.0-48.0","fozctw3drn","NaN","<div style=""width:500px;"">
                            <p style=""font-size:50px; font-weight:bold;""
                            >playful</p>
                            <div style=""width:240px; margin: auto;"">
                                <img src=""images/gray_26.png"" style= ""width:200px""alt=""img"">
                            </div>
                        </div>","147","","0","images/gray_26.png","","","","playful"
"","","","","","html-slider-response","53","167119","0.0-49.0","fozctw3drn","NaN","<div style=""width:500px;"">
                            <p style=""font-size:50px; font-weight:bold;""
                            >playful</p>
                            <div style=""width:240px; margin: auto;"">
                                <img src=""images/gray_16.png"" style= ""width:200px""alt=""img"">
                            </div>
                        </div>","108","","0","images/gray_16.png","","","","playful"
"","","","","","html-slider-response","54","168750","0.0-50.0","fozctw3drn","NaN","<div style=""width:500px;"">
                            <p style=""font-size:50px; font-weight:bold;""
                            >playful</p>
                            <div style=""width:240px; margin: auto;"">
                                <img src=""images/gray_15.png"" style= ""width:200px""alt=""img"">
                            </div>
                        </div>","-128","","0","images/gray_15.png","","","","playful"
"","","","","","html-slider-response","55","170670","0.0-51.0","fozctw3drn","NaN","<div style=""width:500px;"">
                            <p style=""font-size:50px; font-weight:bold;""
                            >playful</p>
                            <div style=""width:240px; margin: auto;"">
                                <img src=""images/gray_41.png"" style= ""width:200px""alt=""img"">
                            </div>
                        </div>","78","","0","images/gray_41.png","","","","playful"
"","","","","","html-slider-response","56","172178","0.0-52.0","fozctw3drn","NaN","<div style=""width:500px;"">
                            <p style=""font-size:50px; font-weight:bold;""
                            >playful</p>
                            <div style=""width:240px; margin: auto;"">
                                <img src=""images/gray_02.png"" style= ""width:200px""alt=""img"">
                            </div>
                        </div>","102","","0","images/gray_02.png","","","","playful"
"","","","","","html-slider-response","57","173853","0.0-53.0","fozctw3drn","NaN","<div style=""width:500px;"">
                            <p style=""font-size:50px; font-weight:bold;""
                            >playful</p>
                            <div style=""width:240px; margin: auto;"">
                                <img src=""images/gray_14.png"" style= ""width:200px""alt=""img"">
                            </div>
                        </div>","200","","0","images/gray_14.png","","","","playful"
"","","","","","html-slider-response","58","175862","0.0-54.0","fozctw3drn","NaN","<div style=""width:500px;"">
                            <p style=""font-size:50px; font-weight:bold;""
                            >playful</p>
                            <div style=""width:240px; margin: auto;"">
                                <img src=""images/gray_11.png"" style= ""width:200px""alt=""img"">
                            </div>
                        </div>","-27","","0","images/gray_11.png","","","","playful"
"","","","","","html-slider-response","59","178121","0.0-55.0","fozctw3drn","NaN","<div style=""width:500px;"">
                            <p style=""font-size:50px; font-weight:bold;""
                            >playful</p>
                            <div style=""width:240px; margin: auto;"">
                                <img src=""images/gray_24.png"" style= ""width:200px""alt=""img"">
                            </div>
                        </div>","-111","","0","images/gray_24.png","","","","playful"
"","","","","","html-slider-response","60","180715","0.0-56.0","fozctw3drn","NaN","<div style=""width:500px;"">
                            <p style=""font-size:50px; font-weight:bold;""
                            >playful</p>
                            <div style=""width:240px; margin: auto;"">
                                <img src=""images/gray_13.png"" style= ""width:200px""alt=""img"">
                            </div>
                        </div>","13","","0","images/gray_13.png","","","","playful"
"","","","","","html-slider-response","61","183027","0.0-57.0","fozctw3drn","NaN","<div style=""width:500px;"">
                            <p style=""font-size:50px; font-weight:bold;""
                            >playful</p>
                            <div style=""width:240px; margin: auto;"">
                                <img src=""images/gray_38.png"" style= ""width:200px""alt=""img"">
                            </div>
                        </div>","-102","","0","images/gray_38.png","","","","playful"
"","","","","","html-button-response","62","185885","0.0-58.0","fozctw3drn","2351","<p>Great Job! You've finished block 1.<br></br> You have 7 block(s) left to go.<br></br></p>","0","","","","","","",""
"","","","","","html-button-response","63","187181","0.0-59.0","fozctw3drn","1295","<p>In this block of trials, you will be asked to rate how much you associate each map with:</p > <p style = 'font-size:150%; font-weight: bold'>positive</p><br></br>","0","","","","","","",""
"","","","","","html-slider-response","64","189549","0.0-60.0","fozctw3drn","NaN","<div style=""width:500px;"">
                            <p style=""font-size:50px; font-weight:bold;""
                            >positive</p>
                            <div style=""width:240px; margin: auto;"">
                                <img src=""images/gray_14.png"" style= ""width:200px""alt=""img"">
                            </div>
                        </div>","-66","","0","images/gray_14.png","","","","positive"
"","","","","","html-slider-response","65","191316","0.0-61.0","fozctw3drn","NaN","<div style=""width:500px;"">
                            <p style=""font-size:50px; font-weight:bold;""
                            >positive</p>
                            <div style=""width:240px; margin: auto;"">
                                <img src=""images/gray_36.png"" style= ""width:200px""alt=""img"">
                            </div>
                        </div>","-138","","0","images/gray_36.png","","","","positive"
"","","","","","html-slider-response","66","193157","0.0-62.0","fozctw3drn","NaN","<div style=""width:500px;"">
                            <p style=""font-size:50px; font-weight:bold;""
                            >positive</p>
                            <div style=""width:240px; margin: auto;"">
                                <img src=""images/gray_03.png"" style= ""width:200px""alt=""img"">
                            </div>
                        </div>","-200","","0","images/gray_03.png","","","","positive"
"","","","","","html-slider-response","67","195040","0.0-63.0","fozctw3drn","NaN","<div style=""width:500px;"">
                            <p style=""font-size:50px; font-weight:bold;""
                            >positive</p>
                            <div style=""width:240px; margin: auto;"">
                                <img src=""images/gray_33.png"" style= ""width:200px""alt=""img"">
                            </div>
                        </div>","-116","","0","images/gray_33.png","","","","positive"
"","","","","","html-slider-response","68","196700","0.0-64.0","fozctw3drn","NaN","<div style=""width:500px;"">
                            <p style=""font-size:50px; font-weight:bold;""
                            >positive</p>
                            <div style=""width:240px; margin: auto;"">
                                <img src=""images/gray_30.png"" style= ""width:200px""alt=""img"">
                            </div>
                        </div>","-200","","0","images/gray_30.png","","","","positive"
"","","","","","html-slider-response","69","198975","0.0-65.0","fozctw3drn","NaN","<div style=""width:500px;"">
                            <p style=""font-size:50px; font-weight:bold;""
                            >positive</p>
                            <div style=""width:240px; margin: auto;"">
                                <img src=""images/gray_28.png"" style= ""width:200px""alt=""img"">
                            </div>
                        </div>","-60","","0","images/gray_28.png","","","","positive"
"","","","","","html-slider-response","70","200432","0.0-66.0","fozctw3drn","NaN","<div style=""width:500px;"">
                            <p style=""font-size:50px; font-weight:bold;""
                            >positive</p>
                            <div style=""width:240px; margin: auto;"">
                                <img src=""images/gray_02.png"" style= ""width:200px""alt=""img"">
                            </div>
                        </div>","-43","","0","images/gray_02.png","","","","positive"
"","","","","","html-slider-response","71","201981","0.0-67.0","fozctw3drn","NaN","<div style=""width:500px;"">
                            <p style=""font-size:50px; font-weight:bold;""
                            >positive</p>
                            <div style=""width:240px; margin: auto;"">
                                <img src=""images/gray_11.png"" style= ""width:200px""alt=""img"">
                            </div>
                        </div>","-167","","0","images/gray_11.png","","","","positive"
"","","","","","html-slider-response","72","203528","0.0-68.0","fozctw3drn","NaN","<div style=""width:500px;"">
                            <p style=""font-size:50px; font-weight:bold;""
                            >positive</p>
                            <div style=""width:240px; margin: auto;"">
                                <img src=""images/gray_12.png"" style= ""width:200px""alt=""img"">
                            </div>
                        </div>","-141","","0","images/gray_12.png","","","","positive"
"","","","","","html-slider-response","73","206183","0.0-69.0","fozctw3drn","NaN","<div style=""width:500px;"">
                            <p style=""font-size:50px; font-weight:bold;""
                            >positive</p>
                            <div style=""width:240px; margin: auto;"">
                                <img src=""images/gray_34.png"" style= ""width:200px""alt=""img"">
                            </div>
                        </div>","51","","0","images/gray_34.png","","","","positive"
"","","","","","html-slider-response","74","208116","0.0-70.0","fozctw3drn","NaN","<div style=""width:500px;"">
                            <p style=""font-size:50px; font-weight:bold;""
                            >positive</p>
                            <div style=""width:240px; margin: auto;"">
                                <img src=""images/gray_20.png"" style= ""width:200px""alt=""img"">
                            </div>
                        </div>","132","","0","images/gray_20.png","","","","positive"
"","","","","","html-slider-response","75","210412","0.0-71.0","fozctw3drn","NaN","<div style=""width:500px;"">
                            <p style=""font-size:50px; font-weight:bold;""
                            >positive</p>
                            <div style=""width:240px; margin: auto;"">
                                <img src=""images/gray_29.png"" style= ""width:200px""alt=""img"">
                            </div>
                        </div>","163","","0","images/gray_29.png","","","","positive"
"","","","","","html-slider-response","76","212584","0.0-72.0","fozctw3drn","NaN","<div style=""width:500px;"">
                            <p style=""font-size:50px; font-weight:bold;""
                            >positive</p>
                            <div style=""width:240px; margin: auto;"">
                                <img src=""images/gray_15.png"" style= ""width:200px""alt=""img"">
                            </div>
                        </div>","-46","","0","images/gray_15.png","","","","positive"
"","","","","","html-slider-response","77","214181","0.0-73.0","fozctw3drn","NaN","<div style=""width:500px;"">
                            <p style=""font-size:50px; font-weight:bold;""
                            >positive</p>
                            <div style=""width:240px; margin: auto;"">
                                <img src=""images/gray_05.png"" style= ""width:200px""alt=""img"">
                            </div>
                        </div>","-100","","0","images/gray_05.png","","","","positive"
"","","","","","html-slider-response","78","217264","0.0-74.0","fozctw3drn","NaN","<div style=""width:500px;"">
                            <p style=""font-size:50px; font-weight:bold;""
                            >positive</p>
                            <div style=""width:240px; margin: auto;"">
                                <img src=""images/gray_16.png"" style= ""width:200px""alt=""img"">
                            </div>
                        </div>","25","","0","images/gray_16.png","","","","positive"
"","","","","","html-slider-response","79","218861","0.0-75.0","fozctw3drn","NaN","<div style=""width:500px;"">
                            <p style=""font-size:50px; font-weight:bold;""
                            >positive</p>
                            <div style=""width:240px; margin: auto;"">
                                <img src=""images/gray_44.png"" style= ""width:200px""alt=""img"">
                            </div>
                        </div>","-14","","0","images/gray_44.png","","","","positive"
"","","","","","html-slider-response","80","221465","0.0-76.0","fozctw3drn","NaN","<div style=""width:500px;"">
                            <p style=""font-size:50px; font-weight:bold;""
                            >positive</p>
                            <div style=""width:240px; margin: auto;"">
                                <img src=""images/gray_31.png"" style= ""width:200px""alt=""img"">
                            </div>
                        </div>","181","","0","images/gray_31.png","","","","positive"
"","","","","","html-slider-response","81","223216","0.0-77.0","fozctw3drn","NaN","<div style=""width:500px;"">
                            <p style=""font-size:50px; font-weight:bold;""
                            >positive</p>
                            <div style=""width:240px; margin: auto;"">
                                <img src=""images/gray_27.png"" style= ""width:200px""alt=""img"">
                            </div>
                        </div>","-29","","0","images/gray_27.png","","","","positive"
"","","","","","html-slider-response","82","225301","0.0-78.0","fozctw3drn","NaN","<div style=""width:500px;"">
                            <p style=""font-size:50px; font-weight:bold;""
                            >positive</p>
                            <div style=""width:240px; margin: auto;"">
                                <img src=""images/gray_18.png"" style= ""width:200px""alt=""img"">
                            </div>
                        </div>","32","","0","images/gray_18.png","","","","positive"
"","","","","","html-slider-response","83","226992","0.0-79.0","fozctw3drn","NaN","<div style=""width:500px;"">
                            <p style=""font-size:50px; font-weight:bold;""
                            >positive</p>
                            <div style=""width:240px; margin: auto;"">
                                <img src=""images/gray_42.png"" style= ""width:200px""alt=""img"">
                            </div>
                        </div>","-193","","0","images/gray_42.png","","","","positive"
"","","","","","html-slider-response","84","228626","0.0-80.0","fozctw3drn","NaN","<div style=""width:500px;"">
                            <p style=""font-size:50px; font-weight:bold;""
                            >positive</p>
                            <div style=""width:240px; margin: auto;"">
                                <img src=""images/gray_07.png"" style= ""width:200px""alt=""img"">
                            </div>
                        </div>","-200","","0","images/gray_07.png","","","","positive"
"","","","","","html-slider-response","85","230582","0.0-81.0","fozctw3drn","NaN","<div style=""width:500px;"">
                            <p style=""font-size:50px; font-weight:bold;""
                            >positive</p>
                            <div style=""width:240px; margin: auto;"">
                                <img src=""images/gray_26.png"" style= ""width:200px""alt=""img"">
                            </div>
                        </div>","-200","","0","images/gray_26.png","","","","positive"
"","","","","","html-slider-response","86","234035","0.0-82.0","fozctw3drn","NaN","<div style=""width:500px;"">
                            <p style=""font-size:50px; font-weight:bold;""
                            >positive</p>
                            <div style=""width:240px; margin: auto;"">
                                <img src=""images/gray_39.png"" style= ""width:200px""alt=""img"">
                            </div>
                        </div>","23","","0","images/gray_39.png","","","","positive"
"","","","","","html-slider-response","87","237435","0.0-83.0","fozctw3drn","NaN","<div style=""width:500px;"">
                            <p style=""font-size:50px; font-weight:bold;""
                            >positive</p>
                            <div style=""width:240px; margin: auto;"">
                                <img src=""images/gray_40.png"" style= ""width:200px""alt=""img"">
                            </div>
                        </div>","-66","","0","images/gray_40.png","","","","positive"
"","","","","","html-slider-response","88","239515","0.0-84.0","fozctw3drn","NaN","<div style=""width:500px;"">
                            <p style=""font-size:50px; font-weight:bold;""
                            >positive</p>
                            <div style=""width:240px; margin: auto;"">
                                <img src=""images/gray_04.png"" style= ""width:200px""alt=""img"">
                            </div>
                        </div>","-12","","0","images/gray_04.png","","","","positive"
"","","","","","html-slider-response","89","241742","0.0-85.0","fozctw3drn","NaN","<div style=""width:500px;"">
                            <p style=""font-size:50px; font-weight:bold;""
                            >positive</p>
                            <div style=""width:240px; margin: auto;"">
                                <img src=""images/gray_21.png"" style= ""width:200px""alt=""img"">
                            </div>
                        </div>","22","","0","images/gray_21.png","","","","positive"
"","","","","","html-slider-response","90","244063","0.0-86.0","fozctw3drn","NaN","<div style=""width:500px;"">
                            <p style=""font-size:50px; font-weight:bold;""
                            >positive</p>
                            <div style=""width:240px; margin: auto;"">
                                <img src=""images/gray_17.png"" style= ""width:200px""alt=""img"">
                            </div>
                        </div>","66","","0","images/gray_17.png","","","","positive"
"","","","","","html-slider-response","91","246055","0.0-87.0","fozctw3drn","NaN","<div style=""width:500px;"">
                            <p style=""font-size:50px; font-weight:bold;""
                            >positive</p>
                            <div style=""width:240px; margin: auto;"">
                                <img src=""images/gray_25.png"" style= ""width:200px""alt=""img"">
                            </div>
                        </div>","101","","0","images/gray_25.png","","","","positive"
"","","","","","html-slider-response","92","247664","0.0-88.0","fozctw3drn","NaN","<div style=""width:500px;"">
                            <p style=""font-size:50px; font-weight:bold;""
                            >positive</p>
                            <div style=""width:240px; margin: auto;"">
                                <img src=""images/gray_37.png"" style= ""width:200px""alt=""img"">
                            </div>
                        </div>","-57","","0","images/gray_37.png","","","","positive"
"","","","","","html-slider-response","93","249830","0.0-89.0","fozctw3drn","NaN","<div style=""width:500px;"">
                            <p style=""font-size:50px; font-weight:bold;""
                            >positive</p>
                            <div style=""width:240px; margin: auto;"">
                                <img src=""images/gray_10.png"" style= ""width:200px""alt=""img"">
                            </div>
                        </div>","-74","","0","images/gray_10.png","","","","positive"
"","","","","","html-slider-response","94","251768","0.0-90.0","fozctw3drn","NaN","<div style=""width:500px;"">
                            <p style=""font-size:50px; font-weight:bold;""
                            >positive</p>
                            <div style=""width:240px; margin: auto;"">
                                <img src=""images/gray_43.png"" style= ""width:200px""alt=""img"">
                            </div>
                        </div>","-79","","0","images/gray_43.png","","","","positive"
"","","","","","html-slider-response","95","253097","0.0-91.0","fozctw3drn","NaN","<div style=""width:500px;"">
                            <p style=""font-size:50px; font-weight:bold;""
                            >positive</p>
                            <div style=""width:240px; margin: auto;"">
                                <img src=""images/gray_23.png"" style= ""width:200px""alt=""img"">
                            </div>
                        </div>","-97","","0","images/gray_23.png","","","","positive"
"","","","","","html-slider-response","96","254486","0.0-92.0","fozctw3drn","NaN","<div style=""width:500px;"">
                            <p style=""font-size:50px; font-weight:bold;""
                            >positive</p>
                            <div style=""width:240px; margin: auto;"">
                                <img src=""images/gray_09.png"" style= ""width:200px""alt=""img"">
                            </div>
                        </div>","-96","","0","images/gray_09.png","","","","positive"
"","","","","","html-slider-response","97","256233","0.0-93.0","fozctw3drn","NaN","<div style=""width:500px;"">
                            <p style=""font-size:50px; font-weight:bold;""
                            >positive</p>
                            <div style=""width:240px; margin: auto;"">
                                <img src=""images/gray_08.png"" style= ""width:200px""alt=""img"">
                            </div>
                        </div>","-97","","0","images/gray_08.png","","","","positive"
"","","","","","html-slider-response","98","257630","0.0-94.0","fozctw3drn","NaN","<div style=""width:500px;"">
                            <p style=""font-size:50px; font-weight:bold;""
                            >positive</p>
                            <div style=""width:240px; margin: auto;"">
                                <img src=""images/gray_32.png"" style= ""width:200px""alt=""img"">
                            </div>
                        </div>","-102","","0","images/gray_32.png","","","","positive"
"","","","","","html-slider-response","99","259030","0.0-95.0","fozctw3drn","NaN","<div style=""width:500px;"">
                            <p style=""font-size:50px; font-weight:bold;""
                            >positive</p>
                            <div style=""width:240px; margin: auto;"">
                                <img src=""images/gray_35.png"" style= ""width:200px""alt=""img"">
                            </div>
                        </div>","-200","","0","images/gray_35.png","","","","positive"
"","","","","","html-slider-response","100","260311","0.0-96.0","fozctw3drn","NaN","<div style=""width:500px;"">
                            <p style=""font-size:50px; font-weight:bold;""
                            >positive</p>
                            <div style=""width:240px; margin: auto;"">
                                <img src=""images/gray_19.png"" style= ""width:200px""alt=""img"">
                            </div>
                        </div>","79","","0","images/gray_19.png","","","","positive"
"","","","","","html-slider-response","101","261487","0.0-97.0","fozctw3drn","NaN","<div style=""width:500px;"">
                            <p style=""font-size:50px; font-weight:bold;""
                            >positive</p>
                            <div style=""width:240px; margin: auto;"">
                                <img src=""images/gray_06.png"" style= ""width:200px""alt=""img"">
                            </div>
                        </div>","94","","0","images/gray_06.png","","","","positive"
"","","","","","html-slider-response","102","262596","0.0-98.0","fozctw3drn","NaN","<div style=""width:500px;"">
                            <p style=""font-size:50px; font-weight:bold;""
                            >positive</p>
                            <div style=""width:240px; margin: auto;"">
                                <img src=""images/gray_38.png"" style= ""width:200px""alt=""img"">
                            </div>
                        </div>","-89","","0","images/gray_38.png","","","","positive"
"","","","","","html-slider-response","103","263774","0.0-99.0","fozctw3drn","NaN","<div style=""width:500px;"">
                            <p style=""font-size:50px; font-weight:bold;""
                            >positive</p>
                            <div style=""width:240px; margin: auto;"">
                                <img src=""images/gray_24.png"" style= ""width:200px""alt=""img"">
                            </div>
                        </div>","-97","","0","images/gray_24.png","","","","positive"
"","","","","","html-slider-response","104","265113","0.0-100.0","fozctw3drn","NaN","<div style=""width:500px;"">
                            <p style=""font-size:50px; font-weight:bold;""
                            >positive</p>
                            <div style=""width:240px; margin: auto;"">
                                <img src=""images/gray_41.png"" style= ""width:200px""alt=""img"">
                            </div>
                        </div>","133","","0","images/gray_41.png","","","","positive"
"","","","","","html-slider-response","105","266338","0.0-101.0","fozctw3drn","NaN","<div style=""width:500px;"">
                            <p style=""font-size:50px; font-weight:bold;""
                            >positive</p>
                            <div style=""width:240px; margin: auto;"">
                                <img src=""images/gray_22.png"" style= ""width:200px""alt=""img"">
                            </div>
                        </div>","-102","","0","images/gray_22.png","","","","positive"
"","","","","","html-slider-response","106","267780","0.0-102.0","fozctw3drn","NaN","<div style=""width:500px;"">
                            <p style=""font-size:50px; font-weight:bold;""
                            >positive</p>
                            <div style=""width:240px; margin: auto;"">
                                <img src=""images/gray_01.png"" style= ""width:200px""alt=""img"">
                            </div>
                        </div>","-82","","0","images/gray_01.png","","","","positive"
"","","","","","html-slider-response","107","269127","0.0-103.0","fozctw3drn","NaN","<div style=""width:500px;"">
                            <p style=""font-size:50px; font-weight:bold;""
                            >positive</p>
                            <div style=""width:240px; margin: auto;"">
                                <img src=""images/gray_13.png"" style= ""width:200px""alt=""img"">
                            </div>
                        </div>","200","","0","images/gray_13.png","","","","positive"
"","","","","","html-button-response","108","270809","0.0-104.0","fozctw3drn","1180","<p>Great Job! You've finished block 2.<br></br> You have 6 block(s) left to go.<br></br></p>","0","","","","","","",""
"","","","","","html-button-response","109","271887","0.0-105.0","fozctw3drn","1077","<p>In this block of trials, you will be asked to rate how much you associate each map with:</p > <p style = 'font-size:150%; font-weight: bold'>trustworthy</p><br></br>","0","","","","","","",""
"","","","","","html-slider-response","110","273866","0.0-106.0","fozctw3drn","NaN","<div style=""width:500px;"">
                            <p style=""font-size:50px; font-weight:bold;""
                            >trustworthy</p>
                            <div style=""width:240px; margin: auto;"">
                                <img src=""images/gray_43.png"" style= ""width:200px""alt=""img"">
                            </div>
                        </div>","-46","","0","images/gray_43.png","","","","trustworthy"
"","","","","","html-slider-response","111","274958","0.0-107.0","fozctw3drn","NaN","<div style=""width:500px;"">
                            <p style=""font-size:50px; font-weight:bold;""
                            >trustworthy</p>
                            <div style=""width:240px; margin: auto;"">
                                <img src=""images/gray_27.png"" style= ""width:200px""alt=""img"">
                            </div>
                        </div>","-74","","0","images/gray_27.png","","","","trustworthy"
"","","","","","html-slider-response","112","276098","0.0-108.0","fozctw3drn","NaN","<div style=""width:500px;"">
                            <p style=""font-size:50px; font-weight:bold;""
                            >trustworthy</p>
                            <div style=""width:240px; margin: auto;"">
                                <img src=""images/gray_34.png"" style= ""width:200px""alt=""img"">
                            </div>
                        </div>","-97","","0","images/gray_34.png","","","","trustworthy"
"","","","","","html-slider-response","113","277426","0.0-109.0","fozctw3drn","NaN","<div style=""width:500px;"">
                            <p style=""font-size:50px; font-weight:bold;""
                            >trustworthy</p>
                            <div style=""width:240px; margin: auto;"">
                                <img src=""images/gray_08.png"" style= ""width:200px""alt=""img"">
                            </div>
                        </div>","-95","","0","images/gray_08.png","","","","trustworthy"
"","","","","","html-slider-response","114","278663","0.0-110.0","fozctw3drn","NaN","<div style=""width:500px;"">
                            <p style=""font-size:50px; font-weight:bold;""
                            >trustworthy</p>
                            <div style=""width:240px; margin: auto;"">
                                <img src=""images/gray_09.png"" style= ""width:200px""alt=""img"">
                            </div>
                        </div>","39","","0","images/gray_09.png","","","","trustworthy"
"","","","","","html-slider-response","115","280041","0.0-111.0","fozctw3drn","NaN","<div style=""width:500px;"">
                            <p style=""font-size:50px; font-weight:bold;""
                            >trustworthy</p>
                            <div style=""width:240px; margin: auto;"">
                                <img src=""images/gray_38.png"" style= ""width:200px""alt=""img"">
                            </div>
                        </div>","29","","0","images/gray_38.png","","","","trustworthy"
"","","","","","html-slider-response","116","281295","0.0-112.0","fozctw3drn","NaN","<div style=""width:500px;"">
                            <p style=""font-size:50px; font-weight:bold;""
                            >trustworthy</p>
                            <div style=""width:240px; margin: auto;"">
                                <img src=""images/gray_20.png"" style= ""width:200px""alt=""img"">
                            </div>
                        </div>","136","","0","images/gray_20.png","","","","trustworthy"
"","","","","","html-slider-response","117","282428","0.0-113.0","fozctw3drn","NaN","<div style=""width:500px;"">
                            <p style=""font-size:50px; font-weight:bold;""
                            >trustworthy</p>
                            <div style=""width:240px; margin: auto;"">
                                <img src=""images/gray_30.png"" style= ""width:200px""alt=""img"">
                            </div>
                        </div>","-64","","0","images/gray_30.png","","","","trustworthy"
"","","","","","html-slider-response","118","283743","0.0-114.0","fozctw3drn","NaN","<div style=""width:500px;"">
                            <p style=""font-size:50px; font-weight:bold;""
                            >trustworthy</p>
                            <div style=""width:240px; margin: auto;"">
                                <img src=""images/gray_25.png"" style= ""width:200px""alt=""img"">
                            </div>
                        </div>","-200","","0","images/gray_25.png","","","","trustworthy"
"","","","","","html-slider-response","119","285396","0.0-115.0","fozctw3drn","NaN","<div style=""width:500px;"">
                            <p style=""font-size:50px; font-weight:bold;""
                            >trustworthy</p>
                            <div style=""width:240px; margin: auto;"">
                                <img src=""images/gray_22.png"" style= ""width:200px""alt=""img"">
                            </div>
                        </div>","-200","","0","images/gray_22.png","","","","trustworthy"
"","","","","","html-slider-response","120","287343","0.0-116.0","fozctw3drn","NaN","<div style=""width:500px;"">
                            <p style=""font-size:50px; font-weight:bold;""
                            >trustworthy</p>
                            <div style=""width:240px; margin: auto;"">
                                <img src=""images/gray_31.png"" style= ""width:200px""alt=""img"">
                            </div>
                        </div>","200","","0","images/gray_31.png","","","","trustworthy"
"","","","","","html-slider-response","121","288877","0.0-117.0","fozctw3drn","NaN","<div style=""width:500px;"">
                            <p style=""font-size:50px; font-weight:bold;""
                            >trustworthy</p>
                            <div style=""width:240px; margin: auto;"">
                                <img src=""images/gray_32.png"" style= ""width:200px""alt=""img"">
                            </div>
                        </div>","13","","0","images/gray_32.png","","","","trustworthy"
"","","","","","html-slider-response","122","290297","0.0-118.0","fozctw3drn","NaN","<div style=""width:500px;"">
                            <p style=""font-size:50px; font-weight:bold;""
                            >trustworthy</p>
                            <div style=""width:240px; margin: auto;"">
                                <img src=""images/gray_11.png"" style= ""width:200px""alt=""img"">
                            </div>
                        </div>","-58","","0","images/gray_11.png","","","","trustworthy"
"","","","","","html-slider-response","123","291614","0.0-119.0","fozctw3drn","NaN","<div style=""width:500px;"">
                            <p style=""font-size:50px; font-weight:bold;""
                            >trustworthy</p>
                            <div style=""width:240px; margin: auto;"">
                                <img src=""images/gray_37.png"" style= ""width:200px""alt=""img"">
                            </div>
                        </div>","-86","","0","images/gray_37.png","","","","trustworthy"
"","","","","","html-slider-response","124","293029","0.0-120.0","fozctw3drn","NaN","<div style=""width:500px;"">
                            <p style=""font-size:50px; font-weight:bold;""
                            >trustworthy</p>
                            <div style=""width:240px; margin: auto;"">
                                <img src=""images/gray_24.png"" style= ""width:200px""alt=""img"">
                            </div>
                        </div>","-136","","0","images/gray_24.png","","","","trustworthy"
"","","","","","html-slider-response","125","294620","0.0-121.0","fozctw3drn","NaN","<div style=""width:500px;"">
                            <p style=""font-size:50px; font-weight:bold;""
                            >trustworthy</p>
                            <div style=""width:240px; margin: auto;"">
                                <img src=""images/gray_44.png"" style= ""width:200px""alt=""img"">
                            </div>
                        </div>","46","","0","images/gray_44.png","","","","trustworthy"
"","","","","","html-slider-response","126","296182","0.0-122.0","fozctw3drn","NaN","<div style=""width:500px;"">
                            <p style=""font-size:50px; font-weight:bold;""
                            >trustworthy</p>
                            <div style=""width:240px; margin: auto;"">
                                <img src=""images/gray_13.png"" style= ""width:200px""alt=""img"">
                            </div>
                        </div>","98","","0","images/gray_13.png","","","","trustworthy"
"","","","","","html-slider-response","127","297729","0.0-123.0","fozctw3drn","NaN","<div style=""width:500px;"">
                            <p style=""font-size:50px; font-weight:bold;""
                            >trustworthy</p>
                            <div style=""width:240px; margin: auto;"">
                                <img src=""images/gray_40.png"" style= ""width:200px""alt=""img"">
                            </div>
                        </div>","-46","","0","images/gray_40.png","","","","trustworthy"
"","","","","","html-slider-response","128","299331","0.0-124.0","fozctw3drn","NaN","<div style=""width:500px;"">
                            <p style=""font-size:50px; font-weight:bold;""
                            >trustworthy</p>
                            <div style=""width:240px; margin: auto;"">
                                <img src=""images/gray_19.png"" style= ""width:200px""alt=""img"">
                            </div>
                        </div>","86","","0","images/gray_19.png","","","","trustworthy"
"","","","","","html-slider-response","129","301001","0.0-125.0","fozctw3drn","NaN","<div style=""width:500px;"">
                            <p style=""font-size:50px; font-weight:bold;""
                            >trustworthy</p>
                            <div style=""width:240px; margin: auto;"">
                                <img src=""images/gray_23.png"" style= ""width:200px""alt=""img"">
                            </div>
                        </div>","176","","0","images/gray_23.png","","","","trustworthy"
"","","","","","html-slider-response","130","302090","0.0-126.0","fozctw3drn","NaN","<div style=""width:500px;"">
                            <p style=""font-size:50px; font-weight:bold;""
                            >trustworthy</p>
                            <div style=""width:240px; margin: auto;"">
                                <img src=""images/gray_03.png"" style= ""width:200px""alt=""img"">
                            </div>
                        </div>","-45","","0","images/gray_03.png","","","","trustworthy"
"","","","","","html-slider-response","131","303481","0.0-127.0","fozctw3drn","NaN","<div style=""width:500px;"">
                            <p style=""font-size:50px; font-weight:bold;""
                            >trustworthy</p>
                            <div style=""width:240px; margin: auto;"">
                                <img src=""images/gray_28.png"" style= ""width:200px""alt=""img"">
                            </div>
                        </div>","-162","","0","images/gray_28.png","","","","trustworthy"
"","","","","","html-slider-response","132","304806","0.0-128.0","fozctw3drn","NaN","<div style=""width:500px;"">
                            <p style=""font-size:50px; font-weight:bold;""
                            >trustworthy</p>
                            <div style=""width:240px; margin: auto;"">
                                <img src=""images/gray_06.png"" style= ""width:200px""alt=""img"">
                            </div>
                        </div>","-50","","0","images/gray_06.png","","","","trustworthy"
"","","","","","html-slider-response","133","306098","0.0-129.0","fozctw3drn","NaN","<div style=""width:500px;"">
                            <p style=""font-size:50px; font-weight:bold;""
                            >trustworthy</p>
                            <div style=""width:240px; margin: auto;"">
                                <img src=""images/gray_10.png"" style= ""width:200px""alt=""img"">
                            </div>
                        </div>","-91","","0","images/gray_10.png","","","","trustworthy"
"","","","","","html-slider-response","134","308028","0.0-130.0","fozctw3drn","NaN","<div style=""width:500px;"">
                            <p style=""font-size:50px; font-weight:bold;""
                            >trustworthy</p>
                            <div style=""width:240px; margin: auto;"">
                                <img src=""images/gray_18.png"" style= ""width:200px""alt=""img"">
                            </div>
                        </div>","-154","","0","images/gray_18.png","","","","trustworthy"
"","","","","","html-slider-response","135","309622","0.0-131.0","fozctw3drn","NaN","<div style=""width:500px;"">
                            <p style=""font-size:50px; font-weight:bold;""
                            >trustworthy</p>
                            <div style=""width:240px; margin: auto;"">
                                <img src=""images/gray_26.png"" style= ""width:200px""alt=""img"">
                            </div>
                        </div>","139","","0","images/gray_26.png","","","","trustworthy"
"","","","","","html-slider-response","136","311482","0.0-132.0","fozctw3drn","NaN","<div style=""width:500px;"">
                            <p style=""font-size:50px; font-weight:bold;""
                            >trustworthy</p>
                            <div style=""width:240px; margin: auto;"">
                                <img src=""images/gray_29.png"" style= ""width:200px""alt=""img"">
                            </div>
                        </div>","132","","0","images/gray_29.png","","","","trustworthy"
"","","","","","html-slider-response","137","313274","0.0-133.0","fozctw3drn","NaN","<div style=""width:500px;"">
                            <p style=""font-size:50px; font-weight:bold;""
                            >trustworthy</p>
                            <div style=""width:240px; margin: auto;"">
                                <img src=""images/gray_15.png"" style= ""width:200px""alt=""img"">
                            </div>
                        </div>","88","","0","images/gray_15.png","","","","trustworthy"
"","","","","","html-slider-response","138","314695","0.0-134.0","fozctw3drn","NaN","<div style=""width:500px;"">
                            <p style=""font-size:50px; font-weight:bold;""
                            >trustworthy</p>
                            <div style=""width:240px; margin: auto;"">
                                <img src=""images/gray_33.png"" style= ""width:200px""alt=""img"">
                            </div>
                        </div>","84","","0","images/gray_33.png","","","","trustworthy"
"","","","","","html-slider-response","139","316497","0.0-135.0","fozctw3drn","NaN","<div style=""width:500px;"">
                            <p style=""font-size:50px; font-weight:bold;""
                            >trustworthy</p>
                            <div style=""width:240px; margin: auto;"">
                                <img src=""images/gray_41.png"" style= ""width:200px""alt=""img"">
                            </div>
                        </div>","-22","","0","images/gray_41.png","","","","trustworthy"
"","","","","","html-slider-response","140","317793","0.0-136.0","fozctw3drn","NaN","<div style=""width:500px;"">
                            <p style=""font-size:50px; font-weight:bold;""
                            >trustworthy</p>
                            <div style=""width:240px; margin: auto;"">
                                <img src=""images/gray_12.png"" style= ""width:200px""alt=""img"">
                            </div>
                        </div>","4","","0","images/gray_12.png","","","","trustworthy"
"","","","","","html-slider-response","141","319615","0.0-137.0","fozctw3drn","NaN","<div style=""width:500px;"">
                            <p style=""font-size:50px; font-weight:bold;""
                            >trustworthy</p>
                            <div style=""width:240px; margin: auto;"">
                                <img src=""images/gray_17.png"" style= ""width:200px""alt=""img"">
                            </div>
                        </div>","-47","","0","images/gray_17.png","","","","trustworthy"
"","","","","","html-slider-response","142","321315","0.0-138.0","fozctw3drn","NaN","<div style=""width:500px;"">
                            <p style=""font-size:50px; font-weight:bold;""
                            >trustworthy</p>
                            <div style=""width:240px; margin: auto;"">
                                <img src=""images/gray_21.png"" style= ""width:200px""alt=""img"">
                            </div>
                        </div>","-102","","0","images/gray_21.png","","","","trustworthy"
"","","","","","html-slider-response","143","323115","0.0-139.0","fozctw3drn","NaN","<div style=""width:500px;"">
                            <p style=""font-size:50px; font-weight:bold;""
                            >trustworthy</p>
                            <div style=""width:240px; margin: auto;"">
                                <img src=""images/gray_35.png"" style= ""width:200px""alt=""img"">
                            </div>
                        </div>","-158","","0","images/gray_35.png","","","","trustworthy"
"","","","","","html-slider-response","144","324940","0.0-140.0","fozctw3drn","NaN","<div style=""width:500px;"">
                            <p style=""font-size:50px; font-weight:bold;""
                            >trustworthy</p>
                            <div style=""width:240px; margin: auto;"">
                                <img src=""images/gray_02.png"" style= ""width:200px""alt=""img"">
                            </div>
                        </div>","-174","","0","images/gray_02.png","","","","trustworthy"
"","","","","","html-slider-response","145","326681","0.0-141.0","fozctw3drn","NaN","<div style=""width:500px;"">
                            <p style=""font-size:50px; font-weight:bold;""
                            >trustworthy</p>
                            <div style=""width:240px; margin: auto;"">
                                <img src=""images/gray_07.png"" style= ""width:200px""alt=""img"">
                            </div>
                        </div>","40","","0","images/gray_07.png","","","","trustworthy"
"","","","","","html-slider-response","146","329147","0.0-142.0","fozctw3drn","NaN","<div style=""width:500px;"">
                            <p style=""font-size:50px; font-weight:bold;""
                            >trustworthy</p>
                            <div style=""width:240px; margin: auto;"">
                                <img src=""images/gray_16.png"" style= ""width:200px""alt=""img"">
                            </div>
                        </div>","21","","0","images/gray_16.png","","","","trustworthy"
"","","","","","html-slider-response","147","330666","0.0-143.0","fozctw3drn","NaN","<div style=""width:500px;"">
                            <p style=""font-size:50px; font-weight:bold;""
                            >trustworthy</p>
                            <div style=""width:240px; margin: auto;"">
                                <img src=""images/gray_39.png"" style= ""width:200px""alt=""img"">
                            </div>
                        </div>","-37","","0","images/gray_39.png","","","","trustworthy"
"","","","","","html-slider-response","148","332208","0.0-144.0","fozctw3drn","NaN","<div style=""width:500px;"">
                            <p style=""font-size:50px; font-weight:bold;""
                            >trustworthy</p>
                            <div style=""width:240px; margin: auto;"">
                                <img src=""images/gray_01.png"" style= ""width:200px""alt=""img"">
                            </div>
                        </div>","26","","0","images/gray_01.png","","","","trustworthy"
"","","","","","html-slider-response","149","333881","0.0-145.0","fozctw3drn","NaN","<div style=""width:500px;"">
                            <p style=""font-size:50px; font-weight:bold;""
                            >trustworthy</p>
                            <div style=""width:240px; margin: auto;"">
                                <img src=""images/gray_04.png"" style= ""width:200px""alt=""img"">
                            </div>
                        </div>","-60","","0","images/gray_04.png","","","","trustworthy"
"","","","","","html-slider-response","150","336218","0.0-146.0","fozctw3drn","NaN","<div style=""width:500px;"">
                            <p style=""font-size:50px; font-weight:bold;""
                            >trustworthy</p>
                            <div style=""width:240px; margin: auto;"">
                                <img src=""images/gray_36.png"" style= ""width:200px""alt=""img"">
                            </div>
                        </div>","-67","","0","images/gray_36.png","","","","trustworthy"
"","","","","","html-slider-response","151","338272","0.0-147.0","fozctw3drn","NaN","<div style=""width:500px;"">
                            <p style=""font-size:50px; font-weight:bold;""
                            >trustworthy</p>
                            <div style=""width:240px; margin: auto;"">
                                <img src=""images/gray_42.png"" style= ""width:200px""alt=""img"">
                            </div>
                        </div>","-6","","0","images/gray_42.png","","","","trustworthy"
"","","","","","html-slider-response","152","340447","0.0-148.0","fozctw3drn","NaN","<div style=""width:500px;"">
                            <p style=""font-size:50px; font-weight:bold;""
                            >trustworthy</p>
                            <div style=""width:240px; margin: auto;"">
                                <img src=""images/gray_14.png"" style= ""width:200px""alt=""img"">
                            </div>
                        </div>","-52","","0","images/gray_14.png","","","","trustworthy"
"","","","","","html-slider-response","153","342121","0.0-149.0","fozctw3drn","NaN","<div style=""width:500px;"">
                            <p style=""font-size:50px; font-weight:bold;""
                            >trustworthy</p>
                            <div style=""width:240px; margin: auto;"">
                                <img src=""images/gray_05.png"" style= ""width:200px""alt=""img"">
                            </div>
                        </div>","-178","","0","images/gray_05.png","","","","trustworthy"
"","","","","","html-button-response","154","343604","0.0-150.0","fozctw3drn","981","<p>Great Job! You've finished block 3.<br></br> You have 5 block(s) left to go.<br></br></p>","0","","","","","","",""
"","","","","","html-button-response","155","344409","0.0-151.0","fozctw3drn","805","<p>In this block of trials, you will be asked to rate how much you associate each map with:</p > <p style = 'font-size:150%; font-weight: bold'>disturbing</p><br></br>","0","","","","","","",""
"","","","","","html-slider-response","156","345772","0.0-152.0","fozctw3drn","NaN","<div style=""width:500px;"">
                            <p style=""font-size:50px; font-weight:bold;""
                            >disturbing</p>
                            <div style=""width:240px; margin: auto;"">
                                <img src=""images/gray_43.png"" style= ""width:200px""alt=""img"">
                            </div>
                        </div>","-132","","0","images/gray_43.png","","","","disturbing"
"","","","","","html-slider-response","157","347360","0.0-153.0","fozctw3drn","NaN","<div style=""width:500px;"">
                            <p style=""font-size:50px; font-weight:bold;""
                            >disturbing</p>
                            <div style=""width:240px; margin: auto;"">
                                <img src=""images/gray_21.png"" style= ""width:200px""alt=""img"">
                            </div>
                        </div>","-146","","0","images/gray_21.png","","","","disturbing"
"","","","","","html-slider-response","158","348756","0.0-154.0","fozctw3drn","NaN","<div style=""width:500px;"">
                            <p style=""font-size:50px; font-weight:bold;""
                            >disturbing</p>
                            <div style=""width:240px; margin: auto;"">
                                <img src=""images/gray_17.png"" style= ""width:200px""alt=""img"">
                            </div>
                        </div>","-145","","0","images/gray_17.png","","","","disturbing"
"","","","","","html-slider-response","159","350003","0.0-155.0","fozctw3drn","NaN","<div style=""width:500px;"">
                            <p style=""font-size:50px; font-weight:bold;""
                            >disturbing</p>
                            <div style=""width:240px; margin: auto;"">
                                <img src=""images/gray_20.png"" style= ""width:200px""alt=""img"">
                            </div>
                        </div>","-166","","0","images/gray_20.png","","","","disturbing"
"","","","","","html-slider-response","160","351231","0.0-156.0","fozctw3drn","NaN","<div style=""width:500px;"">
                            <p style=""font-size:50px; font-weight:bold;""
                            >disturbing</p>
                            <div style=""width:240px; margin: auto;"">
                                <img src=""images/gray_42.png"" style= ""width:200px""alt=""img"">
                            </div>
                        </div>","-66","","0","images/gray_42.png","","","","disturbing"
"","","","","","html-slider-response","161","352509","0.0-157.0","fozctw3drn","NaN","<div style=""width:500px;"">
                            <p style=""font-size:50px; font-weight:bold;""
                            >disturbing</p>
                            <div style=""width:240px; margin: auto;"">
                                <img src=""images/gray_29.png"" style= ""width:200px""alt=""img"">
                            </div>
                        </div>","-50","","0","images/gray_29.png","","","","disturbing"
"","","","","","html-slider-response","162","353620","0.0-158.0","fozctw3drn","NaN","<div style=""width:500px;"">
                            <p style=""font-size:50px; font-weight:bold;""
                            >disturbing</p>
                            <div style=""width:240px; margin: auto;"">
                                <img src=""images/gray_16.png"" style= ""width:200px""alt=""img"">
                            </div>
                        </div>","-105","","0","images/gray_16.png","","","","disturbing"
"","","","","","html-slider-response","163","354782","0.0-159.0","fozctw3drn","NaN","<div style=""width:500px;"">
                            <p style=""font-size:50px; font-weight:bold;""
                            >disturbing</p>
                            <div style=""width:240px; margin: auto;"">
                                <img src=""images/gray_15.png"" style= ""width:200px""alt=""img"">
                            </div>
                        </div>","-124","","0","images/gray_15.png","","","","disturbing"
"","","","","","html-slider-response","164","356164","0.0-160.0","fozctw3drn","NaN","<div style=""width:500px;"">
                            <p style=""font-size:50px; font-weight:bold;""
                            >disturbing</p>
                            <div style=""width:240px; margin: auto;"">
                                <img src=""images/gray_38.png"" style= ""width:200px""alt=""img"">
                            </div>
                        </div>","-34","","0","images/gray_38.png","","","","disturbing"
"","","","","","html-slider-response","165","357292","0.0-161.0","fozctw3drn","NaN","<div style=""width:500px;"">
                            <p style=""font-size:50px; font-weight:bold;""
                            >disturbing</p>
                            <div style=""width:240px; margin: auto;"">
                                <img src=""images/gray_11.png"" style= ""width:200px""alt=""img"">
                            </div>
                        </div>","-188","","0","images/gray_11.png","","","","disturbing"
"","","","","","html-slider-response","166","358459","0.0-162.0","fozctw3drn","NaN","<div style=""width:500px;"">
                            <p style=""font-size:50px; font-weight:bold;""
                            >disturbing</p>
                            <div style=""width:240px; margin: auto;"">
                                <img src=""images/gray_27.png"" style= ""width:200px""alt=""img"">
                            </div>
                        </div>","-35","","0","images/gray_27.png","","","","disturbing"
"","","","","","html-slider-response","167","359793","0.0-163.0","fozctw3drn","NaN","<div style=""width:500px;"">
                            <p style=""font-size:50px; font-weight:bold;""
                            >disturbing</p>
                            <div style=""width:240px; margin: auto;"">
                                <img src=""images/gray_09.png"" style= ""width:200px""alt=""img"">
                            </div>
                        </div>","-76","","0","images/gray_09.png","","","","disturbing"
"","","","","","html-slider-response","168","361178","0.0-164.0","fozctw3drn","NaN","<div style=""width:500px;"">
                            <p style=""font-size:50px; font-weight:bold;""
                            >disturbing</p>
                            <div style=""width:240px; margin: auto;"">
                                <img src=""images/gray_03.png"" style= ""width:200px""alt=""img"">
                            </div>
                        </div>","-20","","0","images/gray_03.png","","","","disturbing"
"","","","","","html-slider-response","169","362344","0.0-165.0","fozctw3drn","NaN","<div style=""width:500px;"">
                            <p style=""font-size:50px; font-weight:bold;""
                            >disturbing</p>
                            <div style=""width:240px; margin: auto;"">
                                <img src=""images/gray_12.png"" style= ""width:200px""alt=""img"">
                            </div>
                        </div>","-140","","0","images/gray_12.png","","","","disturbing"
"","","","","","html-slider-response","170","363761","0.0-166.0","fozctw3drn","NaN","<div style=""width:500px;"">
                            <p style=""font-size:50px; font-weight:bold;""
                            >disturbing</p>
                            <div style=""width:240px; margin: auto;"">
                                <img src=""images/gray_28.png"" style= ""width:200px""alt=""img"">
                            </div>
                        </div>","-70","","0","images/gray_28.png","","","","disturbing"
"","","","","","html-slider-response","171","364984","0.0-167.0","fozctw3drn","NaN","<div style=""width:500px;"">
                            <p style=""font-size:50px; font-weight:bold;""
                            >disturbing</p>
                            <div style=""width:240px; margin: auto;"">
                                <img src=""images/gray_25.png"" style= ""width:200px""alt=""img"">
                            </div>
                        </div>","-143","","0","images/gray_25.png","","","","disturbing"
"","","","","","html-slider-response","172","366392","0.0-168.0","fozctw3drn","NaN","<div style=""width:500px;"">
                            <p style=""font-size:50px; font-weight:bold;""
                            >disturbing</p>
                            <div style=""width:240px; margin: auto;"">
                                <img src=""images/gray_06.png"" style= ""width:200px""alt=""img"">
                            </div>
                        </div>","-61","","0","images/gray_06.png","","","","disturbing"
"","","","","","html-slider-response","173","367776","0.0-169.0","fozctw3drn","NaN","<div style=""width:500px;"">
                            <p style=""font-size:50px; font-weight:bold;""
                            >disturbing</p>
                            <div style=""width:240px; margin: auto;"">
                                <img src=""images/gray_22.png"" style= ""width:200px""alt=""img"">
                            </div>
                        </div>","-168","","0","images/gray_22.png","","","","disturbing"
"","","","","","html-slider-response","174","369352","0.0-170.0","fozctw3drn","NaN","<div style=""width:500px;"">
                            <p style=""font-size:50px; font-weight:bold;""
                            >disturbing</p>
                            <div style=""width:240px; margin: auto;"">
                                <img src=""images/gray_14.png"" style= ""width:200px""alt=""img"">
                            </div>
                        </div>","-25","","0","images/gray_14.png","","","","disturbing"
"","","","","","html-slider-response","175","370793","0.0-171.0","fozctw3drn","NaN","<div style=""width:500px;"">
                            <p style=""font-size:50px; font-weight:bold;""
                            >disturbing</p>
                            <div style=""width:240px; margin: auto;"">
                                <img src=""images/gray_36.png"" style= ""width:200px""alt=""img"">
                            </div>
                        </div>","-123","","0","images/gray_36.png","","","","disturbing"
"","","","","","html-slider-response","176","372239","0.0-172.0","fozctw3drn","NaN","<div style=""width:500px;"">
                            <p style=""font-size:50px; font-weight:bold;""
                            >disturbing</p>
                            <div style=""width:240px; margin: auto;"">
                                <img src=""images/gray_23.png"" style= ""width:200px""alt=""img"">
                            </div>
                        </div>","-40","","0","images/gray_23.png","","","","disturbing"
"","","","","","html-slider-response","177","373689","0.0-173.0","fozctw3drn","NaN","<div style=""width:500px;"">
                            <p style=""font-size:50px; font-weight:bold;""
                            >disturbing</p>
                            <div style=""width:240px; margin: auto;"">
                                <img src=""images/gray_01.png"" style= ""width:200px""alt=""img"">
                            </div>
                        </div>","-184","","0","images/gray_01.png","","","","disturbing"
"","","","","","html-slider-response","178","375097","0.0-174.0","fozctw3drn","NaN","<div style=""width:500px;"">
                            <p style=""font-size:50px; font-weight:bold;""
                            >disturbing</p>
                            <div style=""width:240px; margin: auto;"">
                                <img src=""images/gray_37.png"" style= ""width:200px""alt=""img"">
                            </div>
                        </div>","-45","","0","images/gray_37.png","","","","disturbing"
"","","","","","html-slider-response","179","376542","0.0-175.0","fozctw3drn","NaN","<div style=""width:500px;"">
                            <p style=""font-size:50px; font-weight:bold;""
                            >disturbing</p>
                            <div style=""width:240px; margin: auto;"">
                                <img src=""images/gray_34.png"" style= ""width:200px""alt=""img"">
                            </div>
                        </div>","-112","","0","images/gray_34.png","","","","disturbing"
"","","","","","html-slider-response","180","377839","0.0-176.0","fozctw3drn","NaN","<div style=""width:500px;"">
                            <p style=""font-size:50px; font-weight:bold;""
                            >disturbing</p>
                            <div style=""width:240px; margin: auto;"">
                                <img src=""images/gray_39.png"" style= ""width:200px""alt=""img"">
                            </div>
                        </div>","-124","","0","images/gray_39.png","","","","disturbing"
"","","","","","html-slider-response","181","379203","0.0-177.0","fozctw3drn","NaN","<div style=""width:500px;"">
                            <p style=""font-size:50px; font-weight:bold;""
                            >disturbing</p>
                            <div style=""width:240px; margin: auto;"">
                                <img src=""images/gray_18.png"" style= ""width:200px""alt=""img"">
                            </div>
                        </div>","-46","","0","images/gray_18.png","","","","disturbing"
"","","","","","html-slider-response","182","380559","0.0-178.0","fozctw3drn","NaN","<div style=""width:500px;"">
                            <p style=""font-size:50px; font-weight:bold;""
                            >disturbing</p>
                            <div style=""width:240px; margin: auto;"">
                                <img src=""images/gray_13.png"" style= ""width:200px""alt=""img"">
                            </div>
                        </div>","-144","","0","images/gray_13.png","","","","disturbing"
"","","","","","html-slider-response","183","382210","0.0-179.0","fozctw3drn","NaN","<div style=""width:500px;"">
                            <p style=""font-size:50px; font-weight:bold;""
                            >disturbing</p>
                            <div style=""width:240px; margin: auto;"">
                                <img src=""images/gray_44.png"" style= ""width:200px""alt=""img"">
                            </div>
                        </div>","-48","","0","images/gray_44.png","","","","disturbing"
"","","","","","html-slider-response","184","384092","0.0-180.0","fozctw3drn","NaN","<div style=""width:500px;"">
                            <p style=""font-size:50px; font-weight:bold;""
                            >disturbing</p>
                            <div style=""width:240px; margin: auto;"">
                                <img src=""images/gray_41.png"" style= ""width:200px""alt=""img"">
                            </div>
                        </div>","-200","","0","images/gray_41.png","","","","disturbing"
"","","","","","html-slider-response","185","385490","0.0-181.0","fozctw3drn","NaN","<div style=""width:500px;"">
                            <p style=""font-size:50px; font-weight:bold;""
                            >disturbing</p>
                            <div style=""width:240px; margin: auto;"">
                                <img src=""images/gray_02.png"" style= ""width:200px""alt=""img"">
                            </div>
                        </div>","-69","","0","images/gray_02.png","","","","disturbing"
"","","","","","html-slider-response","186","386792","0.0-182.0","fozctw3drn","NaN","<div style=""width:500px;"">
                            <p style=""font-size:50px; font-weight:bold;""
                            >disturbing</p>
                            <div style=""width:240px; margin: auto;"">
                                <img src=""images/gray_10.png"" style= ""width:200px""alt=""img"">
                            </div>
                        </div>","-19","","0","images/gray_10.png","","","","disturbing"
"","","","","","html-slider-response","187","388058","0.0-183.0","fozctw3drn","NaN","<div style=""width:500px;"">
                            <p style=""font-size:50px; font-weight:bold;""
                            >disturbing</p>
                            <div style=""width:240px; margin: auto;"">
                                <img src=""images/gray_30.png"" style= ""width:200px""alt=""img"">
                            </div>
                        </div>","-154","","0","images/gray_30.png","","","","disturbing"
"","","","","","html-slider-response","188","389525","0.0-184.0","fozctw3drn","NaN","<div style=""width:500px;"">
                            <p style=""font-size:50px; font-weight:bold;""
                            >disturbing</p>
                            <div style=""width:240px; margin: auto;"">
                                <img src=""images/gray_31.png"" style= ""width:200px""alt=""img"">
                            </div>
                        </div>","-21","","0","images/gray_31.png","","","","disturbing"
"","","","","","html-slider-response","189","391492","0.0-185.0","fozctw3drn","NaN","<div style=""width:500px;"">
                            <p style=""font-size:50px; font-weight:bold;""
                            >disturbing</p>
                            <div style=""width:240px; margin: auto;"">
                                <img src=""images/gray_07.png"" style= ""width:200px""alt=""img"">
                            </div>
                        </div>","-27","","0","images/gray_07.png","","","","disturbing"
"","","","","","html-slider-response","190","392992","0.0-186.0","fozctw3drn","NaN","<div style=""width:500px;"">
                            <p style=""font-size:50px; font-weight:bold;""
                            >disturbing</p>
                            <div style=""width:240px; margin: auto;"">
                                <img src=""images/gray_05.png"" style= ""width:200px""alt=""img"">
                            </div>
                        </div>","-10","","0","images/gray_05.png","","","","disturbing"
"","","","","","html-slider-response","191","394728","0.0-187.0","fozctw3drn","NaN","<div style=""width:500px;"">
                            <p style=""font-size:50px; font-weight:bold;""
                            >disturbing</p>
                            <div style=""width:240px; margin: auto;"">
                                <img src=""images/gray_19.png"" style= ""width:200px""alt=""img"">
                            </div>
                        </div>","-28","","0","images/gray_19.png","","","","disturbing"
"","","","","","html-slider-response","192","396206","0.0-188.0","fozctw3drn","NaN","<div style=""width:500px;"">
                            <p style=""font-size:50px; font-weight:bold;""
                            >disturbing</p>
                            <div style=""width:240px; margin: auto;"">
                                <img src=""images/gray_08.png"" style= ""width:200px""alt=""img"">
                            </div>
                        </div>","-89","","0","images/gray_08.png","","","","disturbing"
"","","","","","html-slider-response","193","398058","0.0-189.0","fozctw3drn","NaN","<div style=""width:500px;"">
                            <p style=""font-size:50px; font-weight:bold;""
                            >disturbing</p>
                            <div style=""width:240px; margin: auto;"">
                                <img src=""images/gray_40.png"" style= ""width:200px""alt=""img"">
                            </div>
                        </div>","-138","","0","images/gray_40.png","","","","disturbing"
"","","","","","html-slider-response","194","399516","0.0-190.0","fozctw3drn","NaN","<div style=""width:500px;"">
                            <p style=""font-size:50px; font-weight:bold;""
                            >disturbing</p>
                            <div style=""width:240px; margin: auto;"">
                                <img src=""images/gray_32.png"" style= ""width:200px""alt=""img"">
                            </div>
                        </div>","-6","","0","images/gray_32.png","","","","disturbing"
"","","","","","html-slider-response","195","400917","0.0-191.0","fozctw3drn","NaN","<div style=""width:500px;"">
                            <p style=""font-size:50px; font-weight:bold;""
                            >disturbing</p>
                            <div style=""width:240px; margin: auto;"">
                                <img src=""images/gray_04.png"" style= ""width:200px""alt=""img"">
                            </div>
                        </div>","-45","","0","images/gray_04.png","","","","disturbing"
"","","","","","html-slider-response","196","402373","0.0-192.0","fozctw3drn","NaN","<div style=""width:500px;"">
                            <p style=""font-size:50px; font-weight:bold;""
                            >disturbing</p>
                            <div style=""width:240px; margin: auto;"">
                                <img src=""images/gray_24.png"" style= ""width:200px""alt=""img"">
                            </div>
                        </div>","-123","","0","images/gray_24.png","","","","disturbing"
"","","","","","html-slider-response","197","403624","0.0-193.0","fozctw3drn","NaN","<div style=""width:500px;"">
                            <p style=""font-size:50px; font-weight:bold;""
                            >disturbing</p>
                            <div style=""width:240px; margin: auto;"">
                                <img src=""images/gray_26.png"" style= ""width:200px""alt=""img"">
                            </div>
                        </div>","-19","","0","images/gray_26.png","","","","disturbing"
