"success","timeout","failed_images","failed_audio","failed_video","trial_type","trial_index","time_elapsed","internal_node_id","subject_id","rt","stimulus","response","question_order","slider_start","image_path","practiceTrial","practiceTrialNum","correct","concept"
"true","false","[]","[]","[]","preload","0","883","0.0-0.0","gvzxzfoeks","","","","","","","","","",""
"","","","","","html-button-response","1","6187","0.0-1.0","gvzxzfoeks","5303","Welcome to our experiment!<p>At the bottom of this screen, you will see a button that says ""Begin Experiment"".<br>Please only click that button when you are ready to complete the 25 minute experiment in one sitting.</p><p> Once you click that button, it will not be possible to restart the experiment.","0","","","","","","",""
"true","","","","","fullscreen","2","8845","0.0-2.0","gvzxzfoeks","1654","","","","","","","","",""
"","","","","","survey-multi-select","3","38199","0.0-3.0","gvzxzfoeks","29348","","{""Consent"":[""<strong>I consent</strong>""]}","[0]","","","","","",""
"","","","","","html-button-response","4","40217","0.0-4.0","gvzxzfoeks","2012","Welcome! <p> This experiment involves two parts: demographic information, followed by the experimental task.<p> It will take about 25 minutes to complete both parts.","0","","","","","","",""
"","","","","","survey-text","5","49871","0.0-5.0","gvzxzfoeks","9644","","{""Age"":""18"",""Gender"":""female"",""Race/ethnicity"":""white"",""Languages"":""english""}","","","","","","",""
"","","","","","html-slider-response","6","213782","0.0-6.0","gvzxzfoeks","163915","
            <div style='text-align:left; font-size:20px; line-height:25px; width: 1200px;'>
                During this experiment you will be asked to rate how much you associate maps with    different concepts.<br> Below, you can see some examples of the maps you will be asked to rate. Next to the maps
    is the list of concepts.<br>You will be asked    to rate how much you associate each map with each concept on a scale from 'not at all' to 'very much' like the
    one below. <br><br>
    Now, please look at the list of concepts and maps. For each concept, think about the map you associate 'very
    much' with the concept.<br>     When you see that map during the experiment, please rate it near the 'very much' endpoint of the
    scale.<br>Now, please think about which map you associate 'not at all'     with each concept. When you see that map during the experiment, please rate it near the 'not at all' endpoint
    of the scale.<br>
    Please use the full range of the scale. That is, if a map is somewhat associated with the concept, you would
    click partway between the middle point and right side of the scale.    You will be asked to rate each map for a given concept before moving on to the next concept.<br><br>Press the
    'Continue' button for instructions on how to use the slider.    <br><br>
</div>

<div style=""width: 500px; margin: 0 auto;"">
    <div style=""text-align: left; width: 200px; float: left;"">
        <p style=""font-size:25px; line-height:18px;"">calm</p>
        <p style=""font-size:25px; line-height:18px;"">exciting</p>
        <p style=""font-size:25px;line-height:18px;"">positive</p>
        <p style=""font-size:25px;line-height:18px;"">negative</p>
        <p style=""font-size:25px;line-height:18px;"">serious</p>
        <p style=""font-size:25px;line-height:18px;"">playful</p>
        <p style=""font-size:25px;line-height:18px;"">trustworthy</p>
        <p style=""font-size:25px;line-height:18px;"">disturbing</p>
    </div>
    <div style=""width: 200px; float: right; padding-top:15px; padding-right:40px"">
        <br>
        <br>
        <img src=""maps_anchoring.png"" alt=""img"" style=""max-width:500px"">
    </div>
    <div style=""clear: both;""></div>
</div>
            ","-2","","0","maps_anchoring.png","true","","",""
"","","","","","html-button-response","7","223984","0.0-7.0","gvzxzfoeks","10202","<div style=""width:800px;""><p style=""text-align:left"">To move the slider, click and drag your cursor to the location of the scale where you would like to make your rating and then let go. When you let go of the slider, your response will be recorded and the next trial will begin. <br>
            We are interested in your initial impressions of each map for the given concept, so please go with your first intuition. <br>
            Before you begin the experiment, there will be four training trials for you to practice using the scale. <br>
             When you are ready to start the training trials, please click ""Continue"".</p><br></div>","0","","","","","","",""
"","","","","","html-slider-response","8","226334","0.0-8.0-0.0","gvzxzfoeks","NaN","<div style=""width:500px;"">
                            <p style=""font-size:25px;"">Please move the slider all the way to the <br> right endpoint of the scale</p>

                            </div>
                        </div>","200","","0","","true","0","true",""
"","","","","","html-button-response","9","227701","0.0-8.0-1.0","gvzxzfoeks","864","<p align='center'><b>Good job!</b> Click on 'Continue' to proceed.</p>","0","","","","","","",""
"","","","","","html-slider-response","10","229008","0.0-9.0-0.0","gvzxzfoeks","NaN","<div style=""width:500px;"">
                            <p style=""font-size:25px;"">Please move the slider all the way to the <br> left endpoint of the scale</p>

                            </div>
                        </div>","-200","","0","","true","1","true",""
"","","","","","html-button-response","11","230208","0.0-9.0-1.0","gvzxzfoeks","698","<p align='center'><b>Good job!</b> Click on 'Continue' to proceed.</p>","0","","","","","","",""
"","","","","","html-slider-response","12","234159","0.0-10.0-0.0","gvzxzfoeks","NaN","<div style=""width:500px;"">
                            <p style=""font-size:25px;"">Please move the slider halfway between the center and right endpoint of the scale</p>

                            </div>
                        </div>","101","","0","","true","2","true",""
"","","","","","html-button-response","13","235326","0.0-10.0-1.0","gvzxzfoeks","665","<p align='center'><b>Good job!</b> Click on 'Continue' to proceed.</p>","0","","","","","","",""
"","","","","","html-slider-response","14","237576","0.0-11.0-0.0","gvzxzfoeks","NaN","<div style=""width:500px;"">
                            <p style=""font-size:25px;"">Please move the slider halfway between the center and left endpoint of the scale</p>

                            </div>
                        </div>","-108","","0","","true","3","true",""
"","","","","","html-button-response","15","238552","0.0-11.0-1.0","gvzxzfoeks","473","<p align='center'><b>Good job!</b> Click on 'Continue' to proceed.</p>","0","","","","","","",""
"","","","","","html-button-response","16","239359","0.0-12.0","gvzxzfoeks","807","<p>Great job! You've completed the practice trials. Now you will begin the main task.</p>","0","","","","","","",""
"","","","","","html-button-response","17","243598","0.0-13.0","gvzxzfoeks","4238","<p>In this block of trials, you will be asked to rate how much you associate each map with:</p > <p style = 'font-size:150%; font-weight: bold'>playful</p><br></br>","0","","","","","","",""
"","","","","","html-slider-response","18","249801","0.0-14.0","gvzxzfoeks","NaN","<div style=""width:500px;"">
                            <p style=""font-size:50px; font-weight:bold;""
                            >playful</p>
                            <div style=""width:240px; margin: auto;"">
                                <img src=""images/gray_06.png"" style= ""width:200px""alt=""img"">
                            </div>
                        </div>","-73","","0","images/gray_06.png","","","","playful"
"","","","","","html-slider-response","19","252285","0.0-15.0","gvzxzfoeks","NaN","<div style=""width:500px;"">
                            <p style=""font-size:50px; font-weight:bold;""
                            >playful</p>
                            <div style=""width:240px; margin: auto;"">
                                <img src=""images/gray_19.png"" style= ""width:200px""alt=""img"">
                            </div>
                        </div>","-130","","0","images/gray_19.png","","","","playful"
"","","","","","html-slider-response","20","256207","0.0-16.0","gvzxzfoeks","NaN","<div style=""width:500px;"">
                            <p style=""font-size:50px; font-weight:bold;""
                            >playful</p>
                            <div style=""width:240px; margin: auto;"">
                                <img src=""images/gray_42.png"" style= ""width:200px""alt=""img"">
                            </div>
                        </div>","24","","0","images/gray_42.png","","","","playful"
"","","","","","html-slider-response","21","258770","0.0-17.0","gvzxzfoeks","NaN","<div style=""width:500px;"">
                            <p style=""font-size:50px; font-weight:bold;""
                            >playful</p>
                            <div style=""width:240px; margin: auto;"">
                                <img src=""images/gray_36.png"" style= ""width:200px""alt=""img"">
                            </div>
                        </div>","52","","0","images/gray_36.png","","","","playful"
"","","","","","html-slider-response","22","262567","0.0-18.0","gvzxzfoeks","NaN","<div style=""width:500px;"">
                            <p style=""font-size:50px; font-weight:bold;""
                            >playful</p>
                            <div style=""width:240px; margin: auto;"">
                                <img src=""images/gray_29.png"" style= ""width:200px""alt=""img"">
                            </div>
                        </div>","115","","0","images/gray_29.png","","","","playful"
"","","","","","html-slider-response","23","265356","0.0-19.0","gvzxzfoeks","NaN","<div style=""width:500px;"">
                            <p style=""font-size:50px; font-weight:bold;""
                            >playful</p>
                            <div style=""width:240px; margin: auto;"">
                                <img src=""images/gray_26.png"" style= ""width:200px""alt=""img"">
                            </div>
                        </div>","85","","0","images/gray_26.png","","","","playful"
"","","","","","html-slider-response","24","269012","0.0-20.0","gvzxzfoeks","NaN","<div style=""width:500px;"">
                            <p style=""font-size:50px; font-weight:bold;""
                            >playful</p>
                            <div style=""width:240px; margin: auto;"">
                                <img src=""images/gray_41.png"" style= ""width:200px""alt=""img"">
                            </div>
                        </div>","-35","","0","images/gray_41.png","","","","playful"
"","","","","","html-slider-response","25","271378","0.0-21.0","gvzxzfoeks","NaN","<div style=""width:500px;"">
                            <p style=""font-size:50px; font-weight:bold;""
                            >playful</p>
                            <div style=""width:240px; margin: auto;"">
                                <img src=""images/gray_03.png"" style= ""width:200px""alt=""img"">
                            </div>
                        </div>","152","","0","images/gray_03.png","","","","playful"
"","","","","","html-slider-response","26","276613","0.0-22.0","gvzxzfoeks","NaN","<div style=""width:500px;"">
                            <p style=""font-size:50px; font-weight:bold;""
                            >playful</p>
                            <div style=""width:240px; margin: auto;"">
                                <img src=""images/gray_39.png"" style= ""width:200px""alt=""img"">
                            </div>
                        </div>","159","","0","images/gray_39.png","","","","playful"
"","","","","","html-slider-response","27","279364","0.0-23.0","gvzxzfoeks","NaN","<div style=""width:500px;"">
                            <p style=""font-size:50px; font-weight:bold;""
                            >playful</p>
                            <div style=""width:240px; margin: auto;"">
                                <img src=""images/gray_34.png"" style= ""width:200px""alt=""img"">
                            </div>
                        </div>","183","","0","images/gray_34.png","","","","playful"
"","","","","","html-slider-response","28","282425","0.0-24.0","gvzxzfoeks","NaN","<div style=""width:500px;"">
                            <p style=""font-size:50px; font-weight:bold;""
                            >playful</p>
                            <div style=""width:240px; margin: auto;"">
                                <img src=""images/gray_05.png"" style= ""width:200px""alt=""img"">
                            </div>
                        </div>","98","","0","images/gray_05.png","","","","playful"
"","","","","","html-slider-response","29","286215","0.0-25.0","gvzxzfoeks","NaN","<div style=""width:500px;"">
                            <p style=""font-size:50px; font-weight:bold;""
                            >playful</p>
                            <div style=""width:240px; margin: auto;"">
                                <img src=""images/gray_27.png"" style= ""width:200px""alt=""img"">
                            </div>
                        </div>","-147","","0","images/gray_27.png","","","","playful"
"","","","","","html-slider-response","30","288541","0.0-26.0","gvzxzfoeks","NaN","<div style=""width:500px;"">
                            <p style=""font-size:50px; font-weight:bold;""
                            >playful</p>
                            <div style=""width:240px; margin: auto;"">
                                <img src=""images/gray_28.png"" style= ""width:200px""alt=""img"">
                            </div>
                        </div>","30","","0","images/gray_28.png","","","","playful"
"","","","","","html-slider-response","31","290774","0.0-27.0","gvzxzfoeks","NaN","<div style=""width:500px;"">
                            <p style=""font-size:50px; font-weight:bold;""
                            >playful</p>
                            <div style=""width:240px; margin: auto;"">
                                <img src=""images/gray_20.png"" style= ""width:200px""alt=""img"">
                            </div>
                        </div>","95","","0","images/gray_20.png","","","","playful"
"","","","","","html-slider-response","32","293000","0.0-28.0","gvzxzfoeks","NaN","<div style=""width:500px;"">
                            <p style=""font-size:50px; font-weight:bold;""
                            >playful</p>
                            <div style=""width:240px; margin: auto;"">
                                <img src=""images/gray_30.png"" style= ""width:200px""alt=""img"">
                            </div>
                        </div>","-79","","0","images/gray_30.png","","","","playful"
"","","","","","html-slider-response","33","296059","0.0-29.0","gvzxzfoeks","NaN","<div style=""width:500px;"">
                            <p style=""font-size:50px; font-weight:bold;""
                            >playful</p>
                            <div style=""width:240px; margin: auto;"">
                                <img src=""images/gray_32.png"" style= ""width:200px""alt=""img"">
                            </div>
                        </div>","-108","","0","images/gray_32.png","","","","playful"
"","","","","","html-slider-response","34","299472","0.0-30.0","gvzxzfoeks","NaN","<div style=""width:500px;"">
                            <p style=""font-size:50px; font-weight:bold;""
                            >playful</p>
                            <div style=""width:240px; margin: auto;"">
                                <img src=""images/gray_21.png"" style= ""width:200px""alt=""img"">
                            </div>
                        </div>","177","","0","images/gray_21.png","","","","playful"
"","","","","","html-slider-response","35","305026","0.0-31.0","gvzxzfoeks","NaN","<div style=""width:500px;"">
                            <p style=""font-size:50px; font-weight:bold;""
                            >playful</p>
                            <div style=""width:240px; margin: auto;"">
                                <img src=""images/gray_10.png"" style= ""width:200px""alt=""img"">
                            </div>
                        </div>","154","","0","images/gray_10.png","","","","playful"
"","","","","","html-slider-response","36","310912","0.0-32.0","gvzxzfoeks","NaN","<div style=""width:500px;"">
                            <p style=""font-size:50px; font-weight:bold;""
                            >playful</p>
                            <div style=""width:240px; margin: auto;"">
                                <img src=""images/gray_22.png"" style= ""width:200px""alt=""img"">
                            </div>
                        </div>","-70","","0","images/gray_22.png","","","","playful"
"","","","","","html-slider-response","37","315183","0.0-33.0","gvzxzfoeks","NaN","<div style=""width:500px;"">
                            <p style=""font-size:50px; font-weight:bold;""
                            >playful</p>
                            <div style=""width:240px; margin: auto;"">
                                <img src=""images/gray_18.png"" style= ""width:200px""alt=""img"">
                            </div>
                        </div>","43","","0","images/gray_18.png","","","","playful"
"","","","","","html-slider-response","38","319706","0.0-34.0","gvzxzfoeks","NaN","<div style=""width:500px;"">
                            <p style=""font-size:50px; font-weight:bold;""
                            >playful</p>
                            <div style=""width:240px; margin: auto;"">
                                <img src=""images/gray_33.png"" style= ""width:200px""alt=""img"">
                            </div>
                        </div>","-134","","0","images/gray_33.png","","","","playful"
"","","","","","html-slider-response","39","322777","0.0-35.0","gvzxzfoeks","NaN","<div style=""width:500px;"">
                            <p style=""font-size:50px; font-weight:bold;""
                            >playful</p>
                            <div style=""width:240px; margin: auto;"">
                                <img src=""images/gray_07.png"" style= ""width:200px""alt=""img"">
                            </div>
                        </div>","-175","","0","images/gray_07.png","","","","playful"
"","","","","","html-slider-response","40","327014","0.0-36.0","gvzxzfoeks","NaN","<div style=""width:500px;"">
                            <p style=""font-size:50px; font-weight:bold;""
                            >playful</p>
                            <div style=""width:240px; margin: auto;"">
                                <img src=""images/gray_09.png"" style= ""width:200px""alt=""img"">
                            </div>
                        </div>","-110","","0","images/gray_09.png","","","","playful"
"","","","","","html-slider-response","41","329958","0.0-37.0","gvzxzfoeks","NaN","<div style=""width:500px;"">
                            <p style=""font-size:50px; font-weight:bold;""
                            >playful</p>
                            <div style=""width:240px; margin: auto;"">
                                <img src=""images/gray_12.png"" style= ""width:200px""alt=""img"">
                            </div>
                        </div>","-178","","0","images/gray_12.png","","","","playful"
"","","","","","html-slider-response","42","331872","0.0-38.0","gvzxzfoeks","NaN","<div style=""width:500px;"">
                            <p style=""font-size:50px; font-weight:bold;""
                            >playful</p>
                            <div style=""width:240px; margin: auto;"">
                                <img src=""images/gray_15.png"" style= ""width:200px""alt=""img"">
                            </div>
                        </div>","-99","","0","images/gray_15.png","","","","playful"
"","","","","","html-slider-response","43","334368","0.0-39.0","gvzxzfoeks","NaN","<div style=""width:500px;"">
                            <p style=""font-size:50px; font-weight:bold;""
                            >playful</p>
                            <div style=""width:240px; margin: auto;"">
                                <img src=""images/gray_37.png"" style= ""width:200px""alt=""img"">
                            </div>
                        </div>","-146","","0","images/gray_37.png","","","","playful"
"","","","","","html-slider-response","44","340870","0.0-40.0","gvzxzfoeks","NaN","<div style=""width:500px;"">
                            <p style=""font-size:50px; font-weight:bold;""
                            >playful</p>
                            <div style=""width:240px; margin: auto;"">
                                <img src=""images/gray_43.png"" style= ""width:200px""alt=""img"">
                            </div>
                        </div>","-146","","0","images/gray_43.png","","","","playful"
"","","","","","html-slider-response","45","344978","0.0-41.0","gvzxzfoeks","NaN","<div style=""width:500px;"">
                            <p style=""font-size:50px; font-weight:bold;""
                            >playful</p>
                            <div style=""width:240px; margin: auto;"">
                                <img src=""images/gray_04.png"" style= ""width:200px""alt=""img"">
                            </div>
                        </div>","-134","","0","images/gray_04.png","","","","playful"
"","","","","","html-slider-response","46","347446","0.0-42.0","gvzxzfoeks","NaN","<div style=""width:500px;"">
                            <p style=""font-size:50px; font-weight:bold;""
                            >playful</p>
                            <div style=""width:240px; margin: auto;"">
                                <img src=""images/gray_11.png"" style= ""width:200px""alt=""img"">
                            </div>
                        </div>","-123","","0","images/gray_11.png","","","","playful"
"","","","","","html-slider-response","47","351193","0.0-43.0","gvzxzfoeks","NaN","<div style=""width:500px;"">
                            <p style=""font-size:50px; font-weight:bold;""
                            >playful</p>
                            <div style=""width:240px; margin: auto;"">
                                <img src=""images/gray_35.png"" style= ""width:200px""alt=""img"">
                            </div>
                        </div>","-131","","0","images/gray_35.png","","","","playful"
"","","","","","html-slider-response","48","355756","0.0-44.0","gvzxzfoeks","NaN","<div style=""width:500px;"">
                            <p style=""font-size:50px; font-weight:bold;""
                            >playful</p>
                            <div style=""width:240px; margin: auto;"">
                                <img src=""images/gray_01.png"" style= ""width:200px""alt=""img"">
                            </div>
                        </div>","-99","","0","images/gray_01.png","","","","playful"
"","","","","","html-slider-response","49","360946","0.0-45.0","gvzxzfoeks","NaN","<div style=""width:500px;"">
                            <p style=""font-size:50px; font-weight:bold;""
                            >playful</p>
                            <div style=""width:240px; margin: auto;"">
                                <img src=""images/gray_13.png"" style= ""width:200px""alt=""img"">
                            </div>
                        </div>","-186","","0","images/gray_13.png","","","","playful"
"","","","","","html-slider-response","50","364395","0.0-46.0","gvzxzfoeks","NaN","<div style=""width:500px;"">
                            <p style=""font-size:50px; font-weight:bold;""
                            >playful</p>
                            <div style=""width:240px; margin: auto;"">
                                <img src=""images/gray_38.png"" style= ""width:200px""alt=""img"">
                            </div>
                        </div>","-102","","0","images/gray_38.png","","","","playful"
"","","","","","html-slider-response","51","374062","0.0-47.0","gvzxzfoeks","NaN","<div style=""width:500px;"">
                            <p style=""font-size:50px; font-weight:bold;""
                            >playful</p>
                            <div style=""width:240px; margin: auto;"">
                                <img src=""images/gray_31.png"" style= ""width:200px""alt=""img"">
                            </div>
                        </div>","70","","0","images/gray_31.png","","","","playful"
"","","","","","html-slider-response","52","395192","0.0-48.0","gvzxzfoeks","NaN","<div style=""width:500px;"">
                            <p style=""font-size:50px; font-weight:bold;""
                            >playful</p>
                            <div style=""width:240px; margin: auto;"">
                                <img src=""images/gray_40.png"" style= ""width:200px""alt=""img"">
                            </div>
                        </div>","26","","0","images/gray_40.png","","","","playful"
"","","","","","html-slider-response","53","398408","0.0-49.0","gvzxzfoeks","NaN","<div style=""width:500px;"">
                            <p style=""font-size:50px; font-weight:bold;""
                            >playful</p>
                            <div style=""width:240px; margin: auto;"">
                                <img src=""images/gray_24.png"" style= ""width:200px""alt=""img"">
                            </div>
                        </div>","-46","","0","images/gray_24.png","","","","playful"
"","","","","","html-slider-response","54","423510","0.0-50.0","gvzxzfoeks","NaN","<div style=""width:500px;"">
                            <p style=""font-size:50px; font-weight:bold;""
                            >playful</p>
                            <div style=""width:240px; margin: auto;"">
                                <img src=""images/gray_08.png"" style= ""width:200px""alt=""img"">
                            </div>
                        </div>","-140","","0","images/gray_08.png","","","","playful"
"","","","","","html-slider-response","55","430896","0.0-51.0","gvzxzfoeks","NaN","<div style=""width:500px;"">
                            <p style=""font-size:50px; font-weight:bold;""
                            >playful</p>
                            <div style=""width:240px; margin: auto;"">
                                <img src=""images/gray_44.png"" style= ""width:200px""alt=""img"">
                            </div>
                        </div>","-187","","0","images/gray_44.png","","","","playful"
"","","","","","html-slider-response","56","438726","0.0-52.0","gvzxzfoeks","NaN","<div style=""width:500px;"">
                            <p style=""font-size:50px; font-weight:bold;""
                            >playful</p>
                            <div style=""width:240px; margin: auto;"">
                                <img src=""images/gray_02.png"" style= ""width:200px""alt=""img"">
                            </div>
                        </div>","-169","","0","images/gray_02.png","","","","playful"
"","","","","","html-slider-response","57","441446","0.0-53.0","gvzxzfoeks","NaN","<div style=""width:500px;"">
                            <p style=""font-size:50px; font-weight:bold;""
                            >playful</p>
                            <div style=""width:240px; margin: auto;"">
                                <img src=""images/gray_25.png"" style= ""width:200px""alt=""img"">
                            </div>
                        </div>","-111","","0","images/gray_25.png","","","","playful"
"","","","","","html-slider-response","58","443228","0.0-54.0","gvzxzfoeks","NaN","<div style=""width:500px;"">
                            <p style=""font-size:50px; font-weight:bold;""
                            >playful</p>
                            <div style=""width:240px; margin: auto;"">
                                <img src=""images/gray_14.png"" style= ""width:200px""alt=""img"">
                            </div>
                        </div>","-72","","0","images/gray_14.png","","","","playful"
"","","","","","html-slider-response","59","445029","0.0-55.0","gvzxzfoeks","NaN","<div style=""width:500px;"">
                            <p style=""font-size:50px; font-weight:bold;""
                            >playful</p>
                            <div style=""width:240px; margin: auto;"">
                                <img src=""images/gray_16.png"" style= ""width:200px""alt=""img"">
                            </div>
                        </div>","-130","","0","images/gray_16.png","","","","playful"
"","","","","","html-slider-response","60","446777","0.0-56.0","gvzxzfoeks","NaN","<div style=""width:500px;"">
                            <p style=""font-size:50px; font-weight:bold;""
                            >playful</p>
                            <div style=""width:240px; margin: auto;"">
                                <img src=""images/gray_17.png"" style= ""width:200px""alt=""img"">
                            </div>
                        </div>","-113","","0","images/gray_17.png","","","","playful"
"","","","","","html-slider-response","61","448533","0.0-57.0","gvzxzfoeks","NaN","<div style=""width:500px;"">
                            <p style=""font-size:50px; font-weight:bold;""
                            >playful</p>
                            <div style=""width:240px; margin: auto;"">
                                <img src=""images/gray_23.png"" style= ""width:200px""alt=""img"">
                            </div>
                        </div>","-68","","0","images/gray_23.png","","","","playful"
"","","","","","html-button-response","62","454115","0.0-58.0","gvzxzfoeks","5080","<p>Great Job! You've finished block 1.<br></br> You have 7 block(s) left to go.<br></br></p>","0","","","","","","",""
"","","","","","html-button-response","63","455039","0.0-59.0","gvzxzfoeks","922","<p>In this block of trials, you will be asked to rate how much you associate each map with:</p > <p style = 'font-size:150%; font-weight: bold'>calm</p><br></br>","0","","","","","","",""
"","","","","","html-slider-response","64","458255","0.0-60.0","gvzxzfoeks","NaN","<div style=""width:500px;"">
                            <p style=""font-size:50px; font-weight:bold;""
                            >calm</p>
                            <div style=""width:240px; margin: auto;"">
                                <img src=""images/gray_40.png"" style= ""width:200px""alt=""img"">
                            </div>
                        </div>","12","","0","images/gray_40.png","","","","calm"
"","","","","","html-slider-response","65","460091","0.0-61.0","gvzxzfoeks","NaN","<div style=""width:500px;"">
                            <p style=""font-size:50px; font-weight:bold;""
                            >calm</p>
                            <div style=""width:240px; margin: auto;"">
                                <img src=""images/gray_06.png"" style= ""width:200px""alt=""img"">
                            </div>
                        </div>","35","","0","images/gray_06.png","","","","calm"
"","","","","","html-slider-response","66","461850","0.0-62.0","gvzxzfoeks","NaN","<div style=""width:500px;"">
                            <p style=""font-size:50px; font-weight:bold;""
                            >calm</p>
                            <div style=""width:240px; margin: auto;"">
                                <img src=""images/gray_25.png"" style= ""width:200px""alt=""img"">
                            </div>
                        </div>","-41","","0","images/gray_25.png","","","","calm"
"","","","","","html-slider-response","67","464562","0.0-63.0","gvzxzfoeks","NaN","<div style=""width:500px;"">
                            <p style=""font-size:50px; font-weight:bold;""
                            >calm</p>
                            <div style=""width:240px; margin: auto;"">
                                <img src=""images/gray_21.png"" style= ""width:200px""alt=""img"">
                            </div>
                        </div>","200","","0","images/gray_21.png","","","","calm"
"","","","","","html-slider-response","68","480126","0.0-64.0","gvzxzfoeks","NaN","<div style=""width:500px;"">
                            <p style=""font-size:50px; font-weight:bold;""
                            >calm</p>
                            <div style=""width:240px; margin: auto;"">
                                <img src=""images/gray_05.png"" style= ""width:200px""alt=""img"">
                            </div>
                        </div>","-103","","0","images/gray_05.png","","","","calm"
"","","","","","html-slider-response","69","482490","0.0-65.0","gvzxzfoeks","NaN","<div style=""width:500px;"">
                            <p style=""font-size:50px; font-weight:bold;""
                            >calm</p>
                            <div style=""width:240px; margin: auto;"">
                                <img src=""images/gray_37.png"" style= ""width:200px""alt=""img"">
                            </div>
                        </div>","-142","","0","images/gray_37.png","","","","calm"
"","","","","","html-slider-response","70","484466","0.0-66.0","gvzxzfoeks","NaN","<div style=""width:500px;"">
                            <p style=""font-size:50px; font-weight:bold;""
                            >calm</p>
                            <div style=""width:240px; margin: auto;"">
                                <img src=""images/gray_36.png"" style= ""width:200px""alt=""img"">
                            </div>
                        </div>","-158","","0","images/gray_36.png","","","","calm"
"","","","","","html-slider-response","71","488187","0.0-67.0","gvzxzfoeks","NaN","<div style=""width:500px;"">
                            <p style=""font-size:50px; font-weight:bold;""
                            >calm</p>
                            <div style=""width:240px; margin: auto;"">
                                <img src=""images/gray_12.png"" style= ""width:200px""alt=""img"">
                            </div>
                        </div>","2","","0","images/gray_12.png","","","","calm"
"","","","","","html-slider-response","72","491680","0.0-68.0","gvzxzfoeks","NaN","<div style=""width:500px;"">
                            <p style=""font-size:50px; font-weight:bold;""
                            >calm</p>
                            <div style=""width:240px; margin: auto;"">
                                <img src=""images/gray_32.png"" style= ""width:200px""alt=""img"">
                            </div>
                        </div>","-108","","0","images/gray_32.png","","","","calm"
"","","","","","html-slider-response","73","493800","0.0-69.0","gvzxzfoeks","NaN","<div style=""width:500px;"">
                            <p style=""font-size:50px; font-weight:bold;""
                            >calm</p>
                            <div style=""width:240px; margin: auto;"">
                                <img src=""images/gray_03.png"" style= ""width:200px""alt=""img"">
                            </div>
                        </div>","-88","","0","images/gray_03.png","","","","calm"
"","","","","","html-slider-response","74","495842","0.0-70.0","gvzxzfoeks","NaN","<div style=""width:500px;"">
                            <p style=""font-size:50px; font-weight:bold;""
                            >calm</p>
                            <div style=""width:240px; margin: auto;"">
                                <img src=""images/gray_19.png"" style= ""width:200px""alt=""img"">
                            </div>
                        </div>","105","","0","images/gray_19.png","","","","calm"
"","","","","","html-slider-response","75","497666","0.0-71.0","gvzxzfoeks","NaN","<div style=""width:500px;"">
                            <p style=""font-size:50px; font-weight:bold;""
                            >calm</p>
                            <div style=""width:240px; margin: auto;"">
                                <img src=""images/gray_24.png"" style= ""width:200px""alt=""img"">
                            </div>
                        </div>","85","","0","images/gray_24.png","","","","calm"
"","","","","","html-slider-response","76","500051","0.0-72.0","gvzxzfoeks","NaN","<div style=""width:500px;"">
                            <p style=""font-size:50px; font-weight:bold;""
                            >calm</p>
                            <div style=""width:240px; margin: auto;"">
                                <img src=""images/gray_23.png"" style= ""width:200px""alt=""img"">
                            </div>
                        </div>","-134","","0","images/gray_23.png","","","","calm"
"","","","","","html-slider-response","77","502407","0.0-73.0","gvzxzfoeks","NaN","<div style=""width:500px;"">
                            <p style=""font-size:50px; font-weight:bold;""
                            >calm</p>
                            <div style=""width:240px; margin: auto;"">
                                <img src=""images/gray_28.png"" style= ""width:200px""alt=""img"">
                            </div>
                        </div>","-121","","0","images/gray_28.png","","","","calm"
"","","","","","html-slider-response","78","507895","0.0-74.0","gvzxzfoeks","NaN","<div style=""width:500px;"">
                            <p style=""font-size:50px; font-weight:bold;""
                            >calm</p>
                            <div style=""width:240px; margin: auto;"">
                                <img src=""images/gray_27.png"" style= ""width:200px""alt=""img"">
                            </div>
                        </div>","-55","","0","images/gray_27.png","","","","calm"
"","","","","","html-slider-response","79","510101","0.0-75.0","gvzxzfoeks","NaN","<div style=""width:500px;"">
                            <p style=""font-size:50px; font-weight:bold;""
                            >calm</p>
                            <div style=""width:240px; margin: auto;"">
                                <img src=""images/gray_20.png"" style= ""width:200px""alt=""img"">
                            </div>
                        </div>","114","","0","images/gray_20.png","","","","calm"
"","","","","","html-slider-response","80","514730","0.0-76.0","gvzxzfoeks","NaN","<div style=""width:500px;"">
                            <p style=""font-size:50px; font-weight:bold;""
                            >calm</p>
                            <div style=""width:240px; margin: auto;"">
                                <img src=""images/gray_42.png"" style= ""width:200px""alt=""img"">
                            </div>
                        </div>","-110","","0","images/gray_42.png","","","","calm"
"","","","","","html-slider-response","81","516596","0.0-77.0","gvzxzfoeks","NaN","<div style=""width:500px;"">
                            <p style=""font-size:50px; font-weight:bold;""
                            >calm</p>
                            <div style=""width:240px; margin: auto;"">
                                <img src=""images/gray_33.png"" style= ""width:200px""alt=""img"">
                            </div>
                        </div>","-146","","0","images/gray_33.png","","","","calm"
"","","","","","html-slider-response","82","518304","0.0-78.0","gvzxzfoeks","NaN","<div style=""width:500px;"">
                            <p style=""font-size:50px; font-weight:bold;""
                            >calm</p>
                            <div style=""width:240px; margin: auto;"">
                                <img src=""images/gray_13.png"" style= ""width:200px""alt=""img"">
                            </div>
                        </div>","-200","","0","images/gray_13.png","","","","calm"
"","","","","","html-slider-response","83","519965","0.0-79.0","gvzxzfoeks","NaN","<div style=""width:500px;"">
                            <p style=""font-size:50px; font-weight:bold;""
                            >calm</p>
                            <div style=""width:240px; margin: auto;"">
                                <img src=""images/gray_26.png"" style= ""width:200px""alt=""img"">
                            </div>
                        </div>","-150","","0","images/gray_26.png","","","","calm"
"","","","","","html-slider-response","84","522774","0.0-80.0","gvzxzfoeks","NaN","<div style=""width:500px;"">
                            <p style=""font-size:50px; font-weight:bold;""
                            >calm</p>
                            <div style=""width:240px; margin: auto;"">
                                <img src=""images/gray_31.png"" style= ""width:200px""alt=""img"">
                            </div>
                        </div>","200","","0","images/gray_31.png","","","","calm"
"","","","","","html-slider-response","85","524760","0.0-81.0","gvzxzfoeks","NaN","<div style=""width:500px;"">
                            <p style=""font-size:50px; font-weight:bold;""
                            >calm</p>
                            <div style=""width:240px; margin: auto;"">
                                <img src=""images/gray_08.png"" style= ""width:200px""alt=""img"">
                            </div>
                        </div>","-134","","0","images/gray_08.png","","","","calm"
"","","","","","html-slider-response","86","528011","0.0-82.0","gvzxzfoeks","NaN","<div style=""width:500px;"">
                            <p style=""font-size:50px; font-weight:bold;""
                            >calm</p>
                            <div style=""width:240px; margin: auto;"">
                                <img src=""images/gray_39.png"" style= ""width:200px""alt=""img"">
                            </div>
                        </div>","52","","0","images/gray_39.png","","","","calm"
"","","","","","html-slider-response","87","530798","0.0-83.0","gvzxzfoeks","NaN","<div style=""width:500px;"">
                            <p style=""font-size:50px; font-weight:bold;""
                            >calm</p>
                            <div style=""width:240px; margin: auto;"">
                                <img src=""images/gray_16.png"" style= ""width:200px""alt=""img"">
                            </div>
                        </div>","149","","0","images/gray_16.png","","","","calm"
"","","","","","html-slider-response","88","533478","0.0-84.0","gvzxzfoeks","NaN","<div style=""width:500px;"">
                            <p style=""font-size:50px; font-weight:bold;""
                            >calm</p>
                            <div style=""width:240px; margin: auto;"">
                                <img src=""images/gray_34.png"" style= ""width:200px""alt=""img"">
                            </div>
                        </div>","113","","0","images/gray_34.png","","","","calm"
"","","","","","html-slider-response","89","535415","0.0-85.0","gvzxzfoeks","NaN","<div style=""width:500px;"">
                            <p style=""font-size:50px; font-weight:bold;""
                            >calm</p>
                            <div style=""width:240px; margin: auto;"">
                                <img src=""images/gray_29.png"" style= ""width:200px""alt=""img"">
                            </div>
                        </div>","200","","0","images/gray_29.png","","","","calm"
"","","","","","html-slider-response","90","537276","0.0-86.0","gvzxzfoeks","NaN","<div style=""width:500px;"">
                            <p style=""font-size:50px; font-weight:bold;""
                            >calm</p>
                            <div style=""width:240px; margin: auto;"">
                                <img src=""images/gray_22.png"" style= ""width:200px""alt=""img"">
                            </div>
                        </div>","65","","0","images/gray_22.png","","","","calm"
"","","","","","html-slider-response","91","539293","0.0-87.0","gvzxzfoeks","NaN","<div style=""width:500px;"">
                            <p style=""font-size:50px; font-weight:bold;""
                            >calm</p>
                            <div style=""width:240px; margin: auto;"">
                                <img src=""images/gray_10.png"" style= ""width:200px""alt=""img"">
                            </div>
                        </div>","27","","0","images/gray_10.png","","","","calm"
"","","","","","html-slider-response","92","542211","0.0-88.0","gvzxzfoeks","NaN","<div style=""width:500px;"">
                            <p style=""font-size:50px; font-weight:bold;""
                            >calm</p>
                            <div style=""width:240px; margin: auto;"">
                                <img src=""images/gray_43.png"" style= ""width:200px""alt=""img"">
                            </div>
                        </div>","94","","0","images/gray_43.png","","","","calm"
"","","","","","html-slider-response","93","545034","0.0-89.0","gvzxzfoeks","NaN","<div style=""width:500px;"">
                            <p style=""font-size:50px; font-weight:bold;""
                            >calm</p>
                            <div style=""width:240px; margin: auto;"">
                                <img src=""images/gray_07.png"" style= ""width:200px""alt=""img"">
                            </div>
                        </div>","200","","0","images/gray_07.png","","","","calm"
"","","","","","html-slider-response","94","547936","0.0-90.0","gvzxzfoeks","NaN","<div style=""width:500px;"">
                            <p style=""font-size:50px; font-weight:bold;""
                            >calm</p>
                            <div style=""width:240px; margin: auto;"">
                                <img src=""images/gray_09.png"" style= ""width:200px""alt=""img"">
                            </div>
                        </div>","166","","0","images/gray_09.png","","","","calm"
"","","","","","html-slider-response","95","549566","0.0-91.0","gvzxzfoeks","NaN","<div style=""width:500px;"">
                            <p style=""font-size:50px; font-weight:bold;""
                            >calm</p>
                            <div style=""width:240px; margin: auto;"">
                                <img src=""images/gray_44.png"" style= ""width:200px""alt=""img"">
                            </div>
                        </div>","-121","","0","images/gray_44.png","","","","calm"
"","","","","","html-slider-response","96","551491","0.0-92.0","gvzxzfoeks","NaN","<div style=""width:500px;"">
                            <p style=""font-size:50px; font-weight:bold;""
                            >calm</p>
                            <div style=""width:240px; margin: auto;"">
                                <img src=""images/gray_11.png"" style= ""width:200px""alt=""img"">
                            </div>
                        </div>","-170","","0","images/gray_11.png","","","","calm"
"","","","","","html-slider-response","97","553207","0.0-93.0","gvzxzfoeks","NaN","<div style=""width:500px;"">
                            <p style=""font-size:50px; font-weight:bold;""
                            >calm</p>
                            <div style=""width:240px; margin: auto;"">
                                <img src=""images/gray_04.png"" style= ""width:200px""alt=""img"">
                            </div>
                        </div>","-128","","0","images/gray_04.png","","","","calm"
"","","","","","html-slider-response","98","555388","0.0-94.0","gvzxzfoeks","NaN","<div style=""width:500px;"">
                            <p style=""font-size:50px; font-weight:bold;""
                            >calm</p>
                            <div style=""width:240px; margin: auto;"">
                                <img src=""images/gray_30.png"" style= ""width:200px""alt=""img"">
                            </div>
                        </div>","-200","","0","images/gray_30.png","","","","calm"
"","","","","","html-slider-response","99","566854","0.0-95.0","gvzxzfoeks","NaN","<div style=""width:500px;"">
                            <p style=""font-size:50px; font-weight:bold;""
                            >calm</p>
                            <div style=""width:240px; margin: auto;"">
                                <img src=""images/gray_15.png"" style= ""width:200px""alt=""img"">
                            </div>
                        </div>","200","","0","images/gray_15.png","","","","calm"
"","","","","","html-slider-response","100","569230","0.0-96.0","gvzxzfoeks","NaN","<div style=""width:500px;"">
                            <p style=""font-size:50px; font-weight:bold;""
                            >calm</p>
                            <div style=""width:240px; margin: auto;"">
                                <img src=""images/gray_17.png"" style= ""width:200px""alt=""img"">
                            </div>
                        </div>","-126","","0","images/gray_17.png","","","","calm"
"","","","","","html-slider-response","101","577572","0.0-97.0","gvzxzfoeks","NaN","<div style=""width:500px;"">
                            <p style=""font-size:50px; font-weight:bold;""
                            >calm</p>
                            <div style=""width:240px; margin: auto;"">
                                <img src=""images/gray_02.png"" style= ""width:200px""alt=""img"">
                            </div>
                        </div>","-150","","0","images/gray_02.png","","","","calm"
"","","","","","html-slider-response","102","581366","0.0-98.0","gvzxzfoeks","NaN","<div style=""width:500px;"">
                            <p style=""font-size:50px; font-weight:bold;""
                            >calm</p>
                            <div style=""width:240px; margin: auto;"">
                                <img src=""images/gray_01.png"" style= ""width:200px""alt=""img"">
                            </div>
                        </div>","-200","","0","images/gray_01.png","","","","calm"
"","","","","","html-slider-response","103","584111","0.0-99.0","gvzxzfoeks","NaN","<div style=""width:500px;"">
                            <p style=""font-size:50px; font-weight:bold;""
                            >calm</p>
                            <div style=""width:240px; margin: auto;"">
                                <img src=""images/gray_38.png"" style= ""width:200px""alt=""img"">
                            </div>
                        </div>","170","","0","images/gray_38.png","","","","calm"
"","","","","","html-slider-response","104","586081","0.0-100.0","gvzxzfoeks","NaN","<div style=""width:500px;"">
                            <p style=""font-size:50px; font-weight:bold;""
                            >calm</p>
                            <div style=""width:240px; margin: auto;"">
                                <img src=""images/gray_14.png"" style= ""width:200px""alt=""img"">
                            </div>
                        </div>","-129","","0","images/gray_14.png","","","","calm"
"","","","","","html-slider-response","105","587939","0.0-101.0","gvzxzfoeks","NaN","<div style=""width:500px;"">
                            <p style=""font-size:50px; font-weight:bold;""
                            >calm</p>
                            <div style=""width:240px; margin: auto;"">
                                <img src=""images/gray_35.png"" style= ""width:200px""alt=""img"">
                            </div>
                        </div>","-173","","0","images/gray_35.png","","","","calm"
"","","","","","html-slider-response","106","590321","0.0-102.0","gvzxzfoeks","NaN","<div style=""width:500px;"">
                            <p style=""font-size:50px; font-weight:bold;""
                            >calm</p>
                            <div style=""width:240px; margin: auto;"">
                                <img src=""images/gray_18.png"" style= ""width:200px""alt=""img"">
                            </div>
                        </div>","33","","0","images/gray_18.png","","","","calm"
"","","","","","html-slider-response","107","592233","0.0-103.0","gvzxzfoeks","NaN","<div style=""width:500px;"">
                            <p style=""font-size:50px; font-weight:bold;""
                            >calm</p>
                            <div style=""width:240px; margin: auto;"">
                                <img src=""images/gray_41.png"" style= ""width:200px""alt=""img"">
                            </div>
                        </div>","-126","","0","images/gray_41.png","","","","calm"
"","","","","","html-button-response","108","593530","0.0-104.0","gvzxzfoeks","795","<p>Great Job! You've finished block 2.<br></br> You have 6 block(s) left to go.<br></br></p>","0","","","","","","",""
"","","","","","html-button-response","109","594257","0.0-105.0","gvzxzfoeks","726","<p>In this block of trials, you will be asked to rate how much you associate each map with:</p > <p style = 'font-size:150%; font-weight: bold'>exciting</p><br></br>","0","","","","","","",""
"","","","","","html-slider-response","110","596151","0.0-106.0","gvzxzfoeks","NaN","<div style=""width:500px;"">
                            <p style=""font-size:50px; font-weight:bold;""
                            >exciting</p>
                            <div style=""width:240px; margin: auto;"">
                                <img src=""images/gray_43.png"" style= ""width:200px""alt=""img"">
                            </div>
                        </div>","66","","0","images/gray_43.png","","","","exciting"
"","","","","","html-slider-response","111","597962","0.0-107.0","gvzxzfoeks","NaN","<div style=""width:500px;"">
                            <p style=""font-size:50px; font-weight:bold;""
                            >exciting</p>
                            <div style=""width:240px; margin: auto;"">
                                <img src=""images/gray_13.png"" style= ""width:200px""alt=""img"">
                            </div>
                        </div>","-89","","0","images/gray_13.png","","","","exciting"
"","","","","","html-slider-response","112","599490","0.0-108.0","gvzxzfoeks","NaN","<div style=""width:500px;"">
                            <p style=""font-size:50px; font-weight:bold;""
                            >exciting</p>
                            <div style=""width:240px; margin: auto;"">
                                <img src=""images/gray_16.png"" style= ""width:200px""alt=""img"">
                            </div>
                        </div>","-84","","0","images/gray_16.png","","","","exciting"
"","","","","","html-slider-response","113","601648","0.0-109.0","gvzxzfoeks","NaN","<div style=""width:500px;"">
                            <p style=""font-size:50px; font-weight:bold;""
                            >exciting</p>
                            <div style=""width:240px; margin: auto;"">
                                <img src=""images/gray_12.png"" style= ""width:200px""alt=""img"">
                            </div>
                        </div>","158","","0","images/gray_12.png","","","","exciting"
"","","","","","html-slider-response","114","603492","0.0-110.0","gvzxzfoeks","NaN","<div style=""width:500px;"">
                            <p style=""font-size:50px; font-weight:bold;""
                            >exciting</p>
                            <div style=""width:240px; margin: auto;"">
                                <img src=""images/gray_44.png"" style= ""width:200px""alt=""img"">
                            </div>
                        </div>","179","","0","images/gray_44.png","","","","exciting"
"","","","","","html-slider-response","115","605156","0.0-111.0","gvzxzfoeks","NaN","<div style=""width:500px;"">
                            <p style=""font-size:50px; font-weight:bold;""
                            >exciting</p>
                            <div style=""width:240px; margin: auto;"">
                                <img src=""images/gray_15.png"" style= ""width:200px""alt=""img"">
                            </div>
                        </div>","139","","0","images/gray_15.png","","","","exciting"
"","","","","","html-slider-response","116","610199","0.0-112.0","gvzxzfoeks","NaN","<div style=""width:500px;"">
                            <p style=""font-size:50px; font-weight:bold;""
                            >exciting</p>
                            <div style=""width:240px; margin: auto;"">
                                <img src=""images/gray_29.png"" style= ""width:200px""alt=""img"">
                            </div>
                        </div>","-177","","0","images/gray_29.png","","","","exciting"
"","","","","","html-slider-response","117","613181","0.0-113.0","gvzxzfoeks","NaN","<div style=""width:500px;"">
                            <p style=""font-size:50px; font-weight:bold;""
                            >exciting</p>
                            <div style=""width:240px; margin: auto;"">
                                <img src=""images/gray_07.png"" style= ""width:200px""alt=""img"">
                            </div>
                        </div>","48","","0","images/gray_07.png","","","","exciting"
"","","","","","html-slider-response","118","627514","0.0-114.0","gvzxzfoeks","NaN","<div style=""width:500px;"">
                            <p style=""font-size:50px; font-weight:bold;""
                            >exciting</p>
                            <div style=""width:240px; margin: auto;"">
                                <img src=""images/gray_24.png"" style= ""width:200px""alt=""img"">
                            </div>
                        </div>","-130","","0","images/gray_24.png","","","","exciting"
"","","","","","html-slider-response","119","629564","0.0-115.0","gvzxzfoeks","NaN","<div style=""width:500px;"">
                            <p style=""font-size:50px; font-weight:bold;""
                            >exciting</p>
                            <div style=""width:240px; margin: auto;"">
                                <img src=""images/gray_08.png"" style= ""width:200px""alt=""img"">
                            </div>
                        </div>","33","","0","images/gray_08.png","","","","exciting"
"","","","","","html-slider-response","120","632141","0.0-116.0","gvzxzfoeks","NaN","<div style=""width:500px;"">
                            <p style=""font-size:50px; font-weight:bold;""
                            >exciting</p>
                            <div style=""width:240px; margin: auto;"">
                                <img src=""images/gray_42.png"" style= ""width:200px""alt=""img"">
                            </div>
                        </div>","62","","0","images/gray_42.png","","","","exciting"
"","","","","","html-slider-response","121","636332","0.0-117.0","gvzxzfoeks","NaN","<div style=""width:500px;"">
                            <p style=""font-size:50px; font-weight:bold;""
                            >exciting</p>
                            <div style=""width:240px; margin: auto;"">
                                <img src=""images/gray_09.png"" style= ""width:200px""alt=""img"">
                            </div>
                        </div>","138","","0","images/gray_09.png","","","","exciting"
"","","","","","html-slider-response","122","647342","0.0-118.0","gvzxzfoeks","NaN","<div style=""width:500px;"">
                            <p style=""font-size:50px; font-weight:bold;""
                            >exciting</p>
                            <div style=""width:240px; margin: auto;"">
                                <img src=""images/gray_32.png"" style= ""width:200px""alt=""img"">
                            </div>
                        </div>","-88","","0","images/gray_32.png","","","","exciting"
"","","","","","html-slider-response","123","649199","0.0-119.0","gvzxzfoeks","NaN","<div style=""width:500px;"">
                            <p style=""font-size:50px; font-weight:bold;""
                            >exciting</p>
                            <div style=""width:240px; margin: auto;"">
                                <img src=""images/gray_17.png"" style= ""width:200px""alt=""img"">
                            </div>
                        </div>","-66","","0","images/gray_17.png","","","","exciting"
"","","","","","html-slider-response","124","651169","0.0-120.0","gvzxzfoeks","NaN","<div style=""width:500px;"">
                            <p style=""font-size:50px; font-weight:bold;""
                            >exciting</p>
                            <div style=""width:240px; margin: auto;"">
                                <img src=""images/gray_01.png"" style= ""width:200px""alt=""img"">
                            </div>
                        </div>","38","","0","images/gray_01.png","","","","exciting"
"","","","","","html-slider-response","125","653083","0.0-121.0","gvzxzfoeks","NaN","<div style=""width:500px;"">
                            <p style=""font-size:50px; font-weight:bold;""
                            >exciting</p>
                            <div style=""width:240px; margin: auto;"">
                                <img src=""images/gray_28.png"" style= ""width:200px""alt=""img"">
                            </div>
                        </div>","138","","0","images/gray_28.png","","","","exciting"
"","","","","","html-slider-response","126","654807","0.0-122.0","gvzxzfoeks","NaN","<div style=""width:500px;"">
                            <p style=""font-size:50px; font-weight:bold;""
                            >exciting</p>
                            <div style=""width:240px; margin: auto;"">
                                <img src=""images/gray_10.png"" style= ""width:200px""alt=""img"">
                            </div>
                        </div>","-88","","0","images/gray_10.png","","","","exciting"
"","","","","","html-slider-response","127","656406","0.0-123.0","gvzxzfoeks","NaN","<div style=""width:500px;"">
                            <p style=""font-size:50px; font-weight:bold;""
                            >exciting</p>
                            <div style=""width:240px; margin: auto;"">
                                <img src=""images/gray_40.png"" style= ""width:200px""alt=""img"">
                            </div>
                        </div>","-71","","0","images/gray_40.png","","","","exciting"
"","","","","","html-slider-response","128","658575","0.0-124.0","gvzxzfoeks","NaN","<div style=""width:500px;"">
                            <p style=""font-size:50px; font-weight:bold;""
                            >exciting</p>
                            <div style=""width:240px; margin: auto;"">
                                <img src=""images/gray_30.png"" style= ""width:200px""alt=""img"">
                            </div>
                        </div>","-163","","0","images/gray_30.png","","","","exciting"
"","","","","","html-slider-response","129","670420","0.0-125.0","gvzxzfoeks","NaN","<div style=""width:500px;"">
                            <p style=""font-size:50px; font-weight:bold;""
                            >exciting</p>
                            <div style=""width:240px; margin: auto;"">
                                <img src=""images/gray_39.png"" style= ""width:200px""alt=""img"">
                            </div>
                        </div>","-168","","0","images/gray_39.png","","","","exciting"
"","","","","","html-slider-response","130","672430","0.0-126.0","gvzxzfoeks","NaN","<div style=""width:500px;"">
                            <p style=""font-size:50px; font-weight:bold;""
                            >exciting</p>
                            <div style=""width:240px; margin: auto;"">
                                <img src=""images/gray_33.png"" style= ""width:200px""alt=""img"">
                            </div>
                        </div>","25","","0","images/gray_33.png","","","","exciting"
"","","","","","html-slider-response","131","675111","0.0-127.0","gvzxzfoeks","NaN","<div style=""width:500px;"">
                            <p style=""font-size:50px; font-weight:bold;""
                            >exciting</p>
                            <div style=""width:240px; margin: auto;"">
                                <img src=""images/gray_38.png"" style= ""width:200px""alt=""img"">
                            </div>
                        </div>","-165","","0","images/gray_38.png","","","","exciting"
"","","","","","html-slider-response","132","680517","0.0-128.0","gvzxzfoeks","NaN","<div style=""width:500px;"">
                            <p style=""font-size:50px; font-weight:bold;""
                            >exciting</p>
                            <div style=""width:240px; margin: auto;"">
                                <img src=""images/gray_34.png"" style= ""width:200px""alt=""img"">
                            </div>
                        </div>","-172","","0","images/gray_34.png","","","","exciting"
"","","","","","html-slider-response","133","682709","0.0-129.0","gvzxzfoeks","NaN","<div style=""width:500px;"">
                            <p style=""font-size:50px; font-weight:bold;""
                            >exciting</p>
                            <div style=""width:240px; margin: auto;"">
                                <img src=""images/gray_27.png"" style= ""width:200px""alt=""img"">
                            </div>
                        </div>","82","","0","images/gray_27.png","","","","exciting"
"","","","","","html-slider-response","134","684386","0.0-130.0","gvzxzfoeks","NaN","<div style=""width:500px;"">
                            <p style=""font-size:50px; font-weight:bold;""
                            >exciting</p>
                            <div style=""width:240px; margin: auto;"">
                                <img src=""images/gray_05.png"" style= ""width:200px""alt=""img"">
                            </div>
                        </div>","146","","0","images/gray_05.png","","","","exciting"
"","","","","","html-slider-response","135","686576","0.0-131.0","gvzxzfoeks","NaN","<div style=""width:500px;"">
                            <p style=""font-size:50px; font-weight:bold;""
                            >exciting</p>
                            <div style=""width:240px; margin: auto;"">
                                <img src=""images/gray_19.png"" style= ""width:200px""alt=""img"">
                            </div>
                        </div>","-142","","0","images/gray_19.png","","","","exciting"
"","","","","","html-slider-response","136","689005","0.0-132.0","gvzxzfoeks","NaN","<div style=""width:500px;"">
                            <p style=""font-size:50px; font-weight:bold;""
                            >exciting</p>
                            <div style=""width:240px; margin: auto;"">
                                <img src=""images/gray_22.png"" style= ""width:200px""alt=""img"">
                            </div>
                        </div>","-175","","0","images/gray_22.png","","","","exciting"
"","","","","","html-slider-response","137","690856","0.0-133.0","gvzxzfoeks","NaN","<div style=""width:500px;"">
                            <p style=""font-size:50px; font-weight:bold;""
                            >exciting</p>
                            <div style=""width:240px; margin: auto;"">
                                <img src=""images/gray_18.png"" style= ""width:200px""alt=""img"">
                            </div>
                        </div>","-200","","0","images/gray_18.png","","","","exciting"
"","","","","","html-slider-response","138","693112","0.0-134.0","gvzxzfoeks","NaN","<div style=""width:500px;"">
                            <p style=""font-size:50px; font-weight:bold;""
                            >exciting</p>
                            <div style=""width:240px; margin: auto;"">
                                <img src=""images/gray_04.png"" style= ""width:200px""alt=""img"">
                            </div>
                        </div>","-130","","0","images/gray_04.png","","","","exciting"
"","","","","","html-slider-response","139","694876","0.0-135.0","gvzxzfoeks","NaN","<div style=""width:500px;"">
                            <p style=""font-size:50px; font-weight:bold;""
                            >exciting</p>
                            <div style=""width:240px; margin: auto;"">
                                <img src=""images/gray_23.png"" style= ""width:200px""alt=""img"">
                            </div>
                        </div>","-42","","0","images/gray_23.png","","","","exciting"
"","","","","","html-slider-response","140","697189","0.0-136.0","gvzxzfoeks","NaN","<div style=""width:500px;"">
                            <p style=""font-size:50px; font-weight:bold;""
                            >exciting</p>
                            <div style=""width:240px; margin: auto;"">
                                <img src=""images/gray_11.png"" style= ""width:200px""alt=""img"">
                            </div>
                        </div>","35","","0","images/gray_11.png","","","","exciting"
"","","","","","html-slider-response","141","699157","0.0-137.0","gvzxzfoeks","NaN","<div style=""width:500px;"">
                            <p style=""font-size:50px; font-weight:bold;""
                            >exciting</p>
                            <div style=""width:240px; margin: auto;"">
                                <img src=""images/gray_02.png"" style= ""width:200px""alt=""img"">
                            </div>
                        </div>","106","","0","images/gray_02.png","","","","exciting"
"","","","","","html-slider-response","142","700775","0.0-138.0","gvzxzfoeks","NaN","<div style=""width:500px;"">
                            <p style=""font-size:50px; font-weight:bold;""
                            >exciting</p>
                            <div style=""width:240px; margin: auto;"">
                                <img src=""images/gray_41.png"" style= ""width:200px""alt=""img"">
                            </div>
                        </div>","165","","0","images/gray_41.png","","","","exciting"
"","","","","","html-slider-response","143","702593","0.0-139.0","gvzxzfoeks","NaN","<div style=""width:500px;"">
                            <p style=""font-size:50px; font-weight:bold;""
                            >exciting</p>
                            <div style=""width:240px; margin: auto;"">
                                <img src=""images/gray_20.png"" style= ""width:200px""alt=""img"">
                            </div>
                        </div>","-115","","0","images/gray_20.png","","","","exciting"
"","","","","","html-slider-response","144","715937","0.0-140.0","gvzxzfoeks","NaN","<div style=""width:500px;"">
                            <p style=""font-size:50px; font-weight:bold;""
                            >exciting</p>
                            <div style=""width:240px; margin: auto;"">
                                <img src=""images/gray_35.png"" style= ""width:200px""alt=""img"">
                            </div>
                        </div>","-102","","0","images/gray_35.png","","","","exciting"
"","","","","","html-slider-response","145","719999","0.0-141.0","gvzxzfoeks","NaN","<div style=""width:500px;"">
                            <p style=""font-size:50px; font-weight:bold;""
                            >exciting</p>
                            <div style=""width:240px; margin: auto;"">
                                <img src=""images/gray_21.png"" style= ""width:200px""alt=""img"">
                            </div>
                        </div>","-185","","0","images/gray_21.png","","","","exciting"
"","","","","","html-slider-response","146","722408","0.0-142.0","gvzxzfoeks","NaN","<div style=""width:500px;"">
                            <p style=""font-size:50px; font-weight:bold;""
                            >exciting</p>
                            <div style=""width:240px; margin: auto;"">
                                <img src=""images/gray_25.png"" style= ""width:200px""alt=""img"">
                            </div>
                        </div>","18","","0","images/gray_25.png","","","","exciting"
"","","","","","html-slider-response","147","724887","0.0-143.0","gvzxzfoeks","NaN","<div style=""width:500px;"">
                            <p style=""font-size:50px; font-weight:bold;""
                            >exciting</p>
                            <div style=""width:240px; margin: auto;"">
                                <img src=""images/gray_36.png"" style= ""width:200px""alt=""img"">
                            </div>
                        </div>","40","","0","images/gray_36.png","","","","exciting"
"","","","","","html-slider-response","148","727523","0.0-144.0","gvzxzfoeks","NaN","<div style=""width:500px;"">
                            <p style=""font-size:50px; font-weight:bold;""
                            >exciting</p>
                            <div style=""width:240px; margin: auto;"">
                                <img src=""images/gray_03.png"" style= ""width:200px""alt=""img"">
                            </div>
                        </div>","68","","0","images/gray_03.png","","","","exciting"
"","","","","","html-slider-response","149","729848","0.0-145.0","gvzxzfoeks","NaN","<div style=""width:500px;"">
                            <p style=""font-size:50px; font-weight:bold;""
                            >exciting</p>
                            <div style=""width:240px; margin: auto;"">
                                <img src=""images/gray_06.png"" style= ""width:200px""alt=""img"">
                            </div>
                        </div>","-109","","0","images/gray_06.png","","","","exciting"
"","","","","","html-slider-response","150","733485","0.0-146.0","gvzxzfoeks","NaN","<div style=""width:500px;"">
                            <p style=""font-size:50px; font-weight:bold;""
                            >exciting</p>
                            <div style=""width:240px; margin: auto;"">
                                <img src=""images/gray_14.png"" style= ""width:200px""alt=""img"">
                            </div>
                        </div>","-182","","0","images/gray_14.png","","","","exciting"
"","","","","","html-slider-response","151","735322","0.0-147.0","gvzxzfoeks","NaN","<div style=""width:500px;"">
                            <p style=""font-size:50px; font-weight:bold;""
                            >exciting</p>
                            <div style=""width:240px; margin: auto;"">
                                <img src=""images/gray_26.png"" style= ""width:200px""alt=""img"">
                            </div>
                        </div>","-188","","0","images/gray_26.png","","","","exciting"
"","","","","","html-slider-response","152","737448","0.0-148.0","gvzxzfoeks","NaN","<div style=""width:500px;"">
                            <p style=""font-size:50px; font-weight:bold;""
                            >exciting</p>
                            <div style=""width:240px; margin: auto;"">
                                <img src=""images/gray_37.png"" style= ""width:200px""alt=""img"">
                            </div>
                        </div>","-180","","0","images/gray_37.png","","","","exciting"
"","","","","","html-slider-response","153","739610","0.0-149.0","gvzxzfoeks","NaN","<div style=""width:500px;"">
                            <p style=""font-size:50px; font-weight:bold;""
                            >exciting</p>
                            <div style=""width:240px; margin: auto;"">
                                <img src=""images/gray_31.png"" style= ""width:200px""alt=""img"">
                            </div>
                        </div>","-200","","0","images/gray_31.png","","","","exciting"
"","","","","","html-button-response","154","740734","0.0-150.0","gvzxzfoeks","622","<p>Great Job! You've finished block 3.<br></br> You have 5 block(s) left to go.<br></br></p>","0","","","","","","",""
"","","","","","html-button-response","155","741898","0.0-151.0","gvzxzfoeks","1164","<p>In this block of trials, you will be asked to rate how much you associate each map with:</p > <p style = 'font-size:150%; font-weight: bold'>trustworthy</p><br></br>","0","","","","","","",""
"","","","","","html-slider-response","156","799370","0.0-152.0","gvzxzfoeks","NaN","<div style=""width:500px;"">
                            <p style=""font-size:50px; font-weight:bold;""
                            >trustworthy</p>
                            <div style=""width:240px; margin: auto;"">
                                <img src=""images/gray_44.png"" style= ""width:200px""alt=""img"">
                            </div>
                        </div>","2","","0","images/gray_44.png","","","","trustworthy"
"","","","","","html-slider-response","157","801078","0.0-153.0","gvzxzfoeks","NaN","<div style=""width:500px;"">
                            <p style=""font-size:50px; font-weight:bold;""
                            >trustworthy</p>
                            <div style=""width:240px; margin: auto;"">
                                <img src=""images/gray_29.png"" style= ""width:200px""alt=""img"">
                            </div>
                        </div>","2","","0","images/gray_29.png","","","","trustworthy"
"","","","","","html-slider-response","158","801969","0.0-154.0","gvzxzfoeks","NaN","<div style=""width:500px;"">
                            <p style=""font-size:50px; font-weight:bold;""
                            >trustworthy</p>
                            <div style=""width:240px; margin: auto;"">
                                <img src=""images/gray_05.png"" style= ""width:200px""alt=""img"">
                            </div>
                        </div>","2","","0","images/gray_05.png","","","","trustworthy"
"","","","","","html-slider-response","159","913171","0.0-155.0","gvzxzfoeks","NaN","<div style=""width:500px;"">
                            <p style=""font-size:50px; font-weight:bold;""
                            >trustworthy</p>
                            <div style=""width:240px; margin: auto;"">
                                <img src=""images/gray_36.png"" style= ""width:200px""alt=""img"">
                            </div>
                        </div>","-127","","0","images/gray_36.png","","","","trustworthy"
"","","","","","html-slider-response","160","915078","0.0-156.0","gvzxzfoeks","NaN","<div style=""width:500px;"">
                            <p style=""font-size:50px; font-weight:bold;""
                            >trustworthy</p>
                            <div style=""width:240px; margin: auto;"">
                                <img src=""images/gray_20.png"" style= ""width:200px""alt=""img"">
                            </div>
                        </div>","58","","0","images/gray_20.png","","","","trustworthy"
"","","","","","html-slider-response","161","916790","0.0-157.0","gvzxzfoeks","NaN","<div style=""width:500px;"">
                            <p style=""font-size:50px; font-weight:bold;""
                            >trustworthy</p>
                            <div style=""width:240px; margin: auto;"">
                                <img src=""images/gray_11.png"" style= ""width:200px""alt=""img"">
                            </div>
                        </div>","-177","","0","images/gray_11.png","","","","trustworthy"
"","","","","","html-slider-response","162","918693","0.0-158.0","gvzxzfoeks","NaN","<div style=""width:500px;"">
                            <p style=""font-size:50px; font-weight:bold;""
                            >trustworthy</p>
                            <div style=""width:240px; margin: auto;"">
                                <img src=""images/gray_42.png"" style= ""width:200px""alt=""img"">
                            </div>
                        </div>","-141","","0","images/gray_42.png","","","","trustworthy"
"","","","","","html-slider-response","163","920624","0.0-159.0","gvzxzfoeks","NaN","<div style=""width:500px;"">
                            <p style=""font-size:50px; font-weight:bold;""
                            >trustworthy</p>
                            <div style=""width:240px; margin: auto;"">
                                <img src=""images/gray_07.png"" style= ""width:200px""alt=""img"">
                            </div>
                        </div>","-133","","0","images/gray_07.png","","","","trustworthy"
"","","","","","html-slider-response","164","923676","0.0-160.0","gvzxzfoeks","NaN","<div style=""width:500px;"">
                            <p style=""font-size:50px; font-weight:bold;""
                            >trustworthy</p>
                            <div style=""width:240px; margin: auto;"">
                                <img src=""images/gray_16.png"" style= ""width:200px""alt=""img"">
                            </div>
                        </div>","-99","","0","images/gray_16.png","","","","trustworthy"
"","","","","","html-slider-response","165","926231","0.0-161.0","gvzxzfoeks","NaN","<div style=""width:500px;"">
                            <p style=""font-size:50px; font-weight:bold;""
                            >trustworthy</p>
                            <div style=""width:240px; margin: auto;"">
                                <img src=""images/gray_19.png"" style= ""width:200px""alt=""img"">
                            </div>
                        </div>","54","","0","images/gray_19.png","","","","trustworthy"
"","","","","","html-slider-response","166","928880","0.0-162.0","gvzxzfoeks","NaN","<div style=""width:500px;"">
                            <p style=""font-size:50px; font-weight:bold;""
                            >trustworthy</p>
                            <div style=""width:240px; margin: auto;"">
                                <img src=""images/gray_02.png"" style= ""width:200px""alt=""img"">
                            </div>
                        </div>","-61","","0","images/gray_02.png","","","","trustworthy"
"","","","","","html-slider-response","167","930518","0.0-163.0","gvzxzfoeks","NaN","<div style=""width:500px;"">
                            <p style=""font-size:50px; font-weight:bold;""
                            >trustworthy</p>
                            <div style=""width:240px; margin: auto;"">
                                <img src=""images/gray_17.png"" style= ""width:200px""alt=""img"">
                            </div>
                        </div>","34","","0","images/gray_17.png","","","","trustworthy"
"","","","","","html-slider-response","168","935288","0.0-164.0","gvzxzfoeks","NaN","<div style=""width:500px;"">
                            <p style=""font-size:50px; font-weight:bold;""
                            >trustworthy</p>
                            <div style=""width:240px; margin: auto;"">
                                <img src=""images/gray_41.png"" style= ""width:200px""alt=""img"">
                            </div>
                        </div>","-149","","0","images/gray_41.png","","","","trustworthy"
"","","","","","html-slider-response","169","962286","0.0-165.0","gvzxzfoeks","NaN","<div style=""width:500px;"">
                            <p style=""font-size:50px; font-weight:bold;""
                            >trustworthy</p>
                            <div style=""width:240px; margin: auto;"">
                                <img src=""images/gray_03.png"" style= ""width:200px""alt=""img"">
                            </div>
                        </div>","-147","","0","images/gray_03.png","","","","trustworthy"
"","","","","","html-slider-response","170","964014","0.0-166.0","gvzxzfoeks","NaN","<div style=""width:500px;"">
                            <p style=""font-size:50px; font-weight:bold;""
                            >trustworthy</p>
                            <div style=""width:240px; margin: auto;"">
                                <img src=""images/gray_31.png"" style= ""width:200px""alt=""img"">
                            </div>
                        </div>","122","","0","images/gray_31.png","","","","trustworthy"
"","","","","","html-slider-response","171","965805","0.0-167.0","gvzxzfoeks","NaN","<div style=""width:500px;"">
                            <p style=""font-size:50px; font-weight:bold;""
                            >trustworthy</p>
                            <div style=""width:240px; margin: auto;"">
                                <img src=""images/gray_22.png"" style= ""width:200px""alt=""img"">
                            </div>
                        </div>","-114","","0","images/gray_22.png","","","","trustworthy"
"","","","","","html-slider-response","172","974494","0.0-168.0","gvzxzfoeks","NaN","<div style=""width:500px;"">
                            <p style=""font-size:50px; font-weight:bold;""
                            >trustworthy</p>
                            <div style=""width:240px; margin: auto;"">
                                <img src=""images/gray_33.png"" style= ""width:200px""alt=""img"">
                            </div>
                        </div>","-147","","0","images/gray_33.png","","","","trustworthy"
"","","","","","html-slider-response","173","976525","0.0-169.0","gvzxzfoeks","NaN","<div style=""width:500px;"">
                            <p style=""font-size:50px; font-weight:bold;""
                            >trustworthy</p>
                            <div style=""width:240px; margin: auto;"">
                                <img src=""images/gray_01.png"" style= ""width:200px""alt=""img"">
                            </div>
                        </div>","-122","","0","images/gray_01.png","","","","trustworthy"
"","","","","","html-slider-response","174","979531","0.0-170.0","gvzxzfoeks","NaN","<div style=""width:500px;"">
                            <p style=""font-size:50px; font-weight:bold;""
                            >trustworthy</p>
                            <div style=""width:240px; margin: auto;"">
                                <img src=""images/gray_14.png"" style= ""width:200px""alt=""img"">
                            </div>
                        </div>","30","","0","images/gray_14.png","","","","trustworthy"
"","","","","","html-slider-response","175","981704","0.0-171.0","gvzxzfoeks","NaN","<div style=""width:500px;"">
                            <p style=""font-size:50px; font-weight:bold;""
                            >trustworthy</p>
                            <div style=""width:240px; margin: auto;"">
                                <img src=""images/gray_40.png"" style= ""width:200px""alt=""img"">
                            </div>
                        </div>","99","","0","images/gray_40.png","","","","trustworthy"
"","","","","","html-slider-response","176","989827","0.0-172.0","gvzxzfoeks","NaN","<div style=""width:500px;"">
                            <p style=""font-size:50px; font-weight:bold;""
                            >trustworthy</p>
                            <div style=""width:240px; margin: auto;"">
                                <img src=""images/gray_28.png"" style= ""width:200px""alt=""img"">
                            </div>
                        </div>","116","","0","images/gray_28.png","","","","trustworthy"
"","","","","","html-slider-response","177","1003523","0.0-173.0","gvzxzfoeks","NaN","<div style=""width:500px;"">
                            <p style=""font-size:50px; font-weight:bold;""
                            >trustworthy</p>
                            <div style=""width:240px; margin: auto;"">
                                <img src=""images/gray_30.png"" style= ""width:200px""alt=""img"">
                            </div>
                        </div>","-150","","0","images/gray_30.png","","","","trustworthy"
"","","","","","html-slider-response","178","1014493","0.0-174.0","gvzxzfoeks","NaN","<div style=""width:500px;"">
                            <p style=""font-size:50px; font-weight:bold;""
                            >trustworthy</p>
                            <div style=""width:240px; margin: auto;"">
                                <img src=""images/gray_32.png"" style= ""width:200px""alt=""img"">
                            </div>
                        </div>","-182","","0","images/gray_32.png","","","","trustworthy"
"","","","","","html-slider-response","179","1017331","0.0-175.0","gvzxzfoeks","NaN","<div style=""width:500px;"">
                            <p style=""font-size:50px; font-weight:bold;""
                            >trustworthy</p>
                            <div style=""width:240px; margin: auto;"">
                                <img src=""images/gray_25.png"" style= ""width:200px""alt=""img"">
                            </div>
                        </div>","114","","0","images/gray_25.png","","","","trustworthy"
"","","","","","html-slider-response","180","1019886","0.0-176.0","gvzxzfoeks","NaN","<div style=""width:500px;"">
                            <p style=""font-size:50px; font-weight:bold;""
                            >trustworthy</p>
                            <div style=""width:240px; margin: auto;"">
                                <img src=""images/gray_24.png"" style= ""width:200px""alt=""img"">
                            </div>
                        </div>","105","","0","images/gray_24.png","","","","trustworthy"
"","","","","","html-slider-response","181","1022092","0.0-177.0","gvzxzfoeks","NaN","<div style=""width:500px;"">
                            <p style=""font-size:50px; font-weight:bold;""
                            >trustworthy</p>
                            <div style=""width:240px; margin: auto;"">
                                <img src=""images/gray_21.png"" style= ""width:200px""alt=""img"">
                            </div>
                        </div>","200","","0","images/gray_21.png","","","","trustworthy"
"","","","","","html-slider-response","182","1024686","0.0-178.0","gvzxzfoeks","NaN","<div style=""width:500px;"">
                            <p style=""font-size:50px; font-weight:bold;""
                            >trustworthy</p>
                            <div style=""width:240px; margin: auto;"">
                                <img src=""images/gray_06.png"" style= ""width:200px""alt=""img"">
                            </div>
                        </div>","38","","0","images/gray_06.png","","","","trustworthy"
"","","","","","html-slider-response","183","1027577","0.0-179.0","gvzxzfoeks","NaN","<div style=""width:500px;"">
                            <p style=""font-size:50px; font-weight:bold;""
                            >trustworthy</p>
                            <div style=""width:240px; margin: auto;"">
                                <img src=""images/gray_15.png"" style= ""width:200px""alt=""img"">
                            </div>
                        </div>","85","","0","images/gray_15.png","","","","trustworthy"
"","","","","","html-slider-response","184","1030478","0.0-180.0","gvzxzfoeks","NaN","<div style=""width:500px;"">
                            <p style=""font-size:50px; font-weight:bold;""
                            >trustworthy</p>
                            <div style=""width:240px; margin: auto;"">
                                <img src=""images/gray_39.png"" style= ""width:200px""alt=""img"">
                            </div>
                        </div>","126","","0","images/gray_39.png","","","","trustworthy"
"","","","","","html-slider-response","185","1036357","0.0-181.0","gvzxzfoeks","NaN","<div style=""width:500px;"">
                            <p style=""font-size:50px; font-weight:bold;""
                            >trustworthy</p>
                            <div style=""width:240px; margin: auto;"">
                                <img src=""images/gray_43.png"" style= ""width:200px""alt=""img"">
                            </div>
                        </div>","-96","","0","images/gray_43.png","","","","trustworthy"
"","","","","","html-slider-response","186","1042490","0.0-182.0","gvzxzfoeks","NaN","<div style=""width:500px;"">
                            <p style=""font-size:50px; font-weight:bold;""
                            >trustworthy</p>
                            <div style=""width:240px; margin: auto;"">
                                <img src=""images/gray_08.png"" style= ""width:200px""alt=""img"">
                            </div>
                        </div>","-121","","0","images/gray_08.png","","","","trustworthy"
"","","","","","html-slider-response","187","1044463","0.0-183.0","gvzxzfoeks","NaN","<div style=""width:500px;"">
                            <p style=""font-size:50px; font-weight:bold;""
                            >trustworthy</p>
                            <div style=""width:240px; margin: auto;"">
                                <img src=""images/gray_23.png"" style= ""width:200px""alt=""img"">
                            </div>
                        </div>","-174","","0","images/gray_23.png","","","","trustworthy"
"","","","","","html-slider-response","188","1046187","0.0-184.0","gvzxzfoeks","NaN","<div style=""width:500px;"">
                            <p style=""font-size:50px; font-weight:bold;""
                            >trustworthy</p>
                            <div style=""width:240px; margin: auto;"">
                                <img src=""images/gray_26.png"" style= ""width:200px""alt=""img"">
                            </div>
                        </div>","-200","","0","images/gray_26.png","","","","trustworthy"
"","","","","","html-slider-response","189","1047745","0.0-185.0","gvzxzfoeks","NaN","<div style=""width:500px;"">
                            <p style=""font-size:50px; font-weight:bold;""
                            >trustworthy</p>
                            <div style=""width:240px; margin: auto;"">
                                <img src=""images/gray_18.png"" style= ""width:200px""alt=""img"">
                            </div>
                        </div>","29","","0","images/gray_18.png","","","","trustworthy"
"","","","","","html-slider-response","190","1050705","0.0-186.0","gvzxzfoeks","NaN","<div style=""width:500px;"">
                            <p style=""font-size:50px; font-weight:bold;""
                            >trustworthy</p>
                            <div style=""width:240px; margin: auto;"">
                                <img src=""images/gray_12.png"" style= ""width:200px""alt=""img"">
                            </div>
                        </div>","-46","","0","images/gray_12.png","","","","trustworthy"
"","","","","","html-slider-response","191","1052405","0.0-187.0","gvzxzfoeks","NaN","<div style=""width:500px;"">
                            <p style=""font-size:50px; font-weight:bold;""
                            >trustworthy</p>
                            <div style=""width:240px; margin: auto;"">
                                <img src=""images/gray_13.png"" style= ""width:200px""alt=""img"">
                            </div>
                        </div>","-122","","0","images/gray_13.png","","","","trustworthy"
"","","","","","html-slider-response","192","1053795","0.0-188.0","gvzxzfoeks","NaN","<div style=""width:500px;"">
                            <p style=""font-size:50px; font-weight:bold;""
                            >trustworthy</p>
                            <div style=""width:240px; margin: auto;"">
                                <img src=""images/gray_04.png"" style= ""width:200px""alt=""img"">
                            </div>
                        </div>","-170","","0","images/gray_04.png","","","","trustworthy"
"","","","","","html-slider-response","193","1055393","0.0-189.0","gvzxzfoeks","NaN","<div style=""width:500px;"">
                            <p style=""font-size:50px; font-weight:bold;""
                            >trustworthy</p>
                            <div style=""width:240px; margin: auto;"">
                                <img src=""images/gray_27.png"" style= ""width:200px""alt=""img"">
                            </div>
                        </div>","-200","","0","images/gray_27.png","","","","trustworthy"
"","","","","","html-slider-response","194","1057567","0.0-190.0","gvzxzfoeks","NaN","<div style=""width:500px;"">
                            <p style=""font-size:50px; font-weight:bold;""
                            >trustworthy</p>
                            <div style=""width:240px; margin: auto;"">
                                <img src=""images/gray_35.png"" style= ""width:200px""alt=""img"">
                            </div>
                        </div>","-71","","0","images/gray_35.png","","","","trustworthy"
"","","","","","html-slider-response","195","1060360","0.0-191.0","gvzxzfoeks","NaN","<div style=""width:500px;"">
                            <p style=""font-size:50px; font-weight:bold;""
                            >trustworthy</p>
                            <div style=""width:240px; margin: auto;"">
                                <img src=""images/gray_37.png"" style= ""width:200px""alt=""img"">
                            </div>
                        </div>","8","","0","images/gray_37.png","","","","trustworthy"
"","","","","","html-slider-response","196","1062339","0.0-192.0","gvzxzfoeks","NaN","<div style=""width:500px;"">
                            <p style=""font-size:50px; font-weight:bold;""
                            >trustworthy</p>
                            <div style=""width:240px; margin: auto;"">
                                <img src=""images/gray_10.png"" style= ""width:200px""alt=""img"">
                            </div>
                        </div>","46","","0","images/gray_10.png","","","","trustworthy"
"","","","","","html-slider-response","197","1065305","0.0-193.0","gvzxzfoeks","NaN","<div style=""width:500px;"">
                            <p style=""font-size:50px; font-weight:bold;""
                            >trustworthy</p>
                            <div style=""width:240px; margin: auto;"">
                                <img src=""images/gray_38.png"" style= ""width:200px""alt=""img"">
                            </div>
                        </div>","78","","0","images/gray_38.png","","","","trustworthy"
"","","","","","html-slider-response","198","1069325","0.0-194.0","gvzxzfoeks","NaN","<div style=""width:500px;"">
                            <p style=""font-size:50px; font-weight:bold;""
                            >trustworthy</p>
                            <div style=""width:240px; margin: auto;"">
                                <img src=""images/gray_09.png"" style= ""width:200px""alt=""img"">
                            </div>
                        </div>","-105","","0","images/gray_09.png","","","","trustworthy"
