"success","timeout","failed_images","failed_audio","failed_video","trial_type","trial_index","time_elapsed","internal_node_id","subject_id","rt","stimulus","response","question_order","slider_start","image_path","practiceTrial","practiceTrialNum","correct","concept"
"true","false","[]","[]","[]","preload","0","996","0.0-0.0","hy5sqr6x93","","","","","","","","","",""
"","","","","","html-button-response","1","2903","0.0-1.0","hy5sqr6x93","1903","Welcome to our experiment!<p>At the bottom of this screen, you will see a button that says ""Begin Experiment"".<br>Please only click that button when you are ready to complete the 25 minute experiment in one sitting.</p><p> Once you click that button, it will not be possible to restart the experiment.","0","","","","","","",""
"true","","","","","fullscreen","2","5102","0.0-2.0","hy5sqr6x93","1184","","","","","","","","",""
"","","","","","survey-multi-select","3","103418","0.0-3.0","hy5sqr6x93","98302","","{""Consent"":[""<strong>I consent</strong>""]}","[0]","","","","","",""
"","","","","","html-button-response","4","107217","0.0-4.0","hy5sqr6x93","3792","Welcome! <p> This experiment involves two parts: demographic information, followed by the experimental task.<p> It will take about 25 minutes to complete both parts.","0","","","","","","",""
"","","","","","survey-text","5","118708","0.0-5.0","hy5sqr6x93","11468","","{""Age"":""18"",""Gender"":""Female"",""Race/ethnicity"":""White"",""Languages"":""English""}","","","","","","",""
"","","","","","html-slider-response","6","211700","0.0-6.0","hy5sqr6x93","92997","
            <div style='text-align:left; font-size:20px; line-height:25px; width: 1200px;'>
                During this experiment you will be asked to rate how much you associate maps with    different concepts.<br> Below, you can see some examples of the maps you will be asked to rate. Next to the maps
    is the list of concepts.<br>You will be asked    to rate how much you associate each map with each concept on a scale from 'not at all' to 'very much' like the
    one below. <br><br>
    Now, please look at the list of concepts and maps. For each concept, think about the map you associate 'very
    much' with the concept.<br>     When you see that map during the experiment, please rate it near the 'very much' endpoint of the
    scale.<br>Now, please think about which map you associate 'not at all'     with each concept. When you see that map during the experiment, please rate it near the 'not at all' endpoint
    of the scale.<br>
    Please use the full range of the scale. That is, if a map is somewhat associated with the concept, you would
    click partway between the middle point and right side of the scale.    You will be asked to rate each map for a given concept before moving on to the next concept.<br><br>Press the
    'Continue' button for instructions on how to use the slider.    <br><br>
</div>

<div style=""width: 500px; margin: 0 auto;"">
    <div style=""text-align: left; width: 200px; float: left;"">
        <p style=""font-size:25px; line-height:18px;"">calm</p>
        <p style=""font-size:25px; line-height:18px;"">exciting</p>
        <p style=""font-size:25px;line-height:18px;"">positive</p>
        <p style=""font-size:25px;line-height:18px;"">negative</p>
        <p style=""font-size:25px;line-height:18px;"">serious</p>
        <p style=""font-size:25px;line-height:18px;"">playful</p>
        <p style=""font-size:25px;line-height:18px;"">trustworthy</p>
        <p style=""font-size:25px;line-height:18px;"">disturbing</p>
    </div>
    <div style=""width: 200px; float: right; padding-top:15px; padding-right:40px"">
        <br>
        <br>
        <img src=""maps_anchoring.png"" alt=""img"" style=""max-width:500px"">
    </div>
    <div style=""clear: both;""></div>
</div>
            ","80","","0","maps_anchoring.png","true","","",""
"","","","","","html-button-response","7","219584","0.0-7.0","hy5sqr6x93","7881","<div style=""width:800px;""><p style=""text-align:left"">To move the slider, click and drag your cursor to the location of the scale where you would like to make your rating and then let go. When you let go of the slider, your response will be recorded and the next trial will begin. <br>
            We are interested in your initial impressions of each map for the given concept, so please go with your first intuition. <br>
            Before you begin the experiment, there will be four training trials for you to practice using the scale. <br>
             When you are ready to start the training trials, please click ""Continue"".</p><br></div>","0","","","","","","",""
"","","","","","html-slider-response","8","224966","0.0-8.0-0.0","hy5sqr6x93","NaN","<div style=""width:500px;"">
                            <p style=""font-size:25px;"">Please move the slider all the way to the <br> right endpoint of the scale</p>

                            </div>
                        </div>","200","","0","","true","0","true",""
"","","","","","html-button-response","9","226675","0.0-8.0-1.0","hy5sqr6x93","1203","<p align='center'><b>Good job!</b> Click on 'Continue' to proceed.</p>","0","","","","","","",""
"","","","","","html-slider-response","10","229013","0.0-9.0-0.0","hy5sqr6x93","NaN","<div style=""width:500px;"">
                            <p style=""font-size:25px;"">Please move the slider all the way to the <br> left endpoint of the scale</p>

                            </div>
                        </div>","-200","","0","","true","1","true",""
"","","","","","html-button-response","11","230465","0.0-9.0-1.0","hy5sqr6x93","945","<p align='center'><b>Good job!</b> Click on 'Continue' to proceed.</p>","0","","","","","","",""
"","","","","","html-slider-response","12","234873","0.0-10.0-0.0","hy5sqr6x93","NaN","<div style=""width:500px;"">
                            <p style=""font-size:25px;"">Please move the slider halfway between the center and right endpoint of the scale</p>

                            </div>
                        </div>","103","","0","","true","2","true",""
"","","","","","html-button-response","13","236151","0.0-10.0-1.0","hy5sqr6x93","763","<p align='center'><b>Good job!</b> Click on 'Continue' to proceed.</p>","0","","","","","","",""
"","","","","","html-slider-response","14","239263","0.0-11.0-0.0","hy5sqr6x93","NaN","<div style=""width:500px;"">
                            <p style=""font-size:25px;"">Please move the slider halfway between the center and left endpoint of the scale</p>

                            </div>
                        </div>","-109","","0","","true","3","true",""
"","","","","","html-button-response","15","240892","0.0-11.0-1.0","hy5sqr6x93","1123","<p align='center'><b>Good job!</b> Click on 'Continue' to proceed.</p>","0","","","","","","",""
"","","","","","html-button-response","16","242826","0.0-12.0","hy5sqr6x93","1932","<p>Great job! You've completed the practice trials. Now you will begin the main task.</p>","0","","","","","","",""
"","","","","","html-button-response","17","246189","0.0-13.0","hy5sqr6x93","3355","<p>In this block of trials, you will be asked to rate how much you associate each map with:</p > <p style = 'font-size:150%; font-weight: bold'>negative</p><br></br>","0","","","","","","",""
"","","","","","html-slider-response","18","250258","0.0-14.0","hy5sqr6x93","NaN","<div style=""width:500px;"">
                            <p style=""font-size:50px; font-weight:bold;""
                            >negative</p>
                            <div style=""width:240px; margin: auto;"">
                                <img src=""images/gray_38.png"" style= ""width:200px""alt=""img"">
                            </div>
                        </div>","-56","","0","images/gray_38.png","","","","negative"
"","","","","","html-slider-response","19","253399","0.0-15.0","hy5sqr6x93","NaN","<div style=""width:500px;"">
                            <p style=""font-size:50px; font-weight:bold;""
                            >negative</p>
                            <div style=""width:240px; margin: auto;"">
                                <img src=""images/gray_39.png"" style= ""width:200px""alt=""img"">
                            </div>
                        </div>","-132","","0","images/gray_39.png","","","","negative"
"","","","","","html-slider-response","20","255982","0.0-16.0","hy5sqr6x93","NaN","<div style=""width:500px;"">
                            <p style=""font-size:50px; font-weight:bold;""
                            >negative</p>
                            <div style=""width:240px; margin: auto;"">
                                <img src=""images/gray_15.png"" style= ""width:200px""alt=""img"">
                            </div>
                        </div>","-68","","0","images/gray_15.png","","","","negative"
"","","","","","html-slider-response","21","258704","0.0-17.0","hy5sqr6x93","NaN","<div style=""width:500px;"">
                            <p style=""font-size:50px; font-weight:bold;""
                            >negative</p>
                            <div style=""width:240px; margin: auto;"">
                                <img src=""images/gray_35.png"" style= ""width:200px""alt=""img"">
                            </div>
                        </div>","-122","","0","images/gray_35.png","","","","negative"
"","","","","","html-slider-response","22","261386","0.0-18.0","hy5sqr6x93","NaN","<div style=""width:500px;"">
                            <p style=""font-size:50px; font-weight:bold;""
                            >negative</p>
                            <div style=""width:240px; margin: auto;"">
                                <img src=""images/gray_26.png"" style= ""width:200px""alt=""img"">
                            </div>
                        </div>","-90","","0","images/gray_26.png","","","","negative"
"","","","","","html-slider-response","23","263450","0.0-19.0","hy5sqr6x93","NaN","<div style=""width:500px;"">
                            <p style=""font-size:50px; font-weight:bold;""
                            >negative</p>
                            <div style=""width:240px; margin: auto;"">
                                <img src=""images/gray_22.png"" style= ""width:200px""alt=""img"">
                            </div>
                        </div>","-137","","0","images/gray_22.png","","","","negative"
"","","","","","html-slider-response","24","265467","0.0-20.0","hy5sqr6x93","NaN","<div style=""width:500px;"">
                            <p style=""font-size:50px; font-weight:bold;""
                            >negative</p>
                            <div style=""width:240px; margin: auto;"">
                                <img src=""images/gray_42.png"" style= ""width:200px""alt=""img"">
                            </div>
                        </div>","-98","","0","images/gray_42.png","","","","negative"
"","","","","","html-slider-response","25","267543","0.0-21.0","hy5sqr6x93","NaN","<div style=""width:500px;"">
                            <p style=""font-size:50px; font-weight:bold;""
                            >negative</p>
                            <div style=""width:240px; margin: auto;"">
                                <img src=""images/gray_10.png"" style= ""width:200px""alt=""img"">
                            </div>
                        </div>","-116","","0","images/gray_10.png","","","","negative"
"","","","","","html-slider-response","26","269349","0.0-22.0","hy5sqr6x93","NaN","<div style=""width:500px;"">
                            <p style=""font-size:50px; font-weight:bold;""
                            >negative</p>
                            <div style=""width:240px; margin: auto;"">
                                <img src=""images/gray_05.png"" style= ""width:200px""alt=""img"">
                            </div>
                        </div>","-160","","0","images/gray_05.png","","","","negative"
"","","","","","html-slider-response","27","271210","0.0-23.0","hy5sqr6x93","NaN","<div style=""width:500px;"">
                            <p style=""font-size:50px; font-weight:bold;""
                            >negative</p>
                            <div style=""width:240px; margin: auto;"">
                                <img src=""images/gray_03.png"" style= ""width:200px""alt=""img"">
                            </div>
                        </div>","-166","","0","images/gray_03.png","","","","negative"
"","","","","","html-slider-response","28","274038","0.0-24.0","hy5sqr6x93","NaN","<div style=""width:500px;"">
                            <p style=""font-size:50px; font-weight:bold;""
                            >negative</p>
                            <div style=""width:240px; margin: auto;"">
                                <img src=""images/gray_11.png"" style= ""width:200px""alt=""img"">
                            </div>
                        </div>","-40","","0","images/gray_11.png","","","","negative"
"","","","","","html-slider-response","29","276227","0.0-25.0","hy5sqr6x93","NaN","<div style=""width:500px;"">
                            <p style=""font-size:50px; font-weight:bold;""
                            >negative</p>
                            <div style=""width:240px; margin: auto;"">
                                <img src=""images/gray_13.png"" style= ""width:200px""alt=""img"">
                            </div>
                        </div>","-136","","0","images/gray_13.png","","","","negative"
"","","","","","html-slider-response","30","279381","0.0-26.0","hy5sqr6x93","NaN","<div style=""width:500px;"">
                            <p style=""font-size:50px; font-weight:bold;""
                            >negative</p>
                            <div style=""width:240px; margin: auto;"">
                                <img src=""images/gray_04.png"" style= ""width:200px""alt=""img"">
                            </div>
                        </div>","-162","","0","images/gray_04.png","","","","negative"
"","","","","","html-slider-response","31","281337","0.0-27.0","hy5sqr6x93","NaN","<div style=""width:500px;"">
                            <p style=""font-size:50px; font-weight:bold;""
                            >negative</p>
                            <div style=""width:240px; margin: auto;"">
                                <img src=""images/gray_07.png"" style= ""width:200px""alt=""img"">
                            </div>
                        </div>","-160","","0","images/gray_07.png","","","","negative"
"","","","","","html-slider-response","32","284134","0.0-28.0","hy5sqr6x93","NaN","<div style=""width:500px;"">
                            <p style=""font-size:50px; font-weight:bold;""
                            >negative</p>
                            <div style=""width:240px; margin: auto;"">
                                <img src=""images/gray_08.png"" style= ""width:200px""alt=""img"">
                            </div>
                        </div>","-133","","0","images/gray_08.png","","","","negative"
"","","","","","html-slider-response","33","285740","0.0-29.0","hy5sqr6x93","NaN","<div style=""width:500px;"">
                            <p style=""font-size:50px; font-weight:bold;""
                            >negative</p>
                            <div style=""width:240px; margin: auto;"">
                                <img src=""images/gray_17.png"" style= ""width:200px""alt=""img"">
                            </div>
                        </div>","7","","0","images/gray_17.png","","","","negative"
"","","","","","html-slider-response","34","287210","0.0-30.0","hy5sqr6x93","NaN","<div style=""width:500px;"">
                            <p style=""font-size:50px; font-weight:bold;""
                            >negative</p>
                            <div style=""width:240px; margin: auto;"">
                                <img src=""images/gray_06.png"" style= ""width:200px""alt=""img"">
                            </div>
                        </div>","-188","","0","images/gray_06.png","","","","negative"
"","","","","","html-slider-response","35","292828","0.0-31.0","hy5sqr6x93","NaN","<div style=""width:500px;"">
                            <p style=""font-size:50px; font-weight:bold;""
                            >negative</p>
                            <div style=""width:240px; margin: auto;"">
                                <img src=""images/gray_41.png"" style= ""width:200px""alt=""img"">
                            </div>
                        </div>","-151","","0","images/gray_41.png","","","","negative"
"","","","","","html-slider-response","36","294730","0.0-32.0","hy5sqr6x93","NaN","<div style=""width:500px;"">
                            <p style=""font-size:50px; font-weight:bold;""
                            >negative</p>
                            <div style=""width:240px; margin: auto;"">
                                <img src=""images/gray_18.png"" style= ""width:200px""alt=""img"">
                            </div>
                        </div>","-136","","0","images/gray_18.png","","","","negative"
"","","","","","html-slider-response","37","297088","0.0-33.0","hy5sqr6x93","NaN","<div style=""width:500px;"">
                            <p style=""font-size:50px; font-weight:bold;""
                            >negative</p>
                            <div style=""width:240px; margin: auto;"">
                                <img src=""images/gray_19.png"" style= ""width:200px""alt=""img"">
                            </div>
                        </div>","-153","","0","images/gray_19.png","","","","negative"
"","","","","","html-slider-response","38","299181","0.0-34.0","hy5sqr6x93","NaN","<div style=""width:500px;"">
                            <p style=""font-size:50px; font-weight:bold;""
                            >negative</p>
                            <div style=""width:240px; margin: auto;"">
                                <img src=""images/gray_44.png"" style= ""width:200px""alt=""img"">
                            </div>
                        </div>","-148","","0","images/gray_44.png","","","","negative"
"","","","","","html-slider-response","39","301485","0.0-35.0","hy5sqr6x93","NaN","<div style=""width:500px;"">
                            <p style=""font-size:50px; font-weight:bold;""
                            >negative</p>
                            <div style=""width:240px; margin: auto;"">
                                <img src=""images/gray_28.png"" style= ""width:200px""alt=""img"">
                            </div>
                        </div>","-143","","0","images/gray_28.png","","","","negative"
"","","","","","html-slider-response","40","303437","0.0-36.0","hy5sqr6x93","NaN","<div style=""width:500px;"">
                            <p style=""font-size:50px; font-weight:bold;""
                            >negative</p>
                            <div style=""width:240px; margin: auto;"">
                                <img src=""images/gray_32.png"" style= ""width:200px""alt=""img"">
                            </div>
                        </div>","-131","","0","images/gray_32.png","","","","negative"
"","","","","","html-slider-response","41","305632","0.0-37.0","hy5sqr6x93","NaN","<div style=""width:500px;"">
                            <p style=""font-size:50px; font-weight:bold;""
                            >negative</p>
                            <div style=""width:240px; margin: auto;"">
                                <img src=""images/gray_14.png"" style= ""width:200px""alt=""img"">
                            </div>
                        </div>","-146","","0","images/gray_14.png","","","","negative"
"","","","","","html-slider-response","42","307339","0.0-38.0","hy5sqr6x93","NaN","<div style=""width:500px;"">
                            <p style=""font-size:50px; font-weight:bold;""
                            >negative</p>
                            <div style=""width:240px; margin: auto;"">
                                <img src=""images/gray_25.png"" style= ""width:200px""alt=""img"">
                            </div>
                        </div>","-128","","0","images/gray_25.png","","","","negative"
"","","","","","html-slider-response","43","309731","0.0-39.0","hy5sqr6x93","NaN","<div style=""width:500px;"">
                            <p style=""font-size:50px; font-weight:bold;""
                            >negative</p>
                            <div style=""width:240px; margin: auto;"">
                                <img src=""images/gray_01.png"" style= ""width:200px""alt=""img"">
                            </div>
                        </div>","-166","","0","images/gray_01.png","","","","negative"
"","","","","","html-slider-response","44","316094","0.0-40.0","hy5sqr6x93","NaN","<div style=""width:500px;"">
                            <p style=""font-size:50px; font-weight:bold;""
                            >negative</p>
                            <div style=""width:240px; margin: auto;"">
                                <img src=""images/gray_30.png"" style= ""width:200px""alt=""img"">
                            </div>
                        </div>","-157","","0","images/gray_30.png","","","","negative"
"","","","","","html-slider-response","45","318865","0.0-41.0","hy5sqr6x93","NaN","<div style=""width:500px;"">
                            <p style=""font-size:50px; font-weight:bold;""
                            >negative</p>
                            <div style=""width:240px; margin: auto;"">
                                <img src=""images/gray_20.png"" style= ""width:200px""alt=""img"">
                            </div>
                        </div>","-160","","0","images/gray_20.png","","","","negative"
"","","","","","html-slider-response","46","333793","0.0-42.0","hy5sqr6x93","NaN","<div style=""width:500px;"">
                            <p style=""font-size:50px; font-weight:bold;""
                            >negative</p>
                            <div style=""width:240px; margin: auto;"">
                                <img src=""images/gray_27.png"" style= ""width:200px""alt=""img"">
                            </div>
                        </div>","-174","","0","images/gray_27.png","","","","negative"
"","","","","","html-slider-response","47","336043","0.0-43.0","hy5sqr6x93","NaN","<div style=""width:500px;"">
                            <p style=""font-size:50px; font-weight:bold;""
                            >negative</p>
                            <div style=""width:240px; margin: auto;"">
                                <img src=""images/gray_33.png"" style= ""width:200px""alt=""img"">
                            </div>
                        </div>","-162","","0","images/gray_33.png","","","","negative"
"","","","","","html-slider-response","48","338782","0.0-44.0","hy5sqr6x93","NaN","<div style=""width:500px;"">
                            <p style=""font-size:50px; font-weight:bold;""
                            >negative</p>
                            <div style=""width:240px; margin: auto;"">
                                <img src=""images/gray_21.png"" style= ""width:200px""alt=""img"">
                            </div>
                        </div>","-150","","0","images/gray_21.png","","","","negative"
"","","","","","html-slider-response","49","341488","0.0-45.0","hy5sqr6x93","NaN","<div style=""width:500px;"">
                            <p style=""font-size:50px; font-weight:bold;""
                            >negative</p>
                            <div style=""width:240px; margin: auto;"">
                                <img src=""images/gray_16.png"" style= ""width:200px""alt=""img"">
                            </div>
                        </div>","-170","","0","images/gray_16.png","","","","negative"
"","","","","","html-slider-response","50","343691","0.0-46.0","hy5sqr6x93","NaN","<div style=""width:500px;"">
                            <p style=""font-size:50px; font-weight:bold;""
                            >negative</p>
                            <div style=""width:240px; margin: auto;"">
                                <img src=""images/gray_40.png"" style= ""width:200px""alt=""img"">
                            </div>
                        </div>","-165","","0","images/gray_40.png","","","","negative"
"","","","","","html-slider-response","51","345678","0.0-47.0","hy5sqr6x93","NaN","<div style=""width:500px;"">
                            <p style=""font-size:50px; font-weight:bold;""
                            >negative</p>
                            <div style=""width:240px; margin: auto;"">
                                <img src=""images/gray_34.png"" style= ""width:200px""alt=""img"">
                            </div>
                        </div>","-142","","0","images/gray_34.png","","","","negative"
"","","","","","html-slider-response","52","348009","0.0-48.0","hy5sqr6x93","NaN","<div style=""width:500px;"">
                            <p style=""font-size:50px; font-weight:bold;""
                            >negative</p>
                            <div style=""width:240px; margin: auto;"">
                                <img src=""images/gray_24.png"" style= ""width:200px""alt=""img"">
                            </div>
                        </div>","-169","","0","images/gray_24.png","","","","negative"
"","","","","","html-slider-response","53","351146","0.0-49.0","hy5sqr6x93","NaN","<div style=""width:500px;"">
                            <p style=""font-size:50px; font-weight:bold;""
                            >negative</p>
                            <div style=""width:240px; margin: auto;"">
                                <img src=""images/gray_31.png"" style= ""width:200px""alt=""img"">
                            </div>
                        </div>","-146","","0","images/gray_31.png","","","","negative"
"","","","","","html-slider-response","54","364318","0.0-50.0","hy5sqr6x93","NaN","<div style=""width:500px;"">
                            <p style=""font-size:50px; font-weight:bold;""
                            >negative</p>
                            <div style=""width:240px; margin: auto;"">
                                <img src=""images/gray_29.png"" style= ""width:200px""alt=""img"">
                            </div>
                        </div>","-150","","0","images/gray_29.png","","","","negative"
"","","","","","html-slider-response","55","366853","0.0-51.0","hy5sqr6x93","NaN","<div style=""width:500px;"">
                            <p style=""font-size:50px; font-weight:bold;""
                            >negative</p>
                            <div style=""width:240px; margin: auto;"">
                                <img src=""images/gray_02.png"" style= ""width:200px""alt=""img"">
                            </div>
                        </div>","-197","","0","images/gray_02.png","","","","negative"
"","","","","","html-slider-response","56","368458","0.0-52.0","hy5sqr6x93","NaN","<div style=""width:500px;"">
                            <p style=""font-size:50px; font-weight:bold;""
                            >negative</p>
                            <div style=""width:240px; margin: auto;"">
                                <img src=""images/gray_43.png"" style= ""width:200px""alt=""img"">
                            </div>
                        </div>","-200","","0","images/gray_43.png","","","","negative"
"","","","","","html-slider-response","57","370464","0.0-53.0","hy5sqr6x93","NaN","<div style=""width:500px;"">
                            <p style=""font-size:50px; font-weight:bold;""
                            >negative</p>
                            <div style=""width:240px; margin: auto;"">
                                <img src=""images/gray_09.png"" style= ""width:200px""alt=""img"">
                            </div>
                        </div>","-200","","0","images/gray_09.png","","","","negative"
"","","","","","html-slider-response","58","372476","0.0-54.0","hy5sqr6x93","NaN","<div style=""width:500px;"">
                            <p style=""font-size:50px; font-weight:bold;""
                            >negative</p>
                            <div style=""width:240px; margin: auto;"">
                                <img src=""images/gray_36.png"" style= ""width:200px""alt=""img"">
                            </div>
                        </div>","-200","","0","images/gray_36.png","","","","negative"
"","","","","","html-slider-response","59","374295","0.0-55.0","hy5sqr6x93","NaN","<div style=""width:500px;"">
                            <p style=""font-size:50px; font-weight:bold;""
                            >negative</p>
                            <div style=""width:240px; margin: auto;"">
                                <img src=""images/gray_37.png"" style= ""width:200px""alt=""img"">
                            </div>
                        </div>","-200","","0","images/gray_37.png","","","","negative"
"","","","","","html-slider-response","60","375972","0.0-56.0","hy5sqr6x93","NaN","<div style=""width:500px;"">
                            <p style=""font-size:50px; font-weight:bold;""
                            >negative</p>
                            <div style=""width:240px; margin: auto;"">
                                <img src=""images/gray_12.png"" style= ""width:200px""alt=""img"">
                            </div>
                        </div>","-200","","0","images/gray_12.png","","","","negative"
"","","","","","html-slider-response","61","377864","0.0-57.0","hy5sqr6x93","NaN","<div style=""width:500px;"">
                            <p style=""font-size:50px; font-weight:bold;""
                            >negative</p>
                            <div style=""width:240px; margin: auto;"">
                                <img src=""images/gray_23.png"" style= ""width:200px""alt=""img"">
                            </div>
                        </div>","-200","","0","images/gray_23.png","","","","negative"
"","","","","","html-button-response","62","380852","0.0-58.0","hy5sqr6x93","2480","<p>Great Job! You've finished block 1.<br></br> You have 7 block(s) left to go.<br></br></p>","0","","","","","","",""
"","","","","","html-button-response","63","382103","0.0-59.0","hy5sqr6x93","1247","<p>In this block of trials, you will be asked to rate how much you associate each map with:</p > <p style = 'font-size:150%; font-weight: bold'>playful</p><br></br>","0","","","","","","",""
"","","","","","html-slider-response","64","391024","0.0-60.0","hy5sqr6x93","NaN","<div style=""width:500px;"">
                            <p style=""font-size:50px; font-weight:bold;""
                            >playful</p>
                            <div style=""width:240px; margin: auto;"">
                                <img src=""images/gray_39.png"" style= ""width:200px""alt=""img"">
                            </div>
                        </div>","-75","","0","images/gray_39.png","","","","playful"
"","","","","","html-slider-response","65","393740","0.0-61.0","hy5sqr6x93","NaN","<div style=""width:500px;"">
                            <p style=""font-size:50px; font-weight:bold;""
                            >playful</p>
                            <div style=""width:240px; margin: auto;"">
                                <img src=""images/gray_02.png"" style= ""width:200px""alt=""img"">
                            </div>
                        </div>","-14","","0","images/gray_02.png","","","","playful"
"","","","","","html-slider-response","66","396276","0.0-62.0","hy5sqr6x93","NaN","<div style=""width:500px;"">
                            <p style=""font-size:50px; font-weight:bold;""
                            >playful</p>
                            <div style=""width:240px; margin: auto;"">
                                <img src=""images/gray_05.png"" style= ""width:200px""alt=""img"">
                            </div>
                        </div>","40","","0","images/gray_05.png","","","","playful"
"","","","","","html-slider-response","67","398135","0.0-63.0","hy5sqr6x93","NaN","<div style=""width:500px;"">
                            <p style=""font-size:50px; font-weight:bold;""
                            >playful</p>
                            <div style=""width:240px; margin: auto;"">
                                <img src=""images/gray_41.png"" style= ""width:200px""alt=""img"">
                            </div>
                        </div>","65","","0","images/gray_41.png","","","","playful"
"","","","","","html-slider-response","68","399667","0.0-64.0","hy5sqr6x93","NaN","<div style=""width:500px;"">
                            <p style=""font-size:50px; font-weight:bold;""
                            >playful</p>
                            <div style=""width:240px; margin: auto;"">
                                <img src=""images/gray_20.png"" style= ""width:200px""alt=""img"">
                            </div>
                        </div>","29","","0","images/gray_20.png","","","","playful"
"","","","","","html-slider-response","69","401087","0.0-65.0","hy5sqr6x93","NaN","<div style=""width:500px;"">
                            <p style=""font-size:50px; font-weight:bold;""
                            >playful</p>
                            <div style=""width:240px; margin: auto;"">
                                <img src=""images/gray_10.png"" style= ""width:200px""alt=""img"">
                            </div>
                        </div>","18","","0","images/gray_10.png","","","","playful"
"","","","","","html-slider-response","70","402574","0.0-66.0","hy5sqr6x93","NaN","<div style=""width:500px;"">
                            <p style=""font-size:50px; font-weight:bold;""
                            >playful</p>
                            <div style=""width:240px; margin: auto;"">
                                <img src=""images/gray_07.png"" style= ""width:200px""alt=""img"">
                            </div>
                        </div>","18","","0","images/gray_07.png","","","","playful"
"","","","","","html-slider-response","71","406410","0.0-67.0","hy5sqr6x93","NaN","<div style=""width:500px;"">
                            <p style=""font-size:50px; font-weight:bold;""
                            >playful</p>
                            <div style=""width:240px; margin: auto;"">
                                <img src=""images/gray_27.png"" style= ""width:200px""alt=""img"">
                            </div>
                        </div>","11","","0","images/gray_27.png","","","","playful"
"","","","","","html-slider-response","72","407638","0.0-68.0","hy5sqr6x93","NaN","<div style=""width:500px;"">
                            <p style=""font-size:50px; font-weight:bold;""
                            >playful</p>
                            <div style=""width:240px; margin: auto;"">
                                <img src=""images/gray_30.png"" style= ""width:200px""alt=""img"">
                            </div>
                        </div>","11","","0","images/gray_30.png","","","","playful"
"","","","","","html-slider-response","73","409167","0.0-69.0","hy5sqr6x93","NaN","<div style=""width:500px;"">
                            <p style=""font-size:50px; font-weight:bold;""
                            >playful</p>
                            <div style=""width:240px; margin: auto;"">
                                <img src=""images/gray_32.png"" style= ""width:200px""alt=""img"">
                            </div>
                        </div>","14","","0","images/gray_32.png","","","","playful"
"","","","","","html-slider-response","74","410207","0.0-70.0","hy5sqr6x93","NaN","<div style=""width:500px;"">
                            <p style=""font-size:50px; font-weight:bold;""
                            >playful</p>
                            <div style=""width:240px; margin: auto;"">
                                <img src=""images/gray_34.png"" style= ""width:200px""alt=""img"">
                            </div>
                        </div>","17","","0","images/gray_34.png","","","","playful"
"","","","","","html-slider-response","75","411406","0.0-71.0","hy5sqr6x93","NaN","<div style=""width:500px;"">
                            <p style=""font-size:50px; font-weight:bold;""
                            >playful</p>
                            <div style=""width:240px; margin: auto;"">
                                <img src=""images/gray_36.png"" style= ""width:200px""alt=""img"">
                            </div>
                        </div>","18","","0","images/gray_36.png","","","","playful"
"","","","","","html-slider-response","76","412760","0.0-72.0","hy5sqr6x93","NaN","<div style=""width:500px;"">
                            <p style=""font-size:50px; font-weight:bold;""
                            >playful</p>
                            <div style=""width:240px; margin: auto;"">
                                <img src=""images/gray_16.png"" style= ""width:200px""alt=""img"">
                            </div>
                        </div>","20","","0","images/gray_16.png","","","","playful"
"","","","","","html-slider-response","77","413908","0.0-73.0","hy5sqr6x93","NaN","<div style=""width:500px;"">
                            <p style=""font-size:50px; font-weight:bold;""
                            >playful</p>
                            <div style=""width:240px; margin: auto;"">
                                <img src=""images/gray_29.png"" style= ""width:200px""alt=""img"">
                            </div>
                        </div>","21","","0","images/gray_29.png","","","","playful"
"","","","","","html-slider-response","78","415907","0.0-74.0","hy5sqr6x93","NaN","<div style=""width:500px;"">
                            <p style=""font-size:50px; font-weight:bold;""
                            >playful</p>
                            <div style=""width:240px; margin: auto;"">
                                <img src=""images/gray_18.png"" style= ""width:200px""alt=""img"">
                            </div>
                        </div>","22","","0","images/gray_18.png","","","","playful"
"","","","","","html-slider-response","79","421674","0.0-75.0","hy5sqr6x93","NaN","<div style=""width:500px;"">
                            <p style=""font-size:50px; font-weight:bold;""
                            >playful</p>
                            <div style=""width:240px; margin: auto;"">
                                <img src=""images/gray_38.png"" style= ""width:200px""alt=""img"">
                            </div>
                        </div>","22","","0","images/gray_38.png","","","","playful"
"","","","","","html-slider-response","80","424293","0.0-76.0","hy5sqr6x93","NaN","<div style=""width:500px;"">
                            <p style=""font-size:50px; font-weight:bold;""
                            >playful</p>
                            <div style=""width:240px; margin: auto;"">
                                <img src=""images/gray_28.png"" style= ""width:200px""alt=""img"">
                            </div>
                        </div>","18","","0","images/gray_28.png","","","","playful"
"","","","","","html-slider-response","81","425678","0.0-77.0","hy5sqr6x93","NaN","<div style=""width:500px;"">
                            <p style=""font-size:50px; font-weight:bold;""
                            >playful</p>
                            <div style=""width:240px; margin: auto;"">
                                <img src=""images/gray_04.png"" style= ""width:200px""alt=""img"">
                            </div>
                        </div>","18","","0","images/gray_04.png","","","","playful"
"","","","","","html-slider-response","82","426939","0.0-78.0","hy5sqr6x93","NaN","<div style=""width:500px;"">
                            <p style=""font-size:50px; font-weight:bold;""
                            >playful</p>
                            <div style=""width:240px; margin: auto;"">
                                <img src=""images/gray_24.png"" style= ""width:200px""alt=""img"">
                            </div>
                        </div>","18","","0","images/gray_24.png","","","","playful"
"","","","","","html-slider-response","83","427947","0.0-79.0","hy5sqr6x93","NaN","<div style=""width:500px;"">
                            <p style=""font-size:50px; font-weight:bold;""
                            >playful</p>
                            <div style=""width:240px; margin: auto;"">
                                <img src=""images/gray_03.png"" style= ""width:200px""alt=""img"">
                            </div>
                        </div>","18","","0","images/gray_03.png","","","","playful"
"","","","","","html-slider-response","84","429083","0.0-80.0","hy5sqr6x93","NaN","<div style=""width:500px;"">
                            <p style=""font-size:50px; font-weight:bold;""
                            >playful</p>
                            <div style=""width:240px; margin: auto;"">
                                <img src=""images/gray_11.png"" style= ""width:200px""alt=""img"">
                            </div>
                        </div>","18","","0","images/gray_11.png","","","","playful"
"","","","","","html-slider-response","85","430030","0.0-81.0","hy5sqr6x93","NaN","<div style=""width:500px;"">
                            <p style=""font-size:50px; font-weight:bold;""
                            >playful</p>
                            <div style=""width:240px; margin: auto;"">
                                <img src=""images/gray_12.png"" style= ""width:200px""alt=""img"">
                            </div>
                        </div>","18","","0","images/gray_12.png","","","","playful"
"","","","","","html-slider-response","86","431020","0.0-82.0","hy5sqr6x93","NaN","<div style=""width:500px;"">
                            <p style=""font-size:50px; font-weight:bold;""
                            >playful</p>
                            <div style=""width:240px; margin: auto;"">
                                <img src=""images/gray_09.png"" style= ""width:200px""alt=""img"">
                            </div>
                        </div>","18","","0","images/gray_09.png","","","","playful"
"","","","","","html-slider-response","87","431981","0.0-83.0","hy5sqr6x93","NaN","<div style=""width:500px;"">
                            <p style=""font-size:50px; font-weight:bold;""
                            >playful</p>
                            <div style=""width:240px; margin: auto;"">
                                <img src=""images/gray_21.png"" style= ""width:200px""alt=""img"">
                            </div>
                        </div>","18","","0","images/gray_21.png","","","","playful"
"","","","","","html-slider-response","88","433192","0.0-84.0","hy5sqr6x93","NaN","<div style=""width:500px;"">
                            <p style=""font-size:50px; font-weight:bold;""
                            >playful</p>
                            <div style=""width:240px; margin: auto;"">
                                <img src=""images/gray_31.png"" style= ""width:200px""alt=""img"">
                            </div>
                        </div>","18","","0","images/gray_31.png","","","","playful"
"","","","","","html-slider-response","89","434786","0.0-85.0","hy5sqr6x93","NaN","<div style=""width:500px;"">
                            <p style=""font-size:50px; font-weight:bold;""
                            >playful</p>
                            <div style=""width:240px; margin: auto;"">
                                <img src=""images/gray_35.png"" style= ""width:200px""alt=""img"">
                            </div>
                        </div>","84","","0","images/gray_35.png","","","","playful"
"","","","","","html-slider-response","90","436063","0.0-86.0","hy5sqr6x93","NaN","<div style=""width:500px;"">
                            <p style=""font-size:50px; font-weight:bold;""
                            >playful</p>
                            <div style=""width:240px; margin: auto;"">
                                <img src=""images/gray_15.png"" style= ""width:200px""alt=""img"">
                            </div>
                        </div>","78","","0","images/gray_15.png","","","","playful"
"","","","","","html-slider-response","91","438397","0.0-87.0","hy5sqr6x93","NaN","<div style=""width:500px;"">
                            <p style=""font-size:50px; font-weight:bold;""
                            >playful</p>
                            <div style=""width:240px; margin: auto;"">
                                <img src=""images/gray_42.png"" style= ""width:200px""alt=""img"">
                            </div>
                        </div>","80","","0","images/gray_42.png","","","","playful"
"","","","","","html-slider-response","92","440363","0.0-88.0","hy5sqr6x93","NaN","<div style=""width:500px;"">
                            <p style=""font-size:50px; font-weight:bold;""
                            >playful</p>
                            <div style=""width:240px; margin: auto;"">
                                <img src=""images/gray_37.png"" style= ""width:200px""alt=""img"">
                            </div>
                        </div>","85","","0","images/gray_37.png","","","","playful"
"","","","","","html-slider-response","93","442253","0.0-89.0","hy5sqr6x93","NaN","<div style=""width:500px;"">
                            <p style=""font-size:50px; font-weight:bold;""
                            >playful</p>
                            <div style=""width:240px; margin: auto;"">
                                <img src=""images/gray_40.png"" style= ""width:200px""alt=""img"">
                            </div>
                        </div>","51","","0","images/gray_40.png","","","","playful"
"","","","","","html-slider-response","94","443968","0.0-90.0","hy5sqr6x93","NaN","<div style=""width:500px;"">
                            <p style=""font-size:50px; font-weight:bold;""
                            >playful</p>
                            <div style=""width:240px; margin: auto;"">
                                <img src=""images/gray_08.png"" style= ""width:200px""alt=""img"">
                            </div>
                        </div>","30","","0","images/gray_08.png","","","","playful"
"","","","","","html-slider-response","95","446076","0.0-91.0","hy5sqr6x93","NaN","<div style=""width:500px;"">
                            <p style=""font-size:50px; font-weight:bold;""
                            >playful</p>
                            <div style=""width:240px; margin: auto;"">
                                <img src=""images/gray_23.png"" style= ""width:200px""alt=""img"">
                            </div>
                        </div>","19","","0","images/gray_23.png","","","","playful"
"","","","","","html-slider-response","96","447873","0.0-92.0","hy5sqr6x93","NaN","<div style=""width:500px;"">
                            <p style=""font-size:50px; font-weight:bold;""
                            >playful</p>
                            <div style=""width:240px; margin: auto;"">
                                <img src=""images/gray_17.png"" style= ""width:200px""alt=""img"">
                            </div>
                        </div>","49","","0","images/gray_17.png","","","","playful"
"","","","","","html-slider-response","97","450032","0.0-93.0","hy5sqr6x93","NaN","<div style=""width:500px;"">
                            <p style=""font-size:50px; font-weight:bold;""
                            >playful</p>
                            <div style=""width:240px; margin: auto;"">
                                <img src=""images/gray_13.png"" style= ""width:200px""alt=""img"">
                            </div>
                        </div>","-26","","0","images/gray_13.png","","","","playful"
"","","","","","html-slider-response","98","452249","0.0-94.0","hy5sqr6x93","NaN","<div style=""width:500px;"">
                            <p style=""font-size:50px; font-weight:bold;""
                            >playful</p>
                            <div style=""width:240px; margin: auto;"">
                                <img src=""images/gray_25.png"" style= ""width:200px""alt=""img"">
                            </div>
                        </div>","17","","0","images/gray_25.png","","","","playful"
"","","","","","html-slider-response","99","454357","0.0-95.0","hy5sqr6x93","NaN","<div style=""width:500px;"">
                            <p style=""font-size:50px; font-weight:bold;""
                            >playful</p>
                            <div style=""width:240px; margin: auto;"">
                                <img src=""images/gray_01.png"" style= ""width:200px""alt=""img"">
                            </div>
                        </div>","66","","0","images/gray_01.png","","","","playful"
"","","","","","html-slider-response","100","457535","0.0-96.0","hy5sqr6x93","NaN","<div style=""width:500px;"">
                            <p style=""font-size:50px; font-weight:bold;""
                            >playful</p>
                            <div style=""width:240px; margin: auto;"">
                                <img src=""images/gray_33.png"" style= ""width:200px""alt=""img"">
                            </div>
                        </div>","-154","","0","images/gray_33.png","","","","playful"
"","","","","","html-slider-response","101","460328","0.0-97.0","hy5sqr6x93","NaN","<div style=""width:500px;"">
                            <p style=""font-size:50px; font-weight:bold;""
                            >playful</p>
                            <div style=""width:240px; margin: auto;"">
                                <img src=""images/gray_14.png"" style= ""width:200px""alt=""img"">
                            </div>
                        </div>","-126","","0","images/gray_14.png","","","","playful"
"","","","","","html-slider-response","102","462329","0.0-98.0","hy5sqr6x93","NaN","<div style=""width:500px;"">
                            <p style=""font-size:50px; font-weight:bold;""
                            >playful</p>
                            <div style=""width:240px; margin: auto;"">
                                <img src=""images/gray_06.png"" style= ""width:200px""alt=""img"">
                            </div>
                        </div>","42","","0","images/gray_06.png","","","","playful"
"","","","","","html-slider-response","103","464265","0.0-99.0","hy5sqr6x93","NaN","<div style=""width:500px;"">
                            <p style=""font-size:50px; font-weight:bold;""
                            >playful</p>
                            <div style=""width:240px; margin: auto;"">
                                <img src=""images/gray_44.png"" style= ""width:200px""alt=""img"">
                            </div>
                        </div>","30","","0","images/gray_44.png","","","","playful"
"","","","","","html-slider-response","104","466581","0.0-100.0","hy5sqr6x93","NaN","<div style=""width:500px;"">
                            <p style=""font-size:50px; font-weight:bold;""
                            >playful</p>
                            <div style=""width:240px; margin: auto;"">
                                <img src=""images/gray_43.png"" style= ""width:200px""alt=""img"">
                            </div>
                        </div>","45","","0","images/gray_43.png","","","","playful"
"","","","","","html-slider-response","105","470432","0.0-101.0","hy5sqr6x93","NaN","<div style=""width:500px;"">
                            <p style=""font-size:50px; font-weight:bold;""
                            >playful</p>
                            <div style=""width:240px; margin: auto;"">
                                <img src=""images/gray_19.png"" style= ""width:200px""alt=""img"">
                            </div>
                        </div>","102","","0","images/gray_19.png","","","","playful"
"","","","","","html-slider-response","106","472303","0.0-102.0","hy5sqr6x93","NaN","<div style=""width:500px;"">
                            <p style=""font-size:50px; font-weight:bold;""
                            >playful</p>
                            <div style=""width:240px; margin: auto;"">
                                <img src=""images/gray_22.png"" style= ""width:200px""alt=""img"">
                            </div>
                        </div>","70","","0","images/gray_22.png","","","","playful"
"","","","","","html-slider-response","107","474348","0.0-103.0","hy5sqr6x93","NaN","<div style=""width:500px;"">
                            <p style=""font-size:50px; font-weight:bold;""
                            >playful</p>
                            <div style=""width:240px; margin: auto;"">
                                <img src=""images/gray_26.png"" style= ""width:200px""alt=""img"">
                            </div>
                        </div>","-133","","0","images/gray_26.png","","","","playful"
"","","","","","html-button-response","108","475867","0.0-104.0","hy5sqr6x93","1016","<p>Great Job! You've finished block 2.<br></br> You have 6 block(s) left to go.<br></br></p>","0","","","","","","",""
"","","","","","html-button-response","109","477378","0.0-105.0","hy5sqr6x93","1507","<p>In this block of trials, you will be asked to rate how much you associate each map with:</p > <p style = 'font-size:150%; font-weight: bold'>positive</p><br></br>","0","","","","","","",""
"","","","","","html-slider-response","110","481698","0.0-106.0","hy5sqr6x93","NaN","<div style=""width:500px;"">
                            <p style=""font-size:50px; font-weight:bold;""
                            >positive</p>
                            <div style=""width:240px; margin: auto;"">
                                <img src=""images/gray_43.png"" style= ""width:200px""alt=""img"">
                            </div>
                        </div>","138","","0","images/gray_43.png","","","","positive"
"","","","","","html-slider-response","111","483035","0.0-107.0","hy5sqr6x93","NaN","<div style=""width:500px;"">
                            <p style=""font-size:50px; font-weight:bold;""
                            >positive</p>
                            <div style=""width:240px; margin: auto;"">
                                <img src=""images/gray_27.png"" style= ""width:200px""alt=""img"">
                            </div>
                        </div>","192","","0","images/gray_27.png","","","","positive"
"","","","","","html-slider-response","112","484136","0.0-108.0","hy5sqr6x93","NaN","<div style=""width:500px;"">
                            <p style=""font-size:50px; font-weight:bold;""
                            >positive</p>
                            <div style=""width:240px; margin: auto;"">
                                <img src=""images/gray_06.png"" style= ""width:200px""alt=""img"">
                            </div>
                        </div>","192","","0","images/gray_06.png","","","","positive"
"","","","","","html-slider-response","113","485155","0.0-109.0","hy5sqr6x93","NaN","<div style=""width:500px;"">
                            <p style=""font-size:50px; font-weight:bold;""
                            >positive</p>
                            <div style=""width:240px; margin: auto;"">
                                <img src=""images/gray_20.png"" style= ""width:200px""alt=""img"">
                            </div>
                        </div>","192","","0","images/gray_20.png","","","","positive"
"","","","","","html-slider-response","114","486902","0.0-110.0","hy5sqr6x93","NaN","<div style=""width:500px;"">
                            <p style=""font-size:50px; font-weight:bold;""
                            >positive</p>
                            <div style=""width:240px; margin: auto;"">
                                <img src=""images/gray_26.png"" style= ""width:200px""alt=""img"">
                            </div>
                        </div>","199","","0","images/gray_26.png","","","","positive"
"","","","","","html-slider-response","115","487909","0.0-111.0","hy5sqr6x93","NaN","<div style=""width:500px;"">
                            <p style=""font-size:50px; font-weight:bold;""
                            >positive</p>
                            <div style=""width:240px; margin: auto;"">
                                <img src=""images/gray_44.png"" style= ""width:200px""alt=""img"">
                            </div>
                        </div>","199","","0","images/gray_44.png","","","","positive"
"","","","","","html-slider-response","116","488934","0.0-112.0","hy5sqr6x93","NaN","<div style=""width:500px;"">
                            <p style=""font-size:50px; font-weight:bold;""
                            >positive</p>
                            <div style=""width:240px; margin: auto;"">
                                <img src=""images/gray_16.png"" style= ""width:200px""alt=""img"">
                            </div>
                        </div>","199","","0","images/gray_16.png","","","","positive"
"","","","","","html-slider-response","117","489886","0.0-113.0","hy5sqr6x93","NaN","<div style=""width:500px;"">
                            <p style=""font-size:50px; font-weight:bold;""
                            >positive</p>
                            <div style=""width:240px; margin: auto;"">
                                <img src=""images/gray_31.png"" style= ""width:200px""alt=""img"">
                            </div>
                        </div>","199","","0","images/gray_31.png","","","","positive"
"","","","","","html-slider-response","118","490863","0.0-114.0","hy5sqr6x93","NaN","<div style=""width:500px;"">
                            <p style=""font-size:50px; font-weight:bold;""
                            >positive</p>
                            <div style=""width:240px; margin: auto;"">
                                <img src=""images/gray_28.png"" style= ""width:200px""alt=""img"">
                            </div>
                        </div>","146","","0","images/gray_28.png","","","","positive"
"","","","","","html-slider-response","119","491807","0.0-115.0","hy5sqr6x93","NaN","<div style=""width:500px;"">
                            <p style=""font-size:50px; font-weight:bold;""
                            >positive</p>
                            <div style=""width:240px; margin: auto;"">
                                <img src=""images/gray_25.png"" style= ""width:200px""alt=""img"">
                            </div>
                        </div>","160","","0","images/gray_25.png","","","","positive"
"","","","","","html-slider-response","120","492915","0.0-116.0","hy5sqr6x93","NaN","<div style=""width:500px;"">
                            <p style=""font-size:50px; font-weight:bold;""
                            >positive</p>
                            <div style=""width:240px; margin: auto;"">
                                <img src=""images/gray_13.png"" style= ""width:200px""alt=""img"">
                            </div>
                        </div>","114","","0","images/gray_13.png","","","","positive"
"","","","","","html-slider-response","121","493826","0.0-117.0","hy5sqr6x93","NaN","<div style=""width:500px;"">
                            <p style=""font-size:50px; font-weight:bold;""
                            >positive</p>
                            <div style=""width:240px; margin: auto;"">
                                <img src=""images/gray_19.png"" style= ""width:200px""alt=""img"">
                            </div>
                        </div>","171","","0","images/gray_19.png","","","","positive"
"","","","","","html-slider-response","122","494834","0.0-118.0","hy5sqr6x93","NaN","<div style=""width:500px;"">
                            <p style=""font-size:50px; font-weight:bold;""
                            >positive</p>
                            <div style=""width:240px; margin: auto;"">
                                <img src=""images/gray_12.png"" style= ""width:200px""alt=""img"">
                            </div>
                        </div>","142","","0","images/gray_12.png","","","","positive"
"","","","","","html-slider-response","123","495983","0.0-119.0","hy5sqr6x93","NaN","<div style=""width:500px;"">
                            <p style=""font-size:50px; font-weight:bold;""
                            >positive</p>
                            <div style=""width:240px; margin: auto;"">
                                <img src=""images/gray_02.png"" style= ""width:200px""alt=""img"">
                            </div>
                        </div>","168","","0","images/gray_02.png","","","","positive"
"","","","","","html-slider-response","124","497117","0.0-120.0","hy5sqr6x93","NaN","<div style=""width:500px;"">
                            <p style=""font-size:50px; font-weight:bold;""
                            >positive</p>
                            <div style=""width:240px; margin: auto;"">
                                <img src=""images/gray_40.png"" style= ""width:200px""alt=""img"">
                            </div>
                        </div>","158","","0","images/gray_40.png","","","","positive"
"","","","","","html-slider-response","125","498142","0.0-121.0","hy5sqr6x93","NaN","<div style=""width:500px;"">
                            <p style=""font-size:50px; font-weight:bold;""
                            >positive</p>
                            <div style=""width:240px; margin: auto;"">
                                <img src=""images/gray_35.png"" style= ""width:200px""alt=""img"">
                            </div>
                        </div>","176","","0","images/gray_35.png","","","","positive"
"","","","","","html-slider-response","126","499149","0.0-122.0","hy5sqr6x93","NaN","<div style=""width:500px;"">
                            <p style=""font-size:50px; font-weight:bold;""
                            >positive</p>
                            <div style=""width:240px; margin: auto;"">
                                <img src=""images/gray_38.png"" style= ""width:200px""alt=""img"">
                            </div>
                        </div>","142","","0","images/gray_38.png","","","","positive"
"","","","","","html-slider-response","127","500157","0.0-123.0","hy5sqr6x93","NaN","<div style=""width:500px;"">
                            <p style=""font-size:50px; font-weight:bold;""
                            >positive</p>
                            <div style=""width:240px; margin: auto;"">
                                <img src=""images/gray_22.png"" style= ""width:200px""alt=""img"">
                            </div>
                        </div>","182","","0","images/gray_22.png","","","","positive"
"","","","","","html-slider-response","128","501545","0.0-124.0","hy5sqr6x93","NaN","<div style=""width:500px;"">
                            <p style=""font-size:50px; font-weight:bold;""
                            >positive</p>
                            <div style=""width:240px; margin: auto;"">
                                <img src=""images/gray_14.png"" style= ""width:200px""alt=""img"">
                            </div>
                        </div>","180","","0","images/gray_14.png","","","","positive"
"","","","","","html-slider-response","129","502944","0.0-125.0","hy5sqr6x93","NaN","<div style=""width:500px;"">
                            <p style=""font-size:50px; font-weight:bold;""
                            >positive</p>
                            <div style=""width:240px; margin: auto;"">
                                <img src=""images/gray_08.png"" style= ""width:200px""alt=""img"">
                            </div>
                        </div>","184","","0","images/gray_08.png","","","","positive"
"","","","","","html-slider-response","130","504397","0.0-126.0","hy5sqr6x93","NaN","<div style=""width:500px;"">
                            <p style=""font-size:50px; font-weight:bold;""
                            >positive</p>
                            <div style=""width:240px; margin: auto;"">
                                <img src=""images/gray_07.png"" style= ""width:200px""alt=""img"">
                            </div>
                        </div>","184","","0","images/gray_07.png","","","","positive"
"","","","","","html-slider-response","131","506539","0.0-127.0","hy5sqr6x93","NaN","<div style=""width:500px;"">
                            <p style=""font-size:50px; font-weight:bold;""
                            >positive</p>
                            <div style=""width:240px; margin: auto;"">
                                <img src=""images/gray_21.png"" style= ""width:200px""alt=""img"">
                            </div>
                        </div>","198","","0","images/gray_21.png","","","","positive"
"","","","","","html-slider-response","132","507719","0.0-128.0","hy5sqr6x93","NaN","<div style=""width:500px;"">
                            <p style=""font-size:50px; font-weight:bold;""
                            >positive</p>
                            <div style=""width:240px; margin: auto;"">
                                <img src=""images/gray_36.png"" style= ""width:200px""alt=""img"">
                            </div>
                        </div>","126","","0","images/gray_36.png","","","","positive"
"","","","","","html-slider-response","133","509466","0.0-129.0","hy5sqr6x93","NaN","<div style=""width:500px;"">
                            <p style=""font-size:50px; font-weight:bold;""
                            >positive</p>
                            <div style=""width:240px; margin: auto;"">
                                <img src=""images/gray_33.png"" style= ""width:200px""alt=""img"">
                            </div>
                        </div>","185","","0","images/gray_33.png","","","","positive"
"","","","","","html-slider-response","134","510787","0.0-130.0","hy5sqr6x93","NaN","<div style=""width:500px;"">
                            <p style=""font-size:50px; font-weight:bold;""
                            >positive</p>
                            <div style=""width:240px; margin: auto;"">
                                <img src=""images/gray_39.png"" style= ""width:200px""alt=""img"">
                            </div>
                        </div>","198","","0","images/gray_39.png","","","","positive"
"","","","","","html-slider-response","135","512303","0.0-131.0","hy5sqr6x93","NaN","<div style=""width:500px;"">
                            <p style=""font-size:50px; font-weight:bold;""
                            >positive</p>
                            <div style=""width:240px; margin: auto;"">
                                <img src=""images/gray_23.png"" style= ""width:200px""alt=""img"">
                            </div>
                        </div>","120","","0","images/gray_23.png","","","","positive"
"","","","","","html-slider-response","136","513708","0.0-132.0","hy5sqr6x93","NaN","<div style=""width:500px;"">
                            <p style=""font-size:50px; font-weight:bold;""
                            >positive</p>
                            <div style=""width:240px; margin: auto;"">
                                <img src=""images/gray_10.png"" style= ""width:200px""alt=""img"">
                            </div>
                        </div>","154","","0","images/gray_10.png","","","","positive"
"","","","","","html-slider-response","137","515010","0.0-133.0","hy5sqr6x93","NaN","<div style=""width:500px;"">
                            <p style=""font-size:50px; font-weight:bold;""
                            >positive</p>
                            <div style=""width:240px; margin: auto;"">
                                <img src=""images/gray_09.png"" style= ""width:200px""alt=""img"">
                            </div>
                        </div>","168","","0","images/gray_09.png","","","","positive"
"","","","","","html-slider-response","138","516238","0.0-134.0","hy5sqr6x93","NaN","<div style=""width:500px;"">
                            <p style=""font-size:50px; font-weight:bold;""
                            >positive</p>
                            <div style=""width:240px; margin: auto;"">
                                <img src=""images/gray_24.png"" style= ""width:200px""alt=""img"">
                            </div>
                        </div>","184","","0","images/gray_24.png","","","","positive"
"","","","","","html-slider-response","139","517559","0.0-135.0","hy5sqr6x93","NaN","<div style=""width:500px;"">
                            <p style=""font-size:50px; font-weight:bold;""
                            >positive</p>
                            <div style=""width:240px; margin: auto;"">
                                <img src=""images/gray_32.png"" style= ""width:200px""alt=""img"">
                            </div>
                        </div>","114","","0","images/gray_32.png","","","","positive"
"","","","","","html-slider-response","140","518560","0.0-136.0","hy5sqr6x93","NaN","<div style=""width:500px;"">
                            <p style=""font-size:50px; font-weight:bold;""
                            >positive</p>
                            <div style=""width:240px; margin: auto;"">
                                <img src=""images/gray_05.png"" style= ""width:200px""alt=""img"">
                            </div>
                        </div>","144","","0","images/gray_05.png","","","","positive"
"","","","","","html-slider-response","141","519614","0.0-137.0","hy5sqr6x93","NaN","<div style=""width:500px;"">
                            <p style=""font-size:50px; font-weight:bold;""
                            >positive</p>
                            <div style=""width:240px; margin: auto;"">
                                <img src=""images/gray_29.png"" style= ""width:200px""alt=""img"">
                            </div>
                        </div>","167","","0","images/gray_29.png","","","","positive"
"","","","","","html-slider-response","142","521565","0.0-138.0","hy5sqr6x93","NaN","<div style=""width:500px;"">
                            <p style=""font-size:50px; font-weight:bold;""
                            >positive</p>
                            <div style=""width:240px; margin: auto;"">
                                <img src=""images/gray_42.png"" style= ""width:200px""alt=""img"">
                            </div>
                        </div>","198","","0","images/gray_42.png","","","","positive"
"","","","","","html-slider-response","143","522651","0.0-139.0","hy5sqr6x93","NaN","<div style=""width:500px;"">
                            <p style=""font-size:50px; font-weight:bold;""
                            >positive</p>
                            <div style=""width:240px; margin: auto;"">
                                <img src=""images/gray_41.png"" style= ""width:200px""alt=""img"">
                            </div>
                        </div>","94","","0","images/gray_41.png","","","","positive"
"","","","","","html-slider-response","144","524162","0.0-140.0","hy5sqr6x93","NaN","<div style=""width:500px;"">
                            <p style=""font-size:50px; font-weight:bold;""
                            >positive</p>
                            <div style=""width:240px; margin: auto;"">
                                <img src=""images/gray_34.png"" style= ""width:200px""alt=""img"">
                            </div>
                        </div>","112","","0","images/gray_34.png","","","","positive"
"","","","","","html-slider-response","145","525845","0.0-141.0","hy5sqr6x93","NaN","<div style=""width:500px;"">
                            <p style=""font-size:50px; font-weight:bold;""
                            >positive</p>
                            <div style=""width:240px; margin: auto;"">
                                <img src=""images/gray_04.png"" style= ""width:200px""alt=""img"">
                            </div>
                        </div>","118","","0","images/gray_04.png","","","","positive"
"","","","","","html-slider-response","146","528203","0.0-142.0","hy5sqr6x93","NaN","<div style=""width:500px;"">
                            <p style=""font-size:50px; font-weight:bold;""
                            >positive</p>
                            <div style=""width:240px; margin: auto;"">
                                <img src=""images/gray_11.png"" style= ""width:200px""alt=""img"">
                            </div>
                        </div>","138","","0","images/gray_11.png","","","","positive"
"","","","","","html-slider-response","147","531185","0.0-143.0","hy5sqr6x93","NaN","<div style=""width:500px;"">
                            <p style=""font-size:50px; font-weight:bold;""
                            >positive</p>
                            <div style=""width:240px; margin: auto;"">
                                <img src=""images/gray_30.png"" style= ""width:200px""alt=""img"">
                            </div>
                        </div>","187","","0","images/gray_30.png","","","","positive"
"","","","","","html-slider-response","148","533564","0.0-144.0","hy5sqr6x93","NaN","<div style=""width:500px;"">
                            <p style=""font-size:50px; font-weight:bold;""
                            >positive</p>
                            <div style=""width:240px; margin: auto;"">
                                <img src=""images/gray_37.png"" style= ""width:200px""alt=""img"">
                            </div>
                        </div>","194","","0","images/gray_37.png","","","","positive"
"","","","","","html-slider-response","149","534856","0.0-145.0","hy5sqr6x93","NaN","<div style=""width:500px;"">
                            <p style=""font-size:50px; font-weight:bold;""
                            >positive</p>
                            <div style=""width:240px; margin: auto;"">
                                <img src=""images/gray_01.png"" style= ""width:200px""alt=""img"">
                            </div>
                        </div>","112","","0","images/gray_01.png","","","","positive"
"","","","","","html-slider-response","150","536133","0.0-146.0","hy5sqr6x93","NaN","<div style=""width:500px;"">
                            <p style=""font-size:50px; font-weight:bold;""
                            >positive</p>
                            <div style=""width:240px; margin: auto;"">
                                <img src=""images/gray_18.png"" style= ""width:200px""alt=""img"">
                            </div>
                        </div>","187","","0","images/gray_18.png","","","","positive"
"","","","","","html-slider-response","151","537047","0.0-147.0","hy5sqr6x93","NaN","<div style=""width:500px;"">
                            <p style=""font-size:50px; font-weight:bold;""
                            >positive</p>
                            <div style=""width:240px; margin: auto;"">
                                <img src=""images/gray_03.png"" style= ""width:200px""alt=""img"">
                            </div>
                        </div>","162","","0","images/gray_03.png","","","","positive"
"","","","","","html-slider-response","152","538132","0.0-148.0","hy5sqr6x93","NaN","<div style=""width:500px;"">
                            <p style=""font-size:50px; font-weight:bold;""
                            >positive</p>
                            <div style=""width:240px; margin: auto;"">
                                <img src=""images/gray_15.png"" style= ""width:200px""alt=""img"">
                            </div>
                        </div>","181","","0","images/gray_15.png","","","","positive"
"","","","","","html-slider-response","153","539834","0.0-149.0","hy5sqr6x93","NaN","<div style=""width:500px;"">
                            <p style=""font-size:50px; font-weight:bold;""
                            >positive</p>
                            <div style=""width:240px; margin: auto;"">
                                <img src=""images/gray_17.png"" style= ""width:200px""alt=""img"">
                            </div>
                        </div>","199","","0","images/gray_17.png","","","","positive"
"","","","","","html-button-response","154","541449","0.0-150.0","hy5sqr6x93","1109","<p>Great Job! You've finished block 3.<br></br> You have 5 block(s) left to go.<br></br></p>","0","","","","","","",""
"","","","","","html-button-response","155","542938","0.0-151.0","hy5sqr6x93","1484","<p>In this block of trials, you will be asked to rate how much you associate each map with:</p > <p style = 'font-size:150%; font-weight: bold'>serious</p><br></br>","0","","","","","","",""
"","","","","","html-slider-response","156","566422","0.0-152.0","hy5sqr6x93","NaN","<div style=""width:500px;"">
                            <p style=""font-size:50px; font-weight:bold;""
                            >serious</p>
                            <div style=""width:240px; margin: auto;"">
                                <img src=""images/gray_19.png"" style= ""width:200px""alt=""img"">
                            </div>
                        </div>","126","","0","images/gray_19.png","","","","serious"
"","","","","","html-slider-response","157","568058","0.0-153.0","hy5sqr6x93","NaN","<div style=""width:500px;"">
                            <p style=""font-size:50px; font-weight:bold;""
                            >serious</p>
                            <div style=""width:240px; margin: auto;"">
                                <img src=""images/gray_17.png"" style= ""width:200px""alt=""img"">
                            </div>
                        </div>","137","","0","images/gray_17.png","","","","serious"
"","","","","","html-slider-response","158","570869","0.0-154.0","hy5sqr6x93","NaN","<div style=""width:500px;"">
                            <p style=""font-size:50px; font-weight:bold;""
                            >serious</p>
                            <div style=""width:240px; margin: auto;"">
                                <img src=""images/gray_18.png"" style= ""width:200px""alt=""img"">
                            </div>
                        </div>","149","","0","images/gray_18.png","","","","serious"
"","","","","","html-slider-response","159","572507","0.0-155.0","hy5sqr6x93","NaN","<div style=""width:500px;"">
                            <p style=""font-size:50px; font-weight:bold;""
                            >serious</p>
                            <div style=""width:240px; margin: auto;"">
                                <img src=""images/gray_35.png"" style= ""width:200px""alt=""img"">
                            </div>
                        </div>","112","","0","images/gray_35.png","","","","serious"
"","","","","","html-slider-response","160","574680","0.0-156.0","hy5sqr6x93","NaN","<div style=""width:500px;"">
                            <p style=""font-size:50px; font-weight:bold;""
                            >serious</p>
                            <div style=""width:240px; margin: auto;"">
                                <img src=""images/gray_21.png"" style= ""width:200px""alt=""img"">
                            </div>
                        </div>","30","","0","images/gray_21.png","","","","serious"
"","","","","","html-slider-response","161","578526","0.0-157.0","hy5sqr6x93","NaN","<div style=""width:500px;"">
                            <p style=""font-size:50px; font-weight:bold;""
                            >serious</p>
                            <div style=""width:240px; margin: auto;"">
                                <img src=""images/gray_38.png"" style= ""width:200px""alt=""img"">
                            </div>
                        </div>","123","","0","images/gray_38.png","","","","serious"
"","","","","","html-slider-response","162","579970","0.0-158.0","hy5sqr6x93","NaN","<div style=""width:500px;"">
                            <p style=""font-size:50px; font-weight:bold;""
                            >serious</p>
                            <div style=""width:240px; margin: auto;"">
                                <img src=""images/gray_01.png"" style= ""width:200px""alt=""img"">
                            </div>
                        </div>","162","","0","images/gray_01.png","","","","serious"
"","","","","","html-slider-response","163","584297","0.0-159.0","hy5sqr6x93","NaN","<div style=""width:500px;"">
                            <p style=""font-size:50px; font-weight:bold;""
                            >serious</p>
                            <div style=""width:240px; margin: auto;"">
                                <img src=""images/gray_32.png"" style= ""width:200px""alt=""img"">
                            </div>
                        </div>","134","","0","images/gray_32.png","","","","serious"
"","","","","","html-slider-response","164","586248","0.0-160.0","hy5sqr6x93","NaN","<div style=""width:500px;"">
                            <p style=""font-size:50px; font-weight:bold;""
                            >serious</p>
                            <div style=""width:240px; margin: auto;"">
                                <img src=""images/gray_42.png"" style= ""width:200px""alt=""img"">
                            </div>
                        </div>","147","","0","images/gray_42.png","","","","serious"
"","","","","","html-slider-response","165","590204","0.0-161.0","hy5sqr6x93","NaN","<div style=""width:500px;"">
                            <p style=""font-size:50px; font-weight:bold;""
                            >serious</p>
                            <div style=""width:240px; margin: auto;"">
                                <img src=""images/gray_22.png"" style= ""width:200px""alt=""img"">
                            </div>
                        </div>","158","","0","images/gray_22.png","","","","serious"
"","","","","","html-slider-response","166","592344","0.0-162.0","hy5sqr6x93","NaN","<div style=""width:500px;"">
                            <p style=""font-size:50px; font-weight:bold;""
                            >serious</p>
                            <div style=""width:240px; margin: auto;"">
                                <img src=""images/gray_40.png"" style= ""width:200px""alt=""img"">
                            </div>
                        </div>","155","","0","images/gray_40.png","","","","serious"
"","","","","","html-slider-response","167","594107","0.0-163.0","hy5sqr6x93","NaN","<div style=""width:500px;"">
                            <p style=""font-size:50px; font-weight:bold;""
                            >serious</p>
                            <div style=""width:240px; margin: auto;"">
                                <img src=""images/gray_39.png"" style= ""width:200px""alt=""img"">
                            </div>
                        </div>","170","","0","images/gray_39.png","","","","serious"
"","","","","","html-slider-response","168","611804","0.0-164.0","hy5sqr6x93","NaN","<div style=""width:500px;"">
                            <p style=""font-size:50px; font-weight:bold;""
                            >serious</p>
                            <div style=""width:240px; margin: auto;"">
                                <img src=""images/gray_14.png"" style= ""width:200px""alt=""img"">
                            </div>
                        </div>","46","","0","images/gray_14.png","","","","serious"
"","","","","","html-slider-response","169","615411","0.0-165.0","hy5sqr6x93","NaN","<div style=""width:500px;"">
                            <p style=""font-size:50px; font-weight:bold;""
                            >serious</p>
                            <div style=""width:240px; margin: auto;"">
                                <img src=""images/gray_09.png"" style= ""width:200px""alt=""img"">
                            </div>
                        </div>","169","","0","images/gray_09.png","","","","serious"
"","","","","","html-slider-response","170","617996","0.0-166.0","hy5sqr6x93","NaN","<div style=""width:500px;"">
                            <p style=""font-size:50px; font-weight:bold;""
                            >serious</p>
                            <div style=""width:240px; margin: auto;"">
                                <img src=""images/gray_43.png"" style= ""width:200px""alt=""img"">
                            </div>
                        </div>","180","","0","images/gray_43.png","","","","serious"
"","","","","","html-slider-response","171","619504","0.0-167.0","hy5sqr6x93","NaN","<div style=""width:500px;"">
                            <p style=""font-size:50px; font-weight:bold;""
                            >serious</p>
                            <div style=""width:240px; margin: auto;"">
                                <img src=""images/gray_31.png"" style= ""width:200px""alt=""img"">
                            </div>
                        </div>","112","","0","images/gray_31.png","","","","serious"
"","","","","","html-slider-response","172","621049","0.0-168.0","hy5sqr6x93","NaN","<div style=""width:500px;"">
                            <p style=""font-size:50px; font-weight:bold;""
                            >serious</p>
                            <div style=""width:240px; margin: auto;"">
                                <img src=""images/gray_07.png"" style= ""width:200px""alt=""img"">
                            </div>
                        </div>","138","","0","images/gray_07.png","","","","serious"
"","","","","","html-slider-response","173","625744","0.0-169.0","hy5sqr6x93","NaN","<div style=""width:500px;"">
                            <p style=""font-size:50px; font-weight:bold;""
                            >serious</p>
                            <div style=""width:240px; margin: auto;"">
                                <img src=""images/gray_16.png"" style= ""width:200px""alt=""img"">
                            </div>
                        </div>","56","","0","images/gray_16.png","","","","serious"
"","","","","","html-slider-response","174","627951","0.0-170.0","hy5sqr6x93","NaN","<div style=""width:500px;"">
                            <p style=""font-size:50px; font-weight:bold;""
                            >serious</p>
                            <div style=""width:240px; margin: auto;"">
                                <img src=""images/gray_12.png"" style= ""width:200px""alt=""img"">
                            </div>
                        </div>","131","","0","images/gray_12.png","","","","serious"
"","","","","","html-slider-response","175","629841","0.0-171.0","hy5sqr6x93","NaN","<div style=""width:500px;"">
                            <p style=""font-size:50px; font-weight:bold;""
                            >serious</p>
                            <div style=""width:240px; margin: auto;"">
                                <img src=""images/gray_27.png"" style= ""width:200px""alt=""img"">
                            </div>
                        </div>","149","","0","images/gray_27.png","","","","serious"
"","","","","","html-slider-response","176","633663","0.0-172.0","hy5sqr6x93","NaN","<div style=""width:500px;"">
                            <p style=""font-size:50px; font-weight:bold;""
                            >serious</p>
                            <div style=""width:240px; margin: auto;"">
                                <img src=""images/gray_20.png"" style= ""width:200px""alt=""img"">
                            </div>
                        </div>","170","","0","images/gray_20.png","","","","serious"
"","","","","","html-slider-response","177","635055","0.0-173.0","hy5sqr6x93","NaN","<div style=""width:500px;"">
                            <p style=""font-size:50px; font-weight:bold;""
                            >serious</p>
                            <div style=""width:240px; margin: auto;"">
                                <img src=""images/gray_06.png"" style= ""width:200px""alt=""img"">
                            </div>
                        </div>","128","","0","images/gray_06.png","","","","serious"
"","","","","","html-slider-response","178","636385","0.0-174.0","hy5sqr6x93","NaN","<div style=""width:500px;"">
                            <p style=""font-size:50px; font-weight:bold;""
                            >serious</p>
                            <div style=""width:240px; margin: auto;"">
                                <img src=""images/gray_37.png"" style= ""width:200px""alt=""img"">
                            </div>
                        </div>","156","","0","images/gray_37.png","","","","serious"
"","","","","","html-slider-response","179","638587","0.0-175.0","hy5sqr6x93","NaN","<div style=""width:500px;"">
                            <p style=""font-size:50px; font-weight:bold;""
                            >serious</p>
                            <div style=""width:240px; margin: auto;"">
                                <img src=""images/gray_33.png"" style= ""width:200px""alt=""img"">
                            </div>
                        </div>","174","","0","images/gray_33.png","","","","serious"
"","","","","","html-slider-response","180","640507","0.0-176.0","hy5sqr6x93","NaN","<div style=""width:500px;"">
                            <p style=""font-size:50px; font-weight:bold;""
                            >serious</p>
                            <div style=""width:240px; margin: auto;"">
                                <img src=""images/gray_24.png"" style= ""width:200px""alt=""img"">
                            </div>
                        </div>","156","","0","images/gray_24.png","","","","serious"
"","","","","","html-slider-response","181","642252","0.0-177.0","hy5sqr6x93","NaN","<div style=""width:500px;"">
                            <p style=""font-size:50px; font-weight:bold;""
                            >serious</p>
                            <div style=""width:240px; margin: auto;"">
                                <img src=""images/gray_41.png"" style= ""width:200px""alt=""img"">
                            </div>
                        </div>","173","","0","images/gray_41.png","","","","serious"
"","","","","","html-slider-response","182","644988","0.0-178.0","hy5sqr6x93","NaN","<div style=""width:500px;"">
                            <p style=""font-size:50px; font-weight:bold;""
                            >serious</p>
                            <div style=""width:240px; margin: auto;"">
                                <img src=""images/gray_26.png"" style= ""width:200px""alt=""img"">
                            </div>
                        </div>","110","","0","images/gray_26.png","","","","serious"
"","","","","","html-slider-response","183","646547","0.0-179.0","hy5sqr6x93","NaN","<div style=""width:500px;"">
                            <p style=""font-size:50px; font-weight:bold;""
                            >serious</p>
                            <div style=""width:240px; margin: auto;"">
                                <img src=""images/gray_44.png"" style= ""width:200px""alt=""img"">
                            </div>
                        </div>","165","","0","images/gray_44.png","","","","serious"
"","","","","","html-slider-response","184","651286","0.0-180.0","hy5sqr6x93","NaN","<div style=""width:500px;"">
                            <p style=""font-size:50px; font-weight:bold;""
                            >serious</p>
                            <div style=""width:240px; margin: auto;"">
                                <img src=""images/gray_05.png"" style= ""width:200px""alt=""img"">
                            </div>
                        </div>","196","","0","images/gray_05.png","","","","serious"
"","","","","","html-slider-response","185","653251","0.0-181.0","hy5sqr6x93","NaN","<div style=""width:500px;"">
                            <p style=""font-size:50px; font-weight:bold;""
                            >serious</p>
                            <div style=""width:240px; margin: auto;"">
                                <img src=""images/gray_29.png"" style= ""width:200px""alt=""img"">
                            </div>
                        </div>","54","","0","images/gray_29.png","","","","serious"
"","","","","","html-slider-response","186","655502","0.0-182.0","hy5sqr6x93","NaN","<div style=""width:500px;"">
                            <p style=""font-size:50px; font-weight:bold;""
                            >serious</p>
                            <div style=""width:240px; margin: auto;"">
                                <img src=""images/gray_10.png"" style= ""width:200px""alt=""img"">
                            </div>
                        </div>","173","","0","images/gray_10.png","","","","serious"
"","","","","","html-slider-response","187","657132","0.0-183.0","hy5sqr6x93","NaN","<div style=""width:500px;"">
                            <p style=""font-size:50px; font-weight:bold;""
                            >serious</p>
                            <div style=""width:240px; margin: auto;"">
                                <img src=""images/gray_34.png"" style= ""width:200px""alt=""img"">
                            </div>
                        </div>","117","","0","images/gray_34.png","","","","serious"
"","","","","","html-slider-response","188","659242","0.0-184.0","hy5sqr6x93","NaN","<div style=""width:500px;"">
                            <p style=""font-size:50px; font-weight:bold;""
                            >serious</p>
                            <div style=""width:240px; margin: auto;"">
                                <img src=""images/gray_28.png"" style= ""width:200px""alt=""img"">
                            </div>
                        </div>","59","","0","images/gray_28.png","","","","serious"
"","","","","","html-slider-response","189","661440","0.0-185.0","hy5sqr6x93","NaN","<div style=""width:500px;"">
                            <p style=""font-size:50px; font-weight:bold;""
                            >serious</p>
                            <div style=""width:240px; margin: auto;"">
                                <img src=""images/gray_30.png"" style= ""width:200px""alt=""img"">
                            </div>
                        </div>","197","","0","images/gray_30.png","","","","serious"
"","","","","","html-slider-response","190","663452","0.0-186.0","hy5sqr6x93","NaN","<div style=""width:500px;"">
                            <p style=""font-size:50px; font-weight:bold;""
                            >serious</p>
                            <div style=""width:240px; margin: auto;"">
                                <img src=""images/gray_11.png"" style= ""width:200px""alt=""img"">
                            </div>
                        </div>","189","","0","images/gray_11.png","","","","serious"
"","","","","","html-slider-response","191","666337","0.0-187.0","hy5sqr6x93","NaN","<div style=""width:500px;"">
                            <p style=""font-size:50px; font-weight:bold;""
                            >serious</p>
                            <div style=""width:240px; margin: auto;"">
                                <img src=""images/gray_36.png"" style= ""width:200px""alt=""img"">
                            </div>
                        </div>","20","","0","images/gray_36.png","","","","serious"
"","","","","","html-slider-response","192","667896","0.0-188.0","hy5sqr6x93","NaN","<div style=""width:500px;"">
                            <p style=""font-size:50px; font-weight:bold;""
                            >serious</p>
                            <div style=""width:240px; margin: auto;"">
                                <img src=""images/gray_15.png"" style= ""width:200px""alt=""img"">
                            </div>
                        </div>","105","","0","images/gray_15.png","","","","serious"
"","","","","","html-slider-response","193","669376","0.0-189.0","hy5sqr6x93","NaN","<div style=""width:500px;"">
                            <p style=""font-size:50px; font-weight:bold;""
                            >serious</p>
                            <div style=""width:240px; margin: auto;"">
                                <img src=""images/gray_02.png"" style= ""width:200px""alt=""img"">
                            </div>
                        </div>","133","","0","images/gray_02.png","","","","serious"
"","","","","","html-slider-response","194","671612","0.0-190.0","hy5sqr6x93","NaN","<div style=""width:500px;"">
                            <p style=""font-size:50px; font-weight:bold;""
                            >serious</p>
                            <div style=""width:240px; margin: auto;"">
                                <img src=""images/gray_03.png"" style= ""width:200px""alt=""img"">
                            </div>
                        </div>","165","","0","images/gray_03.png","","","","serious"
"","","","","","html-slider-response","195","673770","0.0-191.0","hy5sqr6x93","NaN","<div style=""width:500px;"">
                            <p style=""font-size:50px; font-weight:bold;""
                            >serious</p>
                            <div style=""width:240px; margin: auto;"">
                                <img src=""images/gray_04.png"" style= ""width:200px""alt=""img"">
                            </div>
                        </div>","180","","0","images/gray_04.png","","","","serious"
"","","","","","html-slider-response","196","677169","0.0-192.0","hy5sqr6x93","NaN","<div style=""width:500px;"">
                            <p style=""font-size:50px; font-weight:bold;""
                            >serious</p>
                            <div style=""width:240px; margin: auto;"">
                                <img src=""images/gray_13.png"" style= ""width:200px""alt=""img"">
                            </div>
                        </div>","186","","0","images/gray_13.png","","","","serious"
"","","","","","html-slider-response","197","678502","0.0-193.0","hy5sqr6x93","NaN","<div style=""width:500px;"">
                            <p style=""font-size:50px; font-weight:bold;""
                            >serious</p>
                            <div style=""width:240px; margin: auto;"">
                                <img src=""images/gray_25.png"" style= ""width:200px""alt=""img"">
                            </div>
                        </div>","186","","0","images/gray_25.png","","","","serious"
"","","","","","html-slider-response","198","679729","0.0-194.0","hy5sqr6x93","NaN","<div style=""width:500px;"">
                            <p style=""font-size:50px; font-weight:bold;""
                            >serious</p>
                            <div style=""width:240px; margin: auto;"">
                                <img src=""images/gray_23.png"" style= ""width:200px""alt=""img"">
                            </div>
                        </div>","186","","0","images/gray_23.png","","","","serious"
