"success","timeout","failed_images","failed_audio","failed_video","trial_type","trial_index","time_elapsed","internal_node_id","subject_id","rt","stimulus","response","question_order","slider_start","image_path","practiceTrial","practiceTrialNum","correct","concept"
"true","false","[]","[]","[]","preload","0","1251","0.0-0.0","j4jm7rews8","","","","","","","","","",""
"","","","","","html-button-response","1","6360","0.0-1.0","j4jm7rews8","5108","Welcome to our experiment!<p>At the bottom of this screen, you will see a button that says ""Begin Experiment"".<br>Please only click that button when you are ready to complete the 25 minute experiment in one sitting.</p><p> Once you click that button, it will not be possible to restart the experiment.","0","","","","","","",""
"true","","","","","fullscreen","2","10659","0.0-2.0","j4jm7rews8","3296","","","","","","","","",""
"","","","","","survey-multi-select","3","70893","0.0-3.0","j4jm7rews8","60233","","{""Consent"":[""<strong>I consent</strong>""]}","[0]","","","","","",""
"","","","","","html-button-response","4","72574","0.0-4.0","j4jm7rews8","1676","Welcome! <p> This experiment involves two parts: demographic information, followed by the experimental task.<p> It will take about 25 minutes to complete both parts.","0","","","","","","",""
"","","","","","survey-text","5","87194","0.0-5.0","j4jm7rews8","14611","","{""Age"":""18"",""Gender"":""Female"",""Race/ethnicity"":""Caucasian"",""Languages"":""English ""}","","","","","","",""
"","","","","","html-slider-response","6","142725","0.0-6.0","j4jm7rews8","55532","
            <div style='text-align:left; font-size:20px; line-height:25px; width: 1200px;'>
                During this experiment you will be asked to rate how much you associate maps with    different concepts.<br> Below, you can see some examples of the maps you will be asked to rate. Next to the maps
    is the list of concepts.<br>You will be asked    to rate how much you associate each map with each concept on a scale from 'not at all' to 'very much' like the
    one below. <br><br>
    Now, please look at the list of concepts and maps. For each concept, think about the map you associate 'very
    much' with the concept.<br>     When you see that map during the experiment, please rate it near the 'very much' endpoint of the
    scale.<br>Now, please think about which map you associate 'not at all'     with each concept. When you see that map during the experiment, please rate it near the 'not at all' endpoint
    of the scale.<br>
    Please use the full range of the scale. That is, if a map is somewhat associated with the concept, you would
    click partway between the middle point and right side of the scale.    You will be asked to rate each map for a given concept before moving on to the next concept.<br><br>Press the
    'Continue' button for instructions on how to use the slider.    <br><br>
</div>

<div style=""width: 500px; margin: 0 auto;"">
    <div style=""text-align: left; width: 200px; float: left;"">
        <p style=""font-size:25px; line-height:18px;"">calm</p>
        <p style=""font-size:25px; line-height:18px;"">exciting</p>
        <p style=""font-size:25px;line-height:18px;"">positive</p>
        <p style=""font-size:25px;line-height:18px;"">negative</p>
        <p style=""font-size:25px;line-height:18px;"">serious</p>
        <p style=""font-size:25px;line-height:18px;"">playful</p>
        <p style=""font-size:25px;line-height:18px;"">trustworthy</p>
        <p style=""font-size:25px;line-height:18px;"">disturbing</p>
    </div>
    <div style=""width: 200px; float: right; padding-top:15px; padding-right:40px"">
        <br>
        <br>
        <img src=""maps_anchoring.png"" alt=""img"" style=""max-width:500px"">
    </div>
    <div style=""clear: both;""></div>
</div>
            ","null","","0","maps_anchoring.png","true","","",""
"","","","","","html-button-response","7","156279","0.0-7.0","j4jm7rews8","13553","<div style=""width:800px;""><p style=""text-align:left"">To move the slider, click and drag your cursor to the location of the scale where you would like to make your rating and then let go. When you let go of the slider, your response will be recorded and the next trial will begin. <br>
            We are interested in your initial impressions of each map for the given concept, so please go with your first intuition. <br>
            Before you begin the experiment, there will be four training trials for you to practice using the scale. <br>
             When you are ready to start the training trials, please click ""Continue"".</p><br></div>","0","","","","","","",""
"","","","","","html-slider-response","8","160472","0.0-8.0-0.0","j4jm7rews8","NaN","<div style=""width:500px;"">
                            <p style=""font-size:25px;"">Please move the slider all the way to the <br> right endpoint of the scale</p>

                            </div>
                        </div>","200","","0","","true","0","true",""
"","","","","","html-button-response","9","162508","0.0-8.0-1.0","j4jm7rews8","1531","<p align='center'><b>Good job!</b> Click on 'Continue' to proceed.</p>","0","","","","","","",""
"","","","","","html-slider-response","10","164571","0.0-9.0-0.0","j4jm7rews8","NaN","<div style=""width:500px;"">
                            <p style=""font-size:25px;"">Please move the slider all the way to the <br> left endpoint of the scale</p>

                            </div>
                        </div>","-200","","0","","true","1","true",""
"","","","","","html-button-response","11","165858","0.0-9.0-1.0","j4jm7rews8","784","<p align='center'><b>Good job!</b> Click on 'Continue' to proceed.</p>","0","","","","","","",""
"","","","","","html-slider-response","12","172170","0.0-10.0-0.0","j4jm7rews8","NaN","<div style=""width:500px;"">
                            <p style=""font-size:25px;"">Please move the slider halfway between the center and right endpoint of the scale</p>

                            </div>
                        </div>","109","","0","","true","2","true",""
"","","","","","html-button-response","13","173625","0.0-10.0-1.0","j4jm7rews8","953","<p align='center'><b>Good job!</b> Click on 'Continue' to proceed.</p>","0","","","","","","",""
"","","","","","html-slider-response","14","177278","0.0-11.0-0.0","j4jm7rews8","NaN","<div style=""width:500px;"">
                            <p style=""font-size:25px;"">Please move the slider halfway between the center and left endpoint of the scale</p>

                            </div>
                        </div>","-114","","0","","true","3","false",""
"","","","","","html-button-response","15","179859","0.0-11.0-1.0","j4jm7rews8","2078","<p align='center'><b>Not quite!</b> The slider was not placed near the instructed located. Click on 'Continue' to try again. </p>","0","","","","","","",""
"","","","","","html-slider-response","16","183841","0.0-11.1-0.1","j4jm7rews8","NaN","<div style=""width:500px;"">
                            <p style=""font-size:25px;"">Please move the slider halfway between the center and left endpoint of the scale</p>

                            </div>
                        </div>","-107","","0","","true","3","true",""
"","","","","","html-button-response","17","185392","0.0-11.1-1.1","j4jm7rews8","1048","<p align='center'><b>Good job!</b> Click on 'Continue' to proceed.</p>","0","","","","","","",""
"","","","","","html-button-response","18","186643","0.0-12.0","j4jm7rews8","1251","<p>Great job! You've completed the practice trials. Now you will begin the main task.</p>","0","","","","","","",""
"","","","","","html-button-response","19","190429","0.0-13.0","j4jm7rews8","3785","<p>In this block of trials, you will be asked to rate how much you associate each map with:</p > <p style = 'font-size:150%; font-weight: bold'>positive</p><br></br>","0","","","","","","",""
"","","","","","html-slider-response","20","194941","0.0-14.0","j4jm7rews8","NaN","<div style=""width:500px;"">
                            <p style=""font-size:50px; font-weight:bold;""
                            >positive</p>
                            <div style=""width:240px; margin: auto;"">
                                <img src=""images/gray_33.png"" style= ""width:200px""alt=""img"">
                            </div>
                        </div>","-130","","0","images/gray_33.png","","","","positive"
"","","","","","html-slider-response","21","201086","0.0-15.0","j4jm7rews8","NaN","<div style=""width:500px;"">
                            <p style=""font-size:50px; font-weight:bold;""
                            >positive</p>
                            <div style=""width:240px; margin: auto;"">
                                <img src=""images/gray_15.png"" style= ""width:200px""alt=""img"">
                            </div>
                        </div>","-90","","0","images/gray_15.png","","","","positive"
"","","","","","html-slider-response","22","206005","0.0-16.0","j4jm7rews8","NaN","<div style=""width:500px;"">
                            <p style=""font-size:50px; font-weight:bold;""
                            >positive</p>
                            <div style=""width:240px; margin: auto;"">
                                <img src=""images/gray_24.png"" style= ""width:200px""alt=""img"">
                            </div>
                        </div>","37","","0","images/gray_24.png","","","","positive"
"","","","","","html-slider-response","23","213571","0.0-17.0","j4jm7rews8","NaN","<div style=""width:500px;"">
                            <p style=""font-size:50px; font-weight:bold;""
                            >positive</p>
                            <div style=""width:240px; margin: auto;"">
                                <img src=""images/gray_32.png"" style= ""width:200px""alt=""img"">
                            </div>
                        </div>","-81","","0","images/gray_32.png","","","","positive"
"","","","","","html-slider-response","24","216870","0.0-18.0","j4jm7rews8","NaN","<div style=""width:500px;"">
                            <p style=""font-size:50px; font-weight:bold;""
                            >positive</p>
                            <div style=""width:240px; margin: auto;"">
                                <img src=""images/gray_10.png"" style= ""width:200px""alt=""img"">
                            </div>
                        </div>","-134","","0","images/gray_10.png","","","","positive"
"","","","","","html-slider-response","25","221838","0.0-19.0","j4jm7rews8","NaN","<div style=""width:500px;"">
                            <p style=""font-size:50px; font-weight:bold;""
                            >positive</p>
                            <div style=""width:240px; margin: auto;"">
                                <img src=""images/gray_12.png"" style= ""width:200px""alt=""img"">
                            </div>
                        </div>","92","","0","images/gray_12.png","","","","positive"
"","","","","","html-slider-response","26","227604","0.0-20.0","j4jm7rews8","NaN","<div style=""width:500px;"">
                            <p style=""font-size:50px; font-weight:bold;""
                            >positive</p>
                            <div style=""width:240px; margin: auto;"">
                                <img src=""images/gray_22.png"" style= ""width:200px""alt=""img"">
                            </div>
                        </div>","126","","0","images/gray_22.png","","","","positive"
"","","","","","html-slider-response","27","234423","0.0-21.0","j4jm7rews8","NaN","<div style=""width:500px;"">
                            <p style=""font-size:50px; font-weight:bold;""
                            >positive</p>
                            <div style=""width:240px; margin: auto;"">
                                <img src=""images/gray_35.png"" style= ""width:200px""alt=""img"">
                            </div>
                        </div>","-98","","0","images/gray_35.png","","","","positive"
"","","","","","html-slider-response","28","243937","0.0-22.0","j4jm7rews8","NaN","<div style=""width:500px;"">
                            <p style=""font-size:50px; font-weight:bold;""
                            >positive</p>
                            <div style=""width:240px; margin: auto;"">
                                <img src=""images/gray_39.png"" style= ""width:200px""alt=""img"">
                            </div>
                        </div>","163","","0","images/gray_39.png","","","","positive"
"","","","","","html-slider-response","29","247522","0.0-23.0","j4jm7rews8","NaN","<div style=""width:500px;"">
                            <p style=""font-size:50px; font-weight:bold;""
                            >positive</p>
                            <div style=""width:240px; margin: auto;"">
                                <img src=""images/gray_08.png"" style= ""width:200px""alt=""img"">
                            </div>
                        </div>","-188","","0","images/gray_08.png","","","","positive"
"","","","","","html-slider-response","30","251106","0.0-24.0","j4jm7rews8","NaN","<div style=""width:500px;"">
                            <p style=""font-size:50px; font-weight:bold;""
                            >positive</p>
                            <div style=""width:240px; margin: auto;"">
                                <img src=""images/gray_03.png"" style= ""width:200px""alt=""img"">
                            </div>
                        </div>","-103","","0","images/gray_03.png","","","","positive"
"","","","","","html-slider-response","31","254854","0.0-25.0","j4jm7rews8","NaN","<div style=""width:500px;"">
                            <p style=""font-size:50px; font-weight:bold;""
                            >positive</p>
                            <div style=""width:240px; margin: auto;"">
                                <img src=""images/gray_23.png"" style= ""width:200px""alt=""img"">
                            </div>
                        </div>","-159","","0","images/gray_23.png","","","","positive"
"","","","","","html-slider-response","32","260271","0.0-26.0","j4jm7rews8","NaN","<div style=""width:500px;"">
                            <p style=""font-size:50px; font-weight:bold;""
                            >positive</p>
                            <div style=""width:240px; margin: auto;"">
                                <img src=""images/gray_41.png"" style= ""width:200px""alt=""img"">
                            </div>
                        </div>","-47","","0","images/gray_41.png","","","","positive"
"","","","","","html-slider-response","33","263722","0.0-27.0","j4jm7rews8","NaN","<div style=""width:500px;"">
                            <p style=""font-size:50px; font-weight:bold;""
                            >positive</p>
                            <div style=""width:240px; margin: auto;"">
                                <img src=""images/gray_36.png"" style= ""width:200px""alt=""img"">
                            </div>
                        </div>","-155","","0","images/gray_36.png","","","","positive"
"","","","","","html-slider-response","34","269806","0.0-28.0","j4jm7rews8","NaN","<div style=""width:500px;"">
                            <p style=""font-size:50px; font-weight:bold;""
                            >positive</p>
                            <div style=""width:240px; margin: auto;"">
                                <img src=""images/gray_38.png"" style= ""width:200px""alt=""img"">
                            </div>
                        </div>","-30","","0","images/gray_38.png","","","","positive"
"","","","","","html-slider-response","35","274805","0.0-29.0","j4jm7rews8","NaN","<div style=""width:500px;"">
                            <p style=""font-size:50px; font-weight:bold;""
                            >positive</p>
                            <div style=""width:240px; margin: auto;"">
                                <img src=""images/gray_11.png"" style= ""width:200px""alt=""img"">
                            </div>
                        </div>","-70","","0","images/gray_11.png","","","","positive"
"","","","","","html-slider-response","36","282304","0.0-30.0","j4jm7rews8","NaN","<div style=""width:500px;"">
                            <p style=""font-size:50px; font-weight:bold;""
                            >positive</p>
                            <div style=""width:240px; margin: auto;"">
                                <img src=""images/gray_42.png"" style= ""width:200px""alt=""img"">
                            </div>
                        </div>","26","","0","images/gray_42.png","","","","positive"
"","","","","","html-slider-response","37","286353","0.0-31.0","j4jm7rews8","NaN","<div style=""width:500px;"">
                            <p style=""font-size:50px; font-weight:bold;""
                            >positive</p>
                            <div style=""width:240px; margin: auto;"">
                                <img src=""images/gray_20.png"" style= ""width:200px""alt=""img"">
                            </div>
                        </div>","-125","","0","images/gray_20.png","","","","positive"
"","","","","","html-slider-response","38","289572","0.0-32.0","j4jm7rews8","NaN","<div style=""width:500px;"">
                            <p style=""font-size:50px; font-weight:bold;""
                            >positive</p>
                            <div style=""width:240px; margin: auto;"">
                                <img src=""images/gray_01.png"" style= ""width:200px""alt=""img"">
                            </div>
                        </div>","-94","","0","images/gray_01.png","","","","positive"
"","","","","","html-slider-response","39","291872","0.0-33.0","j4jm7rews8","NaN","<div style=""width:500px;"">
                            <p style=""font-size:50px; font-weight:bold;""
                            >positive</p>
                            <div style=""width:240px; margin: auto;"">
                                <img src=""images/gray_44.png"" style= ""width:200px""alt=""img"">
                            </div>
                        </div>","-59","","0","images/gray_44.png","","","","positive"
"","","","","","html-slider-response","40","294775","0.0-34.0","j4jm7rews8","NaN","<div style=""width:500px;"">
                            <p style=""font-size:50px; font-weight:bold;""
                            >positive</p>
                            <div style=""width:240px; margin: auto;"">
                                <img src=""images/gray_28.png"" style= ""width:200px""alt=""img"">
                            </div>
                        </div>","-159","","0","images/gray_28.png","","","","positive"
"","","","","","html-slider-response","41","299010","0.0-35.0","j4jm7rews8","NaN","<div style=""width:500px;"">
                            <p style=""font-size:50px; font-weight:bold;""
                            >positive</p>
                            <div style=""width:240px; margin: auto;"">
                                <img src=""images/gray_31.png"" style= ""width:200px""alt=""img"">
                            </div>
                        </div>","66","","0","images/gray_31.png","","","","positive"
"","","","","","html-slider-response","42","304888","0.0-36.0","j4jm7rews8","NaN","<div style=""width:500px;"">
                            <p style=""font-size:50px; font-weight:bold;""
                            >positive</p>
                            <div style=""width:240px; margin: auto;"">
                                <img src=""images/gray_14.png"" style= ""width:200px""alt=""img"">
                            </div>
                        </div>","-121","","0","images/gray_14.png","","","","positive"
"","","","","","html-slider-response","43","308087","0.0-37.0","j4jm7rews8","NaN","<div style=""width:500px;"">
                            <p style=""font-size:50px; font-weight:bold;""
                            >positive</p>
                            <div style=""width:240px; margin: auto;"">
                                <img src=""images/gray_05.png"" style= ""width:200px""alt=""img"">
                            </div>
                        </div>","-181","","0","images/gray_05.png","","","","positive"
"","","","","","html-slider-response","44","310943","0.0-38.0","j4jm7rews8","NaN","<div style=""width:500px;"">
                            <p style=""font-size:50px; font-weight:bold;""
                            >positive</p>
                            <div style=""width:240px; margin: auto;"">
                                <img src=""images/gray_16.png"" style= ""width:200px""alt=""img"">
                            </div>
                        </div>","-180","","0","images/gray_16.png","","","","positive"
"","","","","","html-slider-response","45","318221","0.0-39.0","j4jm7rews8","NaN","<div style=""width:500px;"">
                            <p style=""font-size:50px; font-weight:bold;""
                            >positive</p>
                            <div style=""width:240px; margin: auto;"">
                                <img src=""images/gray_29.png"" style= ""width:200px""alt=""img"">
                            </div>
                        </div>","-80","","0","images/gray_29.png","","","","positive"
"","","","","","html-slider-response","46","321055","0.0-40.0","j4jm7rews8","NaN","<div style=""width:500px;"">
                            <p style=""font-size:50px; font-weight:bold;""
                            >positive</p>
                            <div style=""width:240px; margin: auto;"">
                                <img src=""images/gray_40.png"" style= ""width:200px""alt=""img"">
                            </div>
                        </div>","-178","","0","images/gray_40.png","","","","positive"
"","","","","","html-slider-response","47","325222","0.0-41.0","j4jm7rews8","NaN","<div style=""width:500px;"">
                            <p style=""font-size:50px; font-weight:bold;""
                            >positive</p>
                            <div style=""width:240px; margin: auto;"">
                                <img src=""images/gray_21.png"" style= ""width:200px""alt=""img"">
                            </div>
                        </div>","-100","","0","images/gray_21.png","","","","positive"
"","","","","","html-slider-response","48","329327","0.0-42.0","j4jm7rews8","NaN","<div style=""width:500px;"">
                            <p style=""font-size:50px; font-weight:bold;""
                            >positive</p>
                            <div style=""width:240px; margin: auto;"">
                                <img src=""images/gray_30.png"" style= ""width:200px""alt=""img"">
                            </div>
                        </div>","-199","","0","images/gray_30.png","","","","positive"
"","","","","","html-slider-response","49","331922","0.0-43.0","j4jm7rews8","NaN","<div style=""width:500px;"">
                            <p style=""font-size:50px; font-weight:bold;""
                            >positive</p>
                            <div style=""width:240px; margin: auto;"">
                                <img src=""images/gray_09.png"" style= ""width:200px""alt=""img"">
                            </div>
                        </div>","-150","","0","images/gray_09.png","","","","positive"
"","","","","","html-slider-response","50","334840","0.0-44.0","j4jm7rews8","NaN","<div style=""width:500px;"">
                            <p style=""font-size:50px; font-weight:bold;""
                            >positive</p>
                            <div style=""width:240px; margin: auto;"">
                                <img src=""images/gray_18.png"" style= ""width:200px""alt=""img"">
                            </div>
                        </div>","33","","0","images/gray_18.png","","","","positive"
"","","","","","html-slider-response","51","337522","0.0-45.0","j4jm7rews8","NaN","<div style=""width:500px;"">
                            <p style=""font-size:50px; font-weight:bold;""
                            >positive</p>
                            <div style=""width:240px; margin: auto;"">
                                <img src=""images/gray_26.png"" style= ""width:200px""alt=""img"">
                            </div>
                        </div>","-189","","0","images/gray_26.png","","","","positive"
"","","","","","html-slider-response","52","340672","0.0-46.0","j4jm7rews8","NaN","<div style=""width:500px;"">
                            <p style=""font-size:50px; font-weight:bold;""
                            >positive</p>
                            <div style=""width:240px; margin: auto;"">
                                <img src=""images/gray_43.png"" style= ""width:200px""alt=""img"">
                            </div>
                        </div>","-152","","0","images/gray_43.png","","","","positive"
"","","","","","html-slider-response","53","343756","0.0-47.0","j4jm7rews8","NaN","<div style=""width:500px;"">
                            <p style=""font-size:50px; font-weight:bold;""
                            >positive</p>
                            <div style=""width:240px; margin: auto;"">
                                <img src=""images/gray_27.png"" style= ""width:200px""alt=""img"">
                            </div>
                        </div>","-200","","0","images/gray_27.png","","","","positive"
"","","","","","html-slider-response","54","346624","0.0-48.0","j4jm7rews8","NaN","<div style=""width:500px;"">
                            <p style=""font-size:50px; font-weight:bold;""
                            >positive</p>
                            <div style=""width:240px; margin: auto;"">
                                <img src=""images/gray_34.png"" style= ""width:200px""alt=""img"">
                            </div>
                        </div>","-73","","0","images/gray_34.png","","","","positive"
"","","","","","html-slider-response","55","349827","0.0-49.0","j4jm7rews8","NaN","<div style=""width:500px;"">
                            <p style=""font-size:50px; font-weight:bold;""
                            >positive</p>
                            <div style=""width:240px; margin: auto;"">
                                <img src=""images/gray_13.png"" style= ""width:200px""alt=""img"">
                            </div>
                        </div>","-140","","0","images/gray_13.png","","","","positive"
"","","","","","html-slider-response","56","352412","0.0-50.0","j4jm7rews8","NaN","<div style=""width:500px;"">
                            <p style=""font-size:50px; font-weight:bold;""
                            >positive</p>
                            <div style=""width:240px; margin: auto;"">
                                <img src=""images/gray_02.png"" style= ""width:200px""alt=""img"">
                            </div>
                        </div>","-150","","0","images/gray_02.png","","","","positive"
"","","","","","html-slider-response","57","355773","0.0-51.0","j4jm7rews8","NaN","<div style=""width:500px;"">
                            <p style=""font-size:50px; font-weight:bold;""
                            >positive</p>
                            <div style=""width:240px; margin: auto;"">
                                <img src=""images/gray_07.png"" style= ""width:200px""alt=""img"">
                            </div>
                        </div>","-198","","0","images/gray_07.png","","","","positive"
"","","","","","html-slider-response","58","359255","0.0-52.0","j4jm7rews8","NaN","<div style=""width:500px;"">
                            <p style=""font-size:50px; font-weight:bold;""
                            >positive</p>
                            <div style=""width:240px; margin: auto;"">
                                <img src=""images/gray_37.png"" style= ""width:200px""alt=""img"">
                            </div>
                        </div>","-196","","0","images/gray_37.png","","","","positive"
"","","","","","html-slider-response","59","362243","0.0-53.0","j4jm7rews8","NaN","<div style=""width:500px;"">
                            <p style=""font-size:50px; font-weight:bold;""
                            >positive</p>
                            <div style=""width:240px; margin: auto;"">
                                <img src=""images/gray_04.png"" style= ""width:200px""alt=""img"">
                            </div>
                        </div>","-190","","0","images/gray_04.png","","","","positive"
"","","","","","html-slider-response","60","365495","0.0-54.0","j4jm7rews8","NaN","<div style=""width:500px;"">
                            <p style=""font-size:50px; font-weight:bold;""
                            >positive</p>
                            <div style=""width:240px; margin: auto;"">
                                <img src=""images/gray_25.png"" style= ""width:200px""alt=""img"">
                            </div>
                        </div>","-192","","0","images/gray_25.png","","","","positive"
"","","","","","html-slider-response","61","368042","0.0-55.0","j4jm7rews8","NaN","<div style=""width:500px;"">
                            <p style=""font-size:50px; font-weight:bold;""
                            >positive</p>
                            <div style=""width:240px; margin: auto;"">
                                <img src=""images/gray_17.png"" style= ""width:200px""alt=""img"">
                            </div>
                        </div>","-200","","0","images/gray_17.png","","","","positive"
"","","","","","html-slider-response","62","371722","0.0-56.0","j4jm7rews8","NaN","<div style=""width:500px;"">
                            <p style=""font-size:50px; font-weight:bold;""
                            >positive</p>
                            <div style=""width:240px; margin: auto;"">
                                <img src=""images/gray_19.png"" style= ""width:200px""alt=""img"">
                            </div>
                        </div>","-162","","0","images/gray_19.png","","","","positive"
"","","","","","html-slider-response","63","374191","0.0-57.0","j4jm7rews8","NaN","<div style=""width:500px;"">
                            <p style=""font-size:50px; font-weight:bold;""
                            >positive</p>
                            <div style=""width:240px; margin: auto;"">
                                <img src=""images/gray_06.png"" style= ""width:200px""alt=""img"">
                            </div>
                        </div>","-42","","0","images/gray_06.png","","","","positive"
"","","","","","html-button-response","64","376261","0.0-58.0","j4jm7rews8","1568","<p>Great Job! You've finished block 1.<br></br> You have 7 block(s) left to go.<br></br></p>","0","","","","","","",""
"","","","","","html-button-response","65","377644","0.0-59.0","j4jm7rews8","1382","<p>In this block of trials, you will be asked to rate how much you associate each map with:</p > <p style = 'font-size:150%; font-weight: bold'>disturbing</p><br></br>","0","","","","","","",""
"","","","","","html-slider-response","66","381672","0.0-60.0","j4jm7rews8","NaN","<div style=""width:500px;"">
                            <p style=""font-size:50px; font-weight:bold;""
                            >disturbing</p>
                            <div style=""width:240px; margin: auto;"">
                                <img src=""images/gray_06.png"" style= ""width:200px""alt=""img"">
                            </div>
                        </div>","-50","","0","images/gray_06.png","","","","disturbing"
"","","","","","html-slider-response","67","383672","0.0-61.0","j4jm7rews8","NaN","<div style=""width:500px;"">
                            <p style=""font-size:50px; font-weight:bold;""
                            >disturbing</p>
                            <div style=""width:240px; margin: auto;"">
                                <img src=""images/gray_32.png"" style= ""width:200px""alt=""img"">
                            </div>
                        </div>","-50","","0","images/gray_32.png","","","","disturbing"
"","","","","","html-slider-response","68","386989","0.0-62.0","j4jm7rews8","NaN","<div style=""width:500px;"">
                            <p style=""font-size:50px; font-weight:bold;""
                            >disturbing</p>
                            <div style=""width:240px; margin: auto;"">
                                <img src=""images/gray_09.png"" style= ""width:200px""alt=""img"">
                            </div>
                        </div>","30","","0","images/gray_09.png","","","","disturbing"
"","","","","","html-slider-response","69","389126","0.0-63.0","j4jm7rews8","NaN","<div style=""width:500px;"">
                            <p style=""font-size:50px; font-weight:bold;""
                            >disturbing</p>
                            <div style=""width:240px; margin: auto;"">
                                <img src=""images/gray_26.png"" style= ""width:200px""alt=""img"">
                            </div>
                        </div>","89","","0","images/gray_26.png","","","","disturbing"
"","","","","","html-slider-response","70","392006","0.0-64.0","j4jm7rews8","NaN","<div style=""width:500px;"">
                            <p style=""font-size:50px; font-weight:bold;""
                            >disturbing</p>
                            <div style=""width:240px; margin: auto;"">
                                <img src=""images/gray_30.png"" style= ""width:200px""alt=""img"">
                            </div>
                        </div>","154","","0","images/gray_30.png","","","","disturbing"
"","","","","","html-slider-response","71","395421","0.0-65.0","j4jm7rews8","NaN","<div style=""width:500px;"">
                            <p style=""font-size:50px; font-weight:bold;""
                            >disturbing</p>
                            <div style=""width:240px; margin: auto;"">
                                <img src=""images/gray_40.png"" style= ""width:200px""alt=""img"">
                            </div>
                        </div>","-29","","0","images/gray_40.png","","","","disturbing"
"","","","","","html-slider-response","72","397607","0.0-66.0","j4jm7rews8","NaN","<div style=""width:500px;"">
                            <p style=""font-size:50px; font-weight:bold;""
                            >disturbing</p>
                            <div style=""width:240px; margin: auto;"">
                                <img src=""images/gray_28.png"" style= ""width:200px""alt=""img"">
                            </div>
                        </div>","200","","0","images/gray_28.png","","","","disturbing"
"","","","","","html-slider-response","73","400523","0.0-67.0","j4jm7rews8","NaN","<div style=""width:500px;"">
                            <p style=""font-size:50px; font-weight:bold;""
                            >disturbing</p>
                            <div style=""width:240px; margin: auto;"">
                                <img src=""images/gray_07.png"" style= ""width:200px""alt=""img"">
                            </div>
                        </div>","199","","0","images/gray_07.png","","","","disturbing"
"","","","","","html-slider-response","74","403956","0.0-68.0","j4jm7rews8","NaN","<div style=""width:500px;"">
                            <p style=""font-size:50px; font-weight:bold;""
                            >disturbing</p>
                            <div style=""width:240px; margin: auto;"">
                                <img src=""images/gray_31.png"" style= ""width:200px""alt=""img"">
                            </div>
                        </div>","-200","","0","images/gray_31.png","","","","disturbing"
"","","","","","html-slider-response","75","406656","0.0-69.0","j4jm7rews8","NaN","<div style=""width:500px;"">
                            <p style=""font-size:50px; font-weight:bold;""
                            >disturbing</p>
                            <div style=""width:240px; margin: auto;"">
                                <img src=""images/gray_18.png"" style= ""width:200px""alt=""img"">
                            </div>
                        </div>","-82","","0","images/gray_18.png","","","","disturbing"
"","","","","","html-slider-response","76","411490","0.0-70.0","j4jm7rews8","NaN","<div style=""width:500px;"">
                            <p style=""font-size:50px; font-weight:bold;""
                            >disturbing</p>
                            <div style=""width:240px; margin: auto;"">
                                <img src=""images/gray_44.png"" style= ""width:200px""alt=""img"">
                            </div>
                        </div>","36","","0","images/gray_44.png","","","","disturbing"
"","","","","","html-slider-response","77","415289","0.0-71.0","j4jm7rews8","NaN","<div style=""width:500px;"">
                            <p style=""font-size:50px; font-weight:bold;""
                            >disturbing</p>
                            <div style=""width:240px; margin: auto;"">
                                <img src=""images/gray_20.png"" style= ""width:200px""alt=""img"">
                            </div>
                        </div>","25","","0","images/gray_20.png","","","","disturbing"
"","","","","","html-slider-response","78","417591","0.0-72.0","j4jm7rews8","NaN","<div style=""width:500px;"">
                            <p style=""font-size:50px; font-weight:bold;""
                            >disturbing</p>
                            <div style=""width:240px; margin: auto;"">
                                <img src=""images/gray_27.png"" style= ""width:200px""alt=""img"">
                            </div>
                        </div>","200","","0","images/gray_27.png","","","","disturbing"
"","","","","","html-slider-response","79","423806","0.0-73.0","j4jm7rews8","NaN","<div style=""width:500px;"">
                            <p style=""font-size:50px; font-weight:bold;""
                            >disturbing</p>
                            <div style=""width:240px; margin: auto;"">
                                <img src=""images/gray_38.png"" style= ""width:200px""alt=""img"">
                            </div>
                        </div>","-15","","0","images/gray_38.png","","","","disturbing"
"","","","","","html-slider-response","80","428390","0.0-74.0","j4jm7rews8","NaN","<div style=""width:500px;"">
                            <p style=""font-size:50px; font-weight:bold;""
                            >disturbing</p>
                            <div style=""width:240px; margin: auto;"">
                                <img src=""images/gray_34.png"" style= ""width:200px""alt=""img"">
                            </div>
                        </div>","-73","","0","images/gray_34.png","","","","disturbing"
"","","","","","html-slider-response","81","431757","0.0-75.0","j4jm7rews8","NaN","<div style=""width:500px;"">
                            <p style=""font-size:50px; font-weight:bold;""
                            >disturbing</p>
                            <div style=""width:240px; margin: auto;"">
                                <img src=""images/gray_17.png"" style= ""width:200px""alt=""img"">
                            </div>
                        </div>","156","","0","images/gray_17.png","","","","disturbing"
"","","","","","html-slider-response","82","434371","0.0-76.0","j4jm7rews8","NaN","<div style=""width:500px;"">
                            <p style=""font-size:50px; font-weight:bold;""
                            >disturbing</p>
                            <div style=""width:240px; margin: auto;"">
                                <img src=""images/gray_16.png"" style= ""width:200px""alt=""img"">
                            </div>
                        </div>","149","","0","images/gray_16.png","","","","disturbing"
"","","","","","html-slider-response","83","437058","0.0-77.0","j4jm7rews8","NaN","<div style=""width:500px;"">
                            <p style=""font-size:50px; font-weight:bold;""
                            >disturbing</p>
                            <div style=""width:240px; margin: auto;"">
                                <img src=""images/gray_05.png"" style= ""width:200px""alt=""img"">
                            </div>
                        </div>","200","","0","images/gray_05.png","","","","disturbing"
"","","","","","html-slider-response","84","439507","0.0-78.0","j4jm7rews8","NaN","<div style=""width:500px;"">
                            <p style=""font-size:50px; font-weight:bold;""
                            >disturbing</p>
                            <div style=""width:240px; margin: auto;"">
                                <img src=""images/gray_39.png"" style= ""width:200px""alt=""img"">
                            </div>
                        </div>","-68","","0","images/gray_39.png","","","","disturbing"
"","","","","","html-slider-response","85","442372","0.0-79.0","j4jm7rews8","NaN","<div style=""width:500px;"">
                            <p style=""font-size:50px; font-weight:bold;""
                            >disturbing</p>
                            <div style=""width:240px; margin: auto;"">
                                <img src=""images/gray_21.png"" style= ""width:200px""alt=""img"">
                            </div>
                        </div>","-200","","0","images/gray_21.png","","","","disturbing"
"","","","","","html-slider-response","86","445439","0.0-80.0","j4jm7rews8","NaN","<div style=""width:500px;"">
                            <p style=""font-size:50px; font-weight:bold;""
                            >disturbing</p>
                            <div style=""width:240px; margin: auto;"">
                                <img src=""images/gray_13.png"" style= ""width:200px""alt=""img"">
                            </div>
                        </div>","51","","0","images/gray_13.png","","","","disturbing"
"","","","","","html-slider-response","87","447958","0.0-81.0","j4jm7rews8","NaN","<div style=""width:500px;"">
                            <p style=""font-size:50px; font-weight:bold;""
                            >disturbing</p>
                            <div style=""width:240px; margin: auto;"">
                                <img src=""images/gray_15.png"" style= ""width:200px""alt=""img"">
                            </div>
                        </div>","14","","0","images/gray_15.png","","","","disturbing"
"","","","","","html-slider-response","88","450607","0.0-82.0","j4jm7rews8","NaN","<div style=""width:500px;"">
                            <p style=""font-size:50px; font-weight:bold;""
                            >disturbing</p>
                            <div style=""width:240px; margin: auto;"">
                                <img src=""images/gray_43.png"" style= ""width:200px""alt=""img"">
                            </div>
                        </div>","70","","0","images/gray_43.png","","","","disturbing"
"","","","","","html-slider-response","89","453006","0.0-83.0","j4jm7rews8","NaN","<div style=""width:500px;"">
                            <p style=""font-size:50px; font-weight:bold;""
                            >disturbing</p>
                            <div style=""width:240px; margin: auto;"">
                                <img src=""images/gray_02.png"" style= ""width:200px""alt=""img"">
                            </div>
                        </div>","142","","0","images/gray_02.png","","","","disturbing"
"","","","","","html-slider-response","90","455324","0.0-84.0","j4jm7rews8","NaN","<div style=""width:500px;"">
                            <p style=""font-size:50px; font-weight:bold;""
                            >disturbing</p>
                            <div style=""width:240px; margin: auto;"">
                                <img src=""images/gray_11.png"" style= ""width:200px""alt=""img"">
                            </div>
                        </div>","200","","0","images/gray_11.png","","","","disturbing"
"","","","","","html-slider-response","91","458808","0.0-85.0","j4jm7rews8","NaN","<div style=""width:500px;"">
                            <p style=""font-size:50px; font-weight:bold;""
                            >disturbing</p>
                            <div style=""width:240px; margin: auto;"">
                                <img src=""images/gray_35.png"" style= ""width:200px""alt=""img"">
                            </div>
                        </div>","-67","","0","images/gray_35.png","","","","disturbing"
"","","","","","html-slider-response","92","462356","0.0-86.0","j4jm7rews8","NaN","<div style=""width:500px;"">
                            <p style=""font-size:50px; font-weight:bold;""
                            >disturbing</p>
                            <div style=""width:240px; margin: auto;"">
                                <img src=""images/gray_41.png"" style= ""width:200px""alt=""img"">
                            </div>
                        </div>","-19","","0","images/gray_41.png","","","","disturbing"
"","","","","","html-slider-response","93","467395","0.0-87.0","j4jm7rews8","NaN","<div style=""width:500px;"">
                            <p style=""font-size:50px; font-weight:bold;""
                            >disturbing</p>
                            <div style=""width:240px; margin: auto;"">
                                <img src=""images/gray_14.png"" style= ""width:200px""alt=""img"">
                            </div>
                        </div>","-85","","0","images/gray_14.png","","","","disturbing"
"","","","","","html-slider-response","94","472407","0.0-88.0","j4jm7rews8","NaN","<div style=""width:500px;"">
                            <p style=""font-size:50px; font-weight:bold;""
                            >disturbing</p>
                            <div style=""width:240px; margin: auto;"">
                                <img src=""images/gray_29.png"" style= ""width:200px""alt=""img"">
                            </div>
                        </div>","-155","","0","images/gray_29.png","","","","disturbing"
"","","","","","html-slider-response","95","474539","0.0-89.0","j4jm7rews8","NaN","<div style=""width:500px;"">
                            <p style=""font-size:50px; font-weight:bold;""
                            >disturbing</p>
                            <div style=""width:240px; margin: auto;"">
                                <img src=""images/gray_10.png"" style= ""width:200px""alt=""img"">
                            </div>
                        </div>","44","","0","images/gray_10.png","","","","disturbing"
"","","","","","html-slider-response","96","479706","0.0-90.0","j4jm7rews8","NaN","<div style=""width:500px;"">
                            <p style=""font-size:50px; font-weight:bold;""
                            >disturbing</p>
                            <div style=""width:240px; margin: auto;"">
                                <img src=""images/gray_37.png"" style= ""width:200px""alt=""img"">
                            </div>
                        </div>","-37","","0","images/gray_37.png","","","","disturbing"
"","","","","","html-slider-response","97","482690","0.0-91.0","j4jm7rews8","NaN","<div style=""width:500px;"">
                            <p style=""font-size:50px; font-weight:bold;""
                            >disturbing</p>
                            <div style=""width:240px; margin: auto;"">
                                <img src=""images/gray_42.png"" style= ""width:200px""alt=""img"">
                            </div>
                        </div>","20","","0","images/gray_42.png","","","","disturbing"
"","","","","","html-slider-response","98","484928","0.0-92.0","j4jm7rews8","NaN","<div style=""width:500px;"">
                            <p style=""font-size:50px; font-weight:bold;""
                            >disturbing</p>
                            <div style=""width:240px; margin: auto;"">
                                <img src=""images/gray_01.png"" style= ""width:200px""alt=""img"">
                            </div>
                        </div>","93","","0","images/gray_01.png","","","","disturbing"
"","","","","","html-slider-response","99","486776","0.0-93.0","j4jm7rews8","NaN","<div style=""width:500px;"">
                            <p style=""font-size:50px; font-weight:bold;""
                            >disturbing</p>
                            <div style=""width:240px; margin: auto;"">
                                <img src=""images/gray_24.png"" style= ""width:200px""alt=""img"">
                            </div>
                        </div>","81","","0","images/gray_24.png","","","","disturbing"
"","","","","","html-slider-response","100","489012","0.0-94.0","j4jm7rews8","NaN","<div style=""width:500px;"">
                            <p style=""font-size:50px; font-weight:bold;""
                            >disturbing</p>
                            <div style=""width:240px; margin: auto;"">
                                <img src=""images/gray_08.png"" style= ""width:200px""alt=""img"">
                            </div>
                        </div>","34","","0","images/gray_08.png","","","","disturbing"
"","","","","","html-slider-response","101","490939","0.0-95.0","j4jm7rews8","NaN","<div style=""width:500px;"">
                            <p style=""font-size:50px; font-weight:bold;""
                            >disturbing</p>
                            <div style=""width:240px; margin: auto;"">
                                <img src=""images/gray_04.png"" style= ""width:200px""alt=""img"">
                            </div>
                        </div>","-37","","0","images/gray_04.png","","","","disturbing"
"","","","","","html-slider-response","102","493112","0.0-96.0","j4jm7rews8","NaN","<div style=""width:500px;"">
                            <p style=""font-size:50px; font-weight:bold;""
                            >disturbing</p>
                            <div style=""width:240px; margin: auto;"">
                                <img src=""images/gray_12.png"" style= ""width:200px""alt=""img"">
                            </div>
                        </div>","27","","0","images/gray_12.png","","","","disturbing"
"","","","","","html-slider-response","103","495592","0.0-97.0","j4jm7rews8","NaN","<div style=""width:500px;"">
                            <p style=""font-size:50px; font-weight:bold;""
                            >disturbing</p>
                            <div style=""width:240px; margin: auto;"">
                                <img src=""images/gray_19.png"" style= ""width:200px""alt=""img"">
                            </div>
                        </div>","-64","","0","images/gray_19.png","","","","disturbing"
"","","","","","html-slider-response","104","498491","0.0-98.0","j4jm7rews8","NaN","<div style=""width:500px;"">
                            <p style=""font-size:50px; font-weight:bold;""
                            >disturbing</p>
                            <div style=""width:240px; margin: auto;"">
                                <img src=""images/gray_22.png"" style= ""width:200px""alt=""img"">
                            </div>
                        </div>","52","","0","images/gray_22.png","","","","disturbing"
"","","","","","html-slider-response","105","500623","0.0-99.0","j4jm7rews8","NaN","<div style=""width:500px;"">
                            <p style=""font-size:50px; font-weight:bold;""
                            >disturbing</p>
                            <div style=""width:240px; margin: auto;"">
                                <img src=""images/gray_03.png"" style= ""width:200px""alt=""img"">
                            </div>
                        </div>","38","","0","images/gray_03.png","","","","disturbing"
"","","","","","html-slider-response","106","503207","0.0-100.0","j4jm7rews8","NaN","<div style=""width:500px;"">
                            <p style=""font-size:50px; font-weight:bold;""
                            >disturbing</p>
                            <div style=""width:240px; margin: auto;"">
                                <img src=""images/gray_33.png"" style= ""width:200px""alt=""img"">
                            </div>
                        </div>","200","","0","images/gray_33.png","","","","disturbing"
"","","","","","html-slider-response","107","505592","0.0-101.0","j4jm7rews8","NaN","<div style=""width:500px;"">
                            <p style=""font-size:50px; font-weight:bold;""
                            >disturbing</p>
                            <div style=""width:240px; margin: auto;"">
                                <img src=""images/gray_25.png"" style= ""width:200px""alt=""img"">
                            </div>
                        </div>","24","","0","images/gray_25.png","","","","disturbing"
"","","","","","html-slider-response","108","509175","0.0-102.0","j4jm7rews8","NaN","<div style=""width:500px;"">
                            <p style=""font-size:50px; font-weight:bold;""
                            >disturbing</p>
                            <div style=""width:240px; margin: auto;"">
                                <img src=""images/gray_36.png"" style= ""width:200px""alt=""img"">
                            </div>
                        </div>","46","","0","images/gray_36.png","","","","disturbing"
"","","","","","html-slider-response","109","511290","0.0-103.0","j4jm7rews8","NaN","<div style=""width:500px;"">
                            <p style=""font-size:50px; font-weight:bold;""
                            >disturbing</p>
                            <div style=""width:240px; margin: auto;"">
                                <img src=""images/gray_23.png"" style= ""width:200px""alt=""img"">
                            </div>
                        </div>","69","","0","images/gray_23.png","","","","disturbing"
"","","","","","html-button-response","110","512846","0.0-104.0","j4jm7rews8","1054","<p>Great Job! You've finished block 2.<br></br> You have 6 block(s) left to go.<br></br></p>","0","","","","","","",""
"","","","","","html-button-response","111","514412","0.0-105.0","j4jm7rews8","1565","<p>In this block of trials, you will be asked to rate how much you associate each map with:</p > <p style = 'font-size:150%; font-weight: bold'>negative</p><br></br>","0","","","","","","",""
"","","","","","html-slider-response","112","517873","0.0-106.0","j4jm7rews8","NaN","<div style=""width:500px;"">
                            <p style=""font-size:50px; font-weight:bold;""
                            >negative</p>
                            <div style=""width:240px; margin: auto;"">
                                <img src=""images/gray_44.png"" style= ""width:200px""alt=""img"">
                            </div>
                        </div>","39","","0","images/gray_44.png","","","","negative"
"","","","","","html-slider-response","113","523390","0.0-107.0","j4jm7rews8","NaN","<div style=""width:500px;"">
                            <p style=""font-size:50px; font-weight:bold;""
                            >negative</p>
                            <div style=""width:240px; margin: auto;"">
                                <img src=""images/gray_21.png"" style= ""width:200px""alt=""img"">
                            </div>
                        </div>","-84","","0","images/gray_21.png","","","","negative"
"","","","","","html-slider-response","114","527108","0.0-108.0","j4jm7rews8","NaN","<div style=""width:500px;"">
                            <p style=""font-size:50px; font-weight:bold;""
                            >negative</p>
                            <div style=""width:240px; margin: auto;"">
                                <img src=""images/gray_15.png"" style= ""width:200px""alt=""img"">
                            </div>
                        </div>","67","","0","images/gray_15.png","","","","negative"
"","","","","","html-slider-response","115","528956","0.0-109.0","j4jm7rews8","NaN","<div style=""width:500px;"">
                            <p style=""font-size:50px; font-weight:bold;""
                            >negative</p>
                            <div style=""width:240px; margin: auto;"">
                                <img src=""images/gray_04.png"" style= ""width:200px""alt=""img"">
                            </div>
                        </div>","-54","","0","images/gray_04.png","","","","negative"
"","","","","","html-slider-response","116","531442","0.0-110.0","j4jm7rews8","NaN","<div style=""width:500px;"">
                            <p style=""font-size:50px; font-weight:bold;""
                            >negative</p>
                            <div style=""width:240px; margin: auto;"">
                                <img src=""images/gray_05.png"" style= ""width:200px""alt=""img"">
                            </div>
                        </div>","146","","0","images/gray_05.png","","","","negative"
"","","","","","html-slider-response","117","533875","0.0-111.0","j4jm7rews8","NaN","<div style=""width:500px;"">
                            <p style=""font-size:50px; font-weight:bold;""
                            >negative</p>
                            <div style=""width:240px; margin: auto;"">
                                <img src=""images/gray_14.png"" style= ""width:200px""alt=""img"">
                            </div>
                        </div>","42","","0","images/gray_14.png","","","","negative"
"","","","","","html-slider-response","118","535840","0.0-112.0","j4jm7rews8","NaN","<div style=""width:500px;"">
                            <p style=""font-size:50px; font-weight:bold;""
                            >negative</p>
                            <div style=""width:240px; margin: auto;"">
                                <img src=""images/gray_41.png"" style= ""width:200px""alt=""img"">
                            </div>
                        </div>","57","","0","images/gray_41.png","","","","negative"
"","","","","","html-slider-response","119","538578","0.0-113.0","j4jm7rews8","NaN","<div style=""width:500px;"">
                            <p style=""font-size:50px; font-weight:bold;""
                            >negative</p>
                            <div style=""width:240px; margin: auto;"">
                                <img src=""images/gray_20.png"" style= ""width:200px""alt=""img"">
                            </div>
                        </div>","-34","","0","images/gray_20.png","","","","negative"
"","","","","","html-slider-response","120","541824","0.0-114.0","j4jm7rews8","NaN","<div style=""width:500px;"">
                            <p style=""font-size:50px; font-weight:bold;""
                            >negative</p>
                            <div style=""width:240px; margin: auto;"">
                                <img src=""images/gray_13.png"" style= ""width:200px""alt=""img"">
                            </div>
                        </div>","84","","0","images/gray_13.png","","","","negative"
"","","","","","html-slider-response","121","544526","0.0-115.0","j4jm7rews8","NaN","<div style=""width:500px;"">
                            <p style=""font-size:50px; font-weight:bold;""
                            >negative</p>
                            <div style=""width:240px; margin: auto;"">
                                <img src=""images/gray_24.png"" style= ""width:200px""alt=""img"">
                            </div>
                        </div>","143","","0","images/gray_24.png","","","","negative"
"","","","","","html-slider-response","122","546990","0.0-116.0","j4jm7rews8","NaN","<div style=""width:500px;"">
                            <p style=""font-size:50px; font-weight:bold;""
                            >negative</p>
                            <div style=""width:240px; margin: auto;"">
                                <img src=""images/gray_38.png"" style= ""width:200px""alt=""img"">
                            </div>
                        </div>","98","","0","images/gray_38.png","","","","negative"
"","","","","","html-slider-response","123","549192","0.0-117.0","j4jm7rews8","NaN","<div style=""width:500px;"">
                            <p style=""font-size:50px; font-weight:bold;""
                            >negative</p>
                            <div style=""width:240px; margin: auto;"">
                                <img src=""images/gray_18.png"" style= ""width:200px""alt=""img"">
                            </div>
                        </div>","-41","","0","images/gray_18.png","","","","negative"
"","","","","","html-slider-response","124","551392","0.0-118.0","j4jm7rews8","NaN","<div style=""width:500px;"">
                            <p style=""font-size:50px; font-weight:bold;""
                            >negative</p>
                            <div style=""width:240px; margin: auto;"">
                                <img src=""images/gray_07.png"" style= ""width:200px""alt=""img"">
                            </div>
                        </div>","200","","0","images/gray_07.png","","","","negative"
"","","","","","html-slider-response","125","553890","0.0-119.0","j4jm7rews8","NaN","<div style=""width:500px;"">
                            <p style=""font-size:50px; font-weight:bold;""
                            >negative</p>
                            <div style=""width:240px; margin: auto;"">
                                <img src=""images/gray_17.png"" style= ""width:200px""alt=""img"">
                            </div>
                        </div>","192","","0","images/gray_17.png","","","","negative"
"","","","","","html-slider-response","126","556759","0.0-120.0","j4jm7rews8","NaN","<div style=""width:500px;"">
                            <p style=""font-size:50px; font-weight:bold;""
                            >negative</p>
                            <div style=""width:240px; margin: auto;"">
                                <img src=""images/gray_35.png"" style= ""width:200px""alt=""img"">
                            </div>
                        </div>","27","","0","images/gray_35.png","","","","negative"
"","","","","","html-slider-response","127","559974","0.0-121.0","j4jm7rews8","NaN","<div style=""width:500px;"">
                            <p style=""font-size:50px; font-weight:bold;""
                            >negative</p>
                            <div style=""width:240px; margin: auto;"">
                                <img src=""images/gray_28.png"" style= ""width:200px""alt=""img"">
                            </div>
                        </div>","69","","0","images/gray_28.png","","","","negative"
"","","","","","html-slider-response","128","562559","0.0-122.0","j4jm7rews8","NaN","<div style=""width:500px;"">
                            <p style=""font-size:50px; font-weight:bold;""
                            >negative</p>
                            <div style=""width:240px; margin: auto;"">
                                <img src=""images/gray_25.png"" style= ""width:200px""alt=""img"">
                            </div>
                        </div>","141","","0","images/gray_25.png","","","","negative"
"","","","","","html-slider-response","129","566275","0.0-123.0","j4jm7rews8","NaN","<div style=""width:500px;"">
                            <p style=""font-size:50px; font-weight:bold;""
                            >negative</p>
                            <div style=""width:240px; margin: auto;"">
                                <img src=""images/gray_31.png"" style= ""width:200px""alt=""img"">
                            </div>
                        </div>","-130","","0","images/gray_31.png","","","","negative"
"","","","","","html-slider-response","130","569346","0.0-124.0","j4jm7rews8","NaN","<div style=""width:500px;"">
                            <p style=""font-size:50px; font-weight:bold;""
                            >negative</p>
                            <div style=""width:240px; margin: auto;"">
                                <img src=""images/gray_01.png"" style= ""width:200px""alt=""img"">
                            </div>
                        </div>","50","","0","images/gray_01.png","","","","negative"
"","","","","","html-slider-response","131","571108","0.0-125.0","j4jm7rews8","NaN","<div style=""width:500px;"">
                            <p style=""font-size:50px; font-weight:bold;""
                            >negative</p>
                            <div style=""width:240px; margin: auto;"">
                                <img src=""images/gray_16.png"" style= ""width:200px""alt=""img"">
                            </div>
                        </div>","94","","0","images/gray_16.png","","","","negative"
"","","","","","html-slider-response","132","573325","0.0-126.0","j4jm7rews8","NaN","<div style=""width:500px;"">
                            <p style=""font-size:50px; font-weight:bold;""
                            >negative</p>
                            <div style=""width:240px; margin: auto;"">
                                <img src=""images/gray_08.png"" style= ""width:200px""alt=""img"">
                            </div>
                        </div>","114","","0","images/gray_08.png","","","","negative"
"","","","","","html-slider-response","133","575674","0.0-127.0","j4jm7rews8","NaN","<div style=""width:500px;"">
                            <p style=""font-size:50px; font-weight:bold;""
                            >negative</p>
                            <div style=""width:240px; margin: auto;"">
                                <img src=""images/gray_12.png"" style= ""width:200px""alt=""img"">
                            </div>
                        </div>","142","","0","images/gray_12.png","","","","negative"
"","","","","","html-slider-response","134","577876","0.0-128.0","j4jm7rews8","NaN","<div style=""width:500px;"">
                            <p style=""font-size:50px; font-weight:bold;""
                            >negative</p>
                            <div style=""width:240px; margin: auto;"">
                                <img src=""images/gray_33.png"" style= ""width:200px""alt=""img"">
                            </div>
                        </div>","200","","0","images/gray_33.png","","","","negative"
"","","","","","html-slider-response","135","580241","0.0-129.0","j4jm7rews8","NaN","<div style=""width:500px;"">
                            <p style=""font-size:50px; font-weight:bold;""
                            >negative</p>
                            <div style=""width:240px; margin: auto;"">
                                <img src=""images/gray_40.png"" style= ""width:200px""alt=""img"">
                            </div>
                        </div>","70","","0","images/gray_40.png","","","","negative"
"","","","","","html-slider-response","136","582323","0.0-130.0","j4jm7rews8","NaN","<div style=""width:500px;"">
                            <p style=""font-size:50px; font-weight:bold;""
                            >negative</p>
                            <div style=""width:240px; margin: auto;"">
                                <img src=""images/gray_22.png"" style= ""width:200px""alt=""img"">
                            </div>
                        </div>","27","","0","images/gray_22.png","","","","negative"
"","","","","","html-slider-response","137","584141","0.0-131.0","j4jm7rews8","NaN","<div style=""width:500px;"">
                            <p style=""font-size:50px; font-weight:bold;""
                            >negative</p>
                            <div style=""width:240px; margin: auto;"">
                                <img src=""images/gray_42.png"" style= ""width:200px""alt=""img"">
                            </div>
                        </div>","66","","0","images/gray_42.png","","","","negative"
"","","","","","html-slider-response","138","586641","0.0-132.0","j4jm7rews8","NaN","<div style=""width:500px;"">
                            <p style=""font-size:50px; font-weight:bold;""
                            >negative</p>
                            <div style=""width:240px; margin: auto;"">
                                <img src=""images/gray_10.png"" style= ""width:200px""alt=""img"">
                            </div>
                        </div>","110","","0","images/gray_10.png","","","","negative"
"","","","","","html-slider-response","139","591192","0.0-133.0","j4jm7rews8","NaN","<div style=""width:500px;"">
                            <p style=""font-size:50px; font-weight:bold;""
                            >negative</p>
                            <div style=""width:240px; margin: auto;"">
                                <img src=""images/gray_23.png"" style= ""width:200px""alt=""img"">
                            </div>
                        </div>","122","","0","images/gray_23.png","","","","negative"
"","","","","","html-slider-response","140","593924","0.0-134.0","j4jm7rews8","NaN","<div style=""width:500px;"">
                            <p style=""font-size:50px; font-weight:bold;""
                            >negative</p>
                            <div style=""width:240px; margin: auto;"">
                                <img src=""images/gray_19.png"" style= ""width:200px""alt=""img"">
                            </div>
                        </div>","47","","0","images/gray_19.png","","","","negative"
"","","","","","html-slider-response","141","596626","0.0-135.0","j4jm7rews8","NaN","<div style=""width:500px;"">
                            <p style=""font-size:50px; font-weight:bold;""
                            >negative</p>
                            <div style=""width:240px; margin: auto;"">
                                <img src=""images/gray_27.png"" style= ""width:200px""alt=""img"">
                            </div>
                        </div>","193","","0","images/gray_27.png","","","","negative"
"","","","","","html-slider-response","142","598974","0.0-136.0","j4jm7rews8","NaN","<div style=""width:500px;"">
                            <p style=""font-size:50px; font-weight:bold;""
                            >negative</p>
                            <div style=""width:240px; margin: auto;"">
                                <img src=""images/gray_36.png"" style= ""width:200px""alt=""img"">
                            </div>
                        </div>","26","","0","images/gray_36.png","","","","negative"
"","","","","","html-slider-response","143","602124","0.0-137.0","j4jm7rews8","NaN","<div style=""width:500px;"">
                            <p style=""font-size:50px; font-weight:bold;""
                            >negative</p>
                            <div style=""width:240px; margin: auto;"">
                                <img src=""images/gray_29.png"" style= ""width:200px""alt=""img"">
                            </div>
                        </div>","-64","","0","images/gray_29.png","","","","negative"
"","","","","","html-slider-response","144","618029","0.0-138.0","j4jm7rews8","NaN","<div style=""width:500px;"">
                            <p style=""font-size:50px; font-weight:bold;""
                            >negative</p>
                            <div style=""width:240px; margin: auto;"">
                                <img src=""images/gray_09.png"" style= ""width:200px""alt=""img"">
                            </div>
                        </div>","37","","0","images/gray_09.png","","","","negative"
"","","","","","html-slider-response","145","620276","0.0-139.0","j4jm7rews8","NaN","<div style=""width:500px;"">
                            <p style=""font-size:50px; font-weight:bold;""
                            >negative</p>
                            <div style=""width:240px; margin: auto;"">
                                <img src=""images/gray_30.png"" style= ""width:200px""alt=""img"">
                            </div>
                        </div>","96","","0","images/gray_30.png","","","","negative"
"","","","","","html-slider-response","146","630959","0.0-140.0","j4jm7rews8","NaN","<div style=""width:500px;"">
                            <p style=""font-size:50px; font-weight:bold;""
                            >negative</p>
                            <div style=""width:240px; margin: auto;"">
                                <img src=""images/gray_02.png"" style= ""width:200px""alt=""img"">
                            </div>
                        </div>","51","","0","images/gray_02.png","","","","negative"
"","","","","","html-slider-response","147","665993","0.0-141.0","j4jm7rews8","NaN","<div style=""width:500px;"">
                            <p style=""font-size:50px; font-weight:bold;""
                            >negative</p>
                            <div style=""width:240px; margin: auto;"">
                                <img src=""images/gray_26.png"" style= ""width:200px""alt=""img"">
                            </div>
                        </div>","164","","0","images/gray_26.png","","","","negative"
"","","","","","html-slider-response","148","668525","0.0-142.0","j4jm7rews8","NaN","<div style=""width:500px;"">
                            <p style=""font-size:50px; font-weight:bold;""
                            >negative</p>
                            <div style=""width:240px; margin: auto;"">
                                <img src=""images/gray_37.png"" style= ""width:200px""alt=""img"">
                            </div>
                        </div>","200","","0","images/gray_37.png","","","","negative"
"","","","","","html-slider-response","149","671413","0.0-143.0","j4jm7rews8","NaN","<div style=""width:500px;"">
                            <p style=""font-size:50px; font-weight:bold;""
                            >negative</p>
                            <div style=""width:240px; margin: auto;"">
                                <img src=""images/gray_06.png"" style= ""width:200px""alt=""img"">
                            </div>
                        </div>","77","","0","images/gray_06.png","","","","negative"
"","","","","","html-slider-response","150","673443","0.0-144.0","j4jm7rews8","NaN","<div style=""width:500px;"">
                            <p style=""font-size:50px; font-weight:bold;""
                            >negative</p>
                            <div style=""width:240px; margin: auto;"">
                                <img src=""images/gray_43.png"" style= ""width:200px""alt=""img"">
                            </div>
                        </div>","110","","0","images/gray_43.png","","","","negative"
"","","","","","html-slider-response","151","675810","0.0-145.0","j4jm7rews8","NaN","<div style=""width:500px;"">
                            <p style=""font-size:50px; font-weight:bold;""
                            >negative</p>
                            <div style=""width:240px; margin: auto;"">
                                <img src=""images/gray_03.png"" style= ""width:200px""alt=""img"">
                            </div>
                        </div>","108","","0","images/gray_03.png","","","","negative"
"","","","","","html-slider-response","152","677791","0.0-146.0","j4jm7rews8","NaN","<div style=""width:500px;"">
                            <p style=""font-size:50px; font-weight:bold;""
                            >negative</p>
                            <div style=""width:240px; margin: auto;"">
                                <img src=""images/gray_32.png"" style= ""width:200px""alt=""img"">
                            </div>
                        </div>","162","","0","images/gray_32.png","","","","negative"
"","","","","","html-slider-response","153","679496","0.0-147.0","j4jm7rews8","NaN","<div style=""width:500px;"">
                            <p style=""font-size:50px; font-weight:bold;""
                            >negative</p>
                            <div style=""width:240px; margin: auto;"">
                                <img src=""images/gray_11.png"" style= ""width:200px""alt=""img"">
                            </div>
                        </div>","200","","0","images/gray_11.png","","","","negative"
"","","","","","html-slider-response","154","681463","0.0-148.0","j4jm7rews8","NaN","<div style=""width:500px;"">
                            <p style=""font-size:50px; font-weight:bold;""
                            >negative</p>
                            <div style=""width:240px; margin: auto;"">
                                <img src=""images/gray_34.png"" style= ""width:200px""alt=""img"">
                            </div>
                        </div>","70","","0","images/gray_34.png","","","","negative"
"","","","","","html-slider-response","155","683510","0.0-149.0","j4jm7rews8","NaN","<div style=""width:500px;"">
                            <p style=""font-size:50px; font-weight:bold;""
                            >negative</p>
                            <div style=""width:240px; margin: auto;"">
                                <img src=""images/gray_39.png"" style= ""width:200px""alt=""img"">
                            </div>
                        </div>","79","","0","images/gray_39.png","","","","negative"
"","","","","","html-button-response","156","684831","0.0-150.0","j4jm7rews8","819","<p>Great Job! You've finished block 3.<br></br> You have 5 block(s) left to go.<br></br></p>","0","","","","","","",""
"","","","","","html-button-response","157","685765","0.0-151.0","j4jm7rews8","933","<p>In this block of trials, you will be asked to rate how much you associate each map with:</p > <p style = 'font-size:150%; font-weight: bold'>exciting</p><br></br>","0","","","","","","",""
"","","","","","html-slider-response","158","702675","0.0-152.0","j4jm7rews8","NaN","<div style=""width:500px;"">
                            <p style=""font-size:50px; font-weight:bold;""
                            >exciting</p>
                            <div style=""width:240px; margin: auto;"">
                                <img src=""images/gray_06.png"" style= ""width:200px""alt=""img"">
                            </div>
                        </div>","-45","","0","images/gray_06.png","","","","exciting"
"","","","","","html-slider-response","159","704125","0.0-153.0","j4jm7rews8","NaN","<div style=""width:500px;"">
                            <p style=""font-size:50px; font-weight:bold;""
                            >exciting</p>
                            <div style=""width:240px; margin: auto;"">
                                <img src=""images/gray_17.png"" style= ""width:200px""alt=""img"">
                            </div>
                        </div>","-4","","0","images/gray_17.png","","","","exciting"
"","","","","","html-slider-response","160","705159","0.0-154.0","j4jm7rews8","NaN","<div style=""width:500px;"">
                            <p style=""font-size:50px; font-weight:bold;""
                            >exciting</p>
                            <div style=""width:240px; margin: auto;"">
                                <img src=""images/gray_24.png"" style= ""width:200px""alt=""img"">
                            </div>
                        </div>","-4","","0","images/gray_24.png","","","","exciting"
"","","","","","html-slider-response","161","709911","0.0-155.0","j4jm7rews8","NaN","<div style=""width:500px;"">
                            <p style=""font-size:50px; font-weight:bold;""
                            >exciting</p>
                            <div style=""width:240px; margin: auto;"">
                                <img src=""images/gray_27.png"" style= ""width:200px""alt=""img"">
                            </div>
                        </div>","-154","","0","images/gray_27.png","","","","exciting"
"","","","","","html-slider-response","162","713492","0.0-156.0","j4jm7rews8","NaN","<div style=""width:500px;"">
                            <p style=""font-size:50px; font-weight:bold;""
                            >exciting</p>
                            <div style=""width:240px; margin: auto;"">
                                <img src=""images/gray_25.png"" style= ""width:200px""alt=""img"">
                            </div>
                        </div>","-122","","0","images/gray_25.png","","","","exciting"
"","","","","","html-slider-response","163","715793","0.0-157.0","j4jm7rews8","NaN","<div style=""width:500px;"">
                            <p style=""font-size:50px; font-weight:bold;""
                            >exciting</p>
                            <div style=""width:240px; margin: auto;"">
                                <img src=""images/gray_42.png"" style= ""width:200px""alt=""img"">
                            </div>
                        </div>","-56","","0","images/gray_42.png","","","","exciting"
"","","","","","html-slider-response","164","718659","0.0-158.0","j4jm7rews8","NaN","<div style=""width:500px;"">
                            <p style=""font-size:50px; font-weight:bold;""
                            >exciting</p>
                            <div style=""width:240px; margin: auto;"">
                                <img src=""images/gray_31.png"" style= ""width:200px""alt=""img"">
                            </div>
                        </div>","171","","0","images/gray_31.png","","","","exciting"
"","","","","","html-slider-response","165","721045","0.0-159.0","j4jm7rews8","NaN","<div style=""width:500px;"">
                            <p style=""font-size:50px; font-weight:bold;""
                            >exciting</p>
                            <div style=""width:240px; margin: auto;"">
                                <img src=""images/gray_19.png"" style= ""width:200px""alt=""img"">
                            </div>
                        </div>","62","","0","images/gray_19.png","","","","exciting"
"","","","","","html-slider-response","166","728326","0.0-160.0","j4jm7rews8","NaN","<div style=""width:500px;"">
                            <p style=""font-size:50px; font-weight:bold;""
                            >exciting</p>
                            <div style=""width:240px; margin: auto;"">
                                <img src=""images/gray_39.png"" style= ""width:200px""alt=""img"">
                            </div>
                        </div>","193","","0","images/gray_39.png","","","","exciting"
"","","","","","html-slider-response","167","730691","0.0-161.0","j4jm7rews8","NaN","<div style=""width:500px;"">
                            <p style=""font-size:50px; font-weight:bold;""
                            >exciting</p>
                            <div style=""width:240px; margin: auto;"">
                                <img src=""images/gray_37.png"" style= ""width:200px""alt=""img"">
                            </div>
                        </div>","44","","0","images/gray_37.png","","","","exciting"
"","","","","","html-slider-response","168","733209","0.0-162.0","j4jm7rews8","NaN","<div style=""width:500px;"">
                            <p style=""font-size:50px; font-weight:bold;""
                            >exciting</p>
                            <div style=""width:240px; margin: auto;"">
                                <img src=""images/gray_41.png"" style= ""width:200px""alt=""img"">
                            </div>
                        </div>","-102","","0","images/gray_41.png","","","","exciting"
"","","","","","html-slider-response","169","735627","0.0-163.0","j4jm7rews8","NaN","<div style=""width:500px;"">
                            <p style=""font-size:50px; font-weight:bold;""
                            >exciting</p>
                            <div style=""width:240px; margin: auto;"">
                                <img src=""images/gray_08.png"" style= ""width:200px""alt=""img"">
                            </div>
                        </div>","-176","","0","images/gray_08.png","","","","exciting"
"","","","","","html-slider-response","170","738092","0.0-164.0","j4jm7rews8","NaN","<div style=""width:500px;"">
                            <p style=""font-size:50px; font-weight:bold;""
                            >exciting</p>
                            <div style=""width:240px; margin: auto;"">
                                <img src=""images/gray_36.png"" style= ""width:200px""alt=""img"">
                            </div>
                        </div>","98","","0","images/gray_36.png","","","","exciting"
"","","","","","html-slider-response","171","741992","0.0-165.0","j4jm7rews8","NaN","<div style=""width:500px;"">
                            <p style=""font-size:50px; font-weight:bold;""
                            >exciting</p>
                            <div style=""width:240px; margin: auto;"">
                                <img src=""images/gray_22.png"" style= ""width:200px""alt=""img"">
                            </div>
                        </div>","-119","","0","images/gray_22.png","","","","exciting"
"","","","","","html-slider-response","172","744577","0.0-166.0","j4jm7rews8","NaN","<div style=""width:500px;"">
                            <p style=""font-size:50px; font-weight:bold;""
                            >exciting</p>
                            <div style=""width:240px; margin: auto;"">
                                <img src=""images/gray_34.png"" style= ""width:200px""alt=""img"">
                            </div>
                        </div>","-149","","0","images/gray_34.png","","","","exciting"
"","","","","","html-slider-response","173","747827","0.0-167.0","j4jm7rews8","NaN","<div style=""width:500px;"">
                            <p style=""font-size:50px; font-weight:bold;""
                            >exciting</p>
                            <div style=""width:240px; margin: auto;"">
                                <img src=""images/gray_05.png"" style= ""width:200px""alt=""img"">
                            </div>
                        </div>","-190","","0","images/gray_05.png","","","","exciting"
"","","","","","html-slider-response","174","750311","0.0-168.0","j4jm7rews8","NaN","<div style=""width:500px;"">
                            <p style=""font-size:50px; font-weight:bold;""
                            >exciting</p>
                            <div style=""width:240px; margin: auto;"">
                                <img src=""images/gray_28.png"" style= ""width:200px""alt=""img"">
                            </div>
                        </div>","29","","0","images/gray_28.png","","","","exciting"
"","","","","","html-slider-response","175","752442","0.0-169.0","j4jm7rews8","NaN","<div style=""width:500px;"">
                            <p style=""font-size:50px; font-weight:bold;""
                            >exciting</p>
                            <div style=""width:240px; margin: auto;"">
                                <img src=""images/gray_40.png"" style= ""width:200px""alt=""img"">
                            </div>
                        </div>","-101","","0","images/gray_40.png","","","","exciting"
"","","","","","html-slider-response","176","755259","0.0-170.0","j4jm7rews8","NaN","<div style=""width:500px;"">
                            <p style=""font-size:50px; font-weight:bold;""
                            >exciting</p>
                            <div style=""width:240px; margin: auto;"">
                                <img src=""images/gray_30.png"" style= ""width:200px""alt=""img"">
                            </div>
                        </div>","-195","","0","images/gray_30.png","","","","exciting"
"","","","","","html-slider-response","177","758080","0.0-171.0","j4jm7rews8","NaN","<div style=""width:500px;"">
                            <p style=""font-size:50px; font-weight:bold;""
                            >exciting</p>
                            <div style=""width:240px; margin: auto;"">
                                <img src=""images/gray_21.png"" style= ""width:200px""alt=""img"">
                            </div>
                        </div>","195","","0","images/gray_21.png","","","","exciting"
"","","","","","html-slider-response","178","760177","0.0-172.0","j4jm7rews8","NaN","<div style=""width:500px;"">
                            <p style=""font-size:50px; font-weight:bold;""
                            >exciting</p>
                            <div style=""width:240px; margin: auto;"">
                                <img src=""images/gray_02.png"" style= ""width:200px""alt=""img"">
                            </div>
                        </div>","-146","","0","images/gray_02.png","","","","exciting"
"","","","","","html-slider-response","179","762443","0.0-173.0","j4jm7rews8","NaN","<div style=""width:500px;"">
                            <p style=""font-size:50px; font-weight:bold;""
                            >exciting</p>
                            <div style=""width:240px; margin: auto;"">
                                <img src=""images/gray_35.png"" style= ""width:200px""alt=""img"">
                            </div>
                        </div>","51","","0","images/gray_35.png","","","","exciting"
"","","","","","html-slider-response","180","764532","0.0-174.0","j4jm7rews8","NaN","<div style=""width:500px;"">
                            <p style=""font-size:50px; font-weight:bold;""
                            >exciting</p>
                            <div style=""width:240px; margin: auto;"">
                                <img src=""images/gray_32.png"" style= ""width:200px""alt=""img"">
                            </div>
                        </div>","-162","","0","images/gray_32.png","","","","exciting"
"","","","","","html-slider-response","181","766695","0.0-175.0","j4jm7rews8","NaN","<div style=""width:500px;"">
                            <p style=""font-size:50px; font-weight:bold;""
                            >exciting</p>
                            <div style=""width:240px; margin: auto;"">
                                <img src=""images/gray_20.png"" style= ""width:200px""alt=""img"">
                            </div>
                        </div>","-140","","0","images/gray_20.png","","","","exciting"
"","","","","","html-slider-response","182","768893","0.0-176.0","j4jm7rews8","NaN","<div style=""width:500px;"">
                            <p style=""font-size:50px; font-weight:bold;""
                            >exciting</p>
                            <div style=""width:240px; margin: auto;"">
                                <img src=""images/gray_13.png"" style= ""width:200px""alt=""img"">
                            </div>
                        </div>","-178","","0","images/gray_13.png","","","","exciting"
"","","","","","html-slider-response","183","771992","0.0-177.0","j4jm7rews8","NaN","<div style=""width:500px;"">
                            <p style=""font-size:50px; font-weight:bold;""
                            >exciting</p>
                            <div style=""width:240px; margin: auto;"">
                                <img src=""images/gray_04.png"" style= ""width:200px""alt=""img"">
                            </div>
                        </div>","54","","0","images/gray_04.png","","","","exciting"
"","","","","","html-slider-response","184","774062","0.0-178.0","j4jm7rews8","NaN","<div style=""width:500px;"">
                            <p style=""font-size:50px; font-weight:bold;""
                            >exciting</p>
                            <div style=""width:240px; margin: auto;"">
                                <img src=""images/gray_44.png"" style= ""width:200px""alt=""img"">
                            </div>
                        </div>","31","","0","images/gray_44.png","","","","exciting"
"","","","","","html-slider-response","185","776464","0.0-179.0","j4jm7rews8","NaN","<div style=""width:500px;"">
                            <p style=""font-size:50px; font-weight:bold;""
                            >exciting</p>
                            <div style=""width:240px; margin: auto;"">
                                <img src=""images/gray_01.png"" style= ""width:200px""alt=""img"">
                            </div>
                        </div>","-102","","0","images/gray_01.png","","","","exciting"
"","","","","","html-slider-response","186","778793","0.0-180.0","j4jm7rews8","NaN","<div style=""width:500px;"">
                            <p style=""font-size:50px; font-weight:bold;""
                            >exciting</p>
                            <div style=""width:240px; margin: auto;"">
                                <img src=""images/gray_07.png"" style= ""width:200px""alt=""img"">
                            </div>
                        </div>","-200","","0","images/gray_07.png","","","","exciting"
"","","","","","html-slider-response","187","781192","0.0-181.0","j4jm7rews8","NaN","<div style=""width:500px;"">
                            <p style=""font-size:50px; font-weight:bold;""
                            >exciting</p>
                            <div style=""width:240px; margin: auto;"">
                                <img src=""images/gray_03.png"" style= ""width:200px""alt=""img"">
                            </div>
                        </div>","-98","","0","images/gray_03.png","","","","exciting"
"","","","","","html-slider-response","188","783627","0.0-182.0","j4jm7rews8","NaN","<div style=""width:500px;"">
                            <p style=""font-size:50px; font-weight:bold;""
                            >exciting</p>
                            <div style=""width:240px; margin: auto;"">
                                <img src=""images/gray_16.png"" style= ""width:200px""alt=""img"">
                            </div>
                        </div>","14","","0","images/gray_16.png","","","","exciting"
"","","","","","html-slider-response","189","786126","0.0-183.0","j4jm7rews8","NaN","<div style=""width:500px;"">
                            <p style=""font-size:50px; font-weight:bold;""
                            >exciting</p>
                            <div style=""width:240px; margin: auto;"">
                                <img src=""images/gray_15.png"" style= ""width:200px""alt=""img"">
                            </div>
                        </div>","-144","","0","images/gray_15.png","","","","exciting"
"","","","","","html-slider-response","190","788842","0.0-184.0","j4jm7rews8","NaN","<div style=""width:500px;"">
                            <p style=""font-size:50px; font-weight:bold;""
                            >exciting</p>
                            <div style=""width:240px; margin: auto;"">
                                <img src=""images/gray_33.png"" style= ""width:200px""alt=""img"">
                            </div>
                        </div>","-198","","0","images/gray_33.png","","","","exciting"
"","","","","","html-slider-response","191","791544","0.0-185.0","j4jm7rews8","NaN","<div style=""width:500px;"">
                            <p style=""font-size:50px; font-weight:bold;""
                            >exciting</p>
                            <div style=""width:240px; margin: auto;"">
                                <img src=""images/gray_29.png"" style= ""width:200px""alt=""img"">
                            </div>
                        </div>","92","","0","images/gray_29.png","","","","exciting"
"","","","","","html-slider-response","192","793361","0.0-186.0","j4jm7rews8","NaN","<div style=""width:500px;"">
                            <p style=""font-size:50px; font-weight:bold;""
                            >exciting</p>
                            <div style=""width:240px; margin: auto;"">
                                <img src=""images/gray_26.png"" style= ""width:200px""alt=""img"">
                            </div>
                        </div>","-106","","0","images/gray_26.png","","","","exciting"
"","","","","","html-slider-response","193","795510","0.0-187.0","j4jm7rews8","NaN","<div style=""width:500px;"">
                            <p style=""font-size:50px; font-weight:bold;""
                            >exciting</p>
                            <div style=""width:240px; margin: auto;"">
                                <img src=""images/gray_38.png"" style= ""width:200px""alt=""img"">
                            </div>
                        </div>","-46","","0","images/gray_38.png","","","","exciting"
"","","","","","html-slider-response","194","798059","0.0-188.0","j4jm7rews8","NaN","<div style=""width:500px;"">
                            <p style=""font-size:50px; font-weight:bold;""
                            >exciting</p>
                            <div style=""width:240px; margin: auto;"">
                                <img src=""images/gray_18.png"" style= ""width:200px""alt=""img"">
                            </div>
                        </div>","47","","0","images/gray_18.png","","","","exciting"
"","","","","","html-slider-response","195","801161","0.0-189.0","j4jm7rews8","NaN","<div style=""width:500px;"">
                            <p style=""font-size:50px; font-weight:bold;""
                            >exciting</p>
                            <div style=""width:240px; margin: auto;"">
                                <img src=""images/gray_10.png"" style= ""width:200px""alt=""img"">
                            </div>
                        </div>","-69","","0","images/gray_10.png","","","","exciting"
"","","","","","html-slider-response","196","803477","0.0-190.0","j4jm7rews8","NaN","<div style=""width:500px;"">
                            <p style=""font-size:50px; font-weight:bold;""
                            >exciting</p>
                            <div style=""width:240px; margin: auto;"">
                                <img src=""images/gray_14.png"" style= ""width:200px""alt=""img"">
                            </div>
                        </div>","19","","0","images/gray_14.png","","","","exciting"
"","","","","","html-slider-response","197","805662","0.0-191.0","j4jm7rews8","NaN","<div style=""width:500px;"">
                            <p style=""font-size:50px; font-weight:bold;""
                            >exciting</p>
                            <div style=""width:240px; margin: auto;"">
                                <img src=""images/gray_12.png"" style= ""width:200px""alt=""img"">
                            </div>
                        </div>","-128","","0","images/gray_12.png","","","","exciting"
"","","","","","html-slider-response","198","808281","0.0-192.0","j4jm7rews8","NaN","<div style=""width:500px;"">
                            <p style=""font-size:50px; font-weight:bold;""
                            >exciting</p>
                            <div style=""width:240px; margin: auto;"">
                                <img src=""images/gray_09.png"" style= ""width:200px""alt=""img"">
                            </div>
                        </div>","-164","","0","images/gray_09.png","","","","exciting"
"","","","","","html-slider-response","199","810581","0.0-193.0","j4jm7rews8","NaN","<div style=""width:500px;"">
