"success","timeout","failed_images","failed_audio","failed_video","trial_type","trial_index","time_elapsed","internal_node_id","subject_id","rt","stimulus","response","question_order","slider_start","image_path","practiceTrial","practiceTrialNum","correct","concept"
"true","false","[]","[]","[]","preload","0","786","0.0-0.0","jbnjz4bxda","","","","","","","","","",""
"","","","","","html-button-response","1","4603","0.0-1.0","jbnjz4bxda","3815","Welcome to our experiment!<p>At the bottom of this screen, you will see a button that says ""Begin Experiment"".<br>Please only click that button when you are ready to complete the 25 minute experiment in one sitting.</p><p> Once you click that button, it will not be possible to restart the experiment.","0","","","","","","",""
"true","","","","","fullscreen","2","6566","0.0-2.0","jbnjz4bxda","949","","","","","","","","",""
"","","","","","survey-multi-select","3","10430","0.0-3.0","jbnjz4bxda","3858","","{""Consent"":[""<strong>I consent</strong>""]}","[0]","","","","","",""
"","","","","","html-button-response","4","12144","0.0-4.0","jbnjz4bxda","1711","Welcome! <p> This experiment involves two parts: demographic information, followed by the experimental task.<p> It will take about 25 minutes to complete both parts.","0","","","","","","",""
"","","","","","survey-text","5","32735","0.0-5.0","jbnjz4bxda","20583","","{""Age"":""18"",""Gender"":""Female"",""Race/ethnicity"":""White"",""Languages"":""English, Chinese""}","","","","","","",""
"","","","","","html-slider-response","6","67079","0.0-6.0","jbnjz4bxda","34342","
            <div style='text-align:left; font-size:20px; line-height:25px; width: 1200px;'>
                During this experiment you will be asked to rate how much you associate maps with    different concepts.<br> Below, you can see some examples of the maps you will be asked to rate. Next to the maps
    is the list of concepts.<br>You will be asked    to rate how much you associate each map with each concept on a scale from 'not at all' to 'very much' like the
    one below. <br><br>
    Now, please look at the list of concepts and maps. For each concept, think about the map you associate 'very
    much' with the concept.<br>     When you see that map during the experiment, please rate it near the 'very much' endpoint of the
    scale.<br>Now, please think about which map you associate 'not at all'     with each concept. When you see that map during the experiment, please rate it near the 'not at all' endpoint
    of the scale.<br>
    Please use the full range of the scale. That is, if a map is somewhat associated with the concept, you would
    click partway between the middle point and right side of the scale.    You will be asked to rate each map for a given concept before moving on to the next concept.<br><br>Press the
    'Continue' button for instructions on how to use the slider.    <br><br>
</div>

<div style=""width: 500px; margin: 0 auto;"">
    <div style=""text-align: left; width: 200px; float: left;"">
        <p style=""font-size:25px; line-height:18px;"">calm</p>
        <p style=""font-size:25px; line-height:18px;"">exciting</p>
        <p style=""font-size:25px;line-height:18px;"">positive</p>
        <p style=""font-size:25px;line-height:18px;"">negative</p>
        <p style=""font-size:25px;line-height:18px;"">serious</p>
        <p style=""font-size:25px;line-height:18px;"">playful</p>
        <p style=""font-size:25px;line-height:18px;"">trustworthy</p>
        <p style=""font-size:25px;line-height:18px;"">disturbing</p>
    </div>
    <div style=""width: 200px; float: right; padding-top:15px; padding-right:40px"">
        <br>
        <br>
        <img src=""maps_anchoring.png"" alt=""img"" style=""max-width:500px"">
    </div>
    <div style=""clear: both;""></div>
</div>
            ","200","","0","maps_anchoring.png","true","","",""
"","","","","","html-button-response","7","68833","0.0-7.0","jbnjz4bxda","1754","<div style=""width:800px;""><p style=""text-align:left"">To move the slider, click and drag your cursor to the location of the scale where you would like to make your rating and then let go. When you let go of the slider, your response will be recorded and the next trial will begin. <br>
            We are interested in your initial impressions of each map for the given concept, so please go with your first intuition. <br>
            Before you begin the experiment, there will be four training trials for you to practice using the scale. <br>
             When you are ready to start the training trials, please click ""Continue"".</p><br></div>","0","","","","","","",""
"","","","","","html-slider-response","8","95262","0.0-8.0-0.0","jbnjz4bxda","NaN","<div style=""width:500px;"">
                            <p style=""font-size:25px;"">Please move the slider all the way to the <br> right endpoint of the scale</p>

                            </div>
                        </div>","101","","0","","true","0","false",""
"","","","","","html-button-response","9","98175","0.0-8.0-1.0","jbnjz4bxda","2403","<p align='center'><b>Not quite!</b> The slider was not placed near the instructed located. Click on 'Continue' to try again. </p>","0","","","","","","",""
"","","","","","html-slider-response","10","134612","0.0-8.1-0.1","jbnjz4bxda","NaN","<div style=""width:500px;"">
                            <p style=""font-size:25px;"">Please move the slider all the way to the <br> right endpoint of the scale</p>

                            </div>
                        </div>","200","","0","","true","0","true",""
"","","","","","html-button-response","11","136154","0.0-8.1-1.1","jbnjz4bxda","1040","<p align='center'><b>Good job!</b> Click on 'Continue' to proceed.</p>","0","","","","","","",""
"","","","","","html-slider-response","12","138729","0.0-9.0-0.0","jbnjz4bxda","NaN","<div style=""width:500px;"">
                            <p style=""font-size:25px;"">Please move the slider all the way to the <br> left endpoint of the scale</p>

                            </div>
                        </div>","-200","","0","","true","1","true",""
"","","","","","html-button-response","13","139961","0.0-9.0-1.0","jbnjz4bxda","730","<p align='center'><b>Good job!</b> Click on 'Continue' to proceed.</p>","0","","","","","","",""
"","","","","","html-slider-response","14","142246","0.0-10.0-0.0","jbnjz4bxda","NaN","<div style=""width:500px;"">
                            <p style=""font-size:25px;"">Please move the slider halfway between the center and right endpoint of the scale</p>

                            </div>
                        </div>","109","","0","","true","2","true",""
"","","","","","html-button-response","15","143405","0.0-10.0-1.0","jbnjz4bxda","656","<p align='center'><b>Good job!</b> Click on 'Continue' to proceed.</p>","0","","","","","","",""
"","","","","","html-slider-response","16","144776","0.0-11.0-0.0","jbnjz4bxda","NaN","<div style=""width:500px;"">
                            <p style=""font-size:25px;"">Please move the slider halfway between the center and left endpoint of the scale</p>

                            </div>
                        </div>","-110","","0","","true","3","true",""
"","","","","","html-button-response","17","146140","0.0-11.0-1.0","jbnjz4bxda","862","<p align='center'><b>Good job!</b> Click on 'Continue' to proceed.</p>","0","","","","","","",""
"","","","","","html-button-response","18","147135","0.0-12.0","jbnjz4bxda","990","<p>Great job! You've completed the practice trials. Now you will begin the main task.</p>","0","","","","","","",""
"","","","","","html-button-response","19","148690","0.0-13.0","jbnjz4bxda","1553","<p>In this block of trials, you will be asked to rate how much you associate each map with:</p > <p style = 'font-size:150%; font-weight: bold'>exciting</p><br></br>","0","","","","","","",""
"","","","","","html-slider-response","20","152397","0.0-14.0","jbnjz4bxda","NaN","<div style=""width:500px;"">
                            <p style=""font-size:50px; font-weight:bold;""
                            >exciting</p>
                            <div style=""width:240px; margin: auto;"">
                                <img src=""images/gray_11.png"" style= ""width:200px""alt=""img"">
                            </div>
                        </div>","96","","0","images/gray_11.png","","","","exciting"
"","","","","","html-slider-response","21","156335","0.0-15.0","jbnjz4bxda","NaN","<div style=""width:500px;"">
                            <p style=""font-size:50px; font-weight:bold;""
                            >exciting</p>
                            <div style=""width:240px; margin: auto;"">
                                <img src=""images/gray_03.png"" style= ""width:200px""alt=""img"">
                            </div>
                        </div>","105","","0","images/gray_03.png","","","","exciting"
"","","","","","html-slider-response","22","160123","0.0-16.0","jbnjz4bxda","NaN","<div style=""width:500px;"">
                            <p style=""font-size:50px; font-weight:bold;""
                            >exciting</p>
                            <div style=""width:240px; margin: auto;"">
                                <img src=""images/gray_25.png"" style= ""width:200px""alt=""img"">
                            </div>
                        </div>","-49","","0","images/gray_25.png","","","","exciting"
"","","","","","html-slider-response","23","161777","0.0-17.0","jbnjz4bxda","NaN","<div style=""width:500px;"">
                            <p style=""font-size:50px; font-weight:bold;""
                            >exciting</p>
                            <div style=""width:240px; margin: auto;"">
                                <img src=""images/gray_23.png"" style= ""width:200px""alt=""img"">
                            </div>
                        </div>","70","","0","images/gray_23.png","","","","exciting"
"","","","","","html-slider-response","24","165333","0.0-18.0","jbnjz4bxda","NaN","<div style=""width:500px;"">
                            <p style=""font-size:50px; font-weight:bold;""
                            >exciting</p>
                            <div style=""width:240px; margin: auto;"">
                                <img src=""images/gray_24.png"" style= ""width:200px""alt=""img"">
                            </div>
                        </div>","-64","","0","images/gray_24.png","","","","exciting"
"","","","","","html-slider-response","25","166988","0.0-19.0","jbnjz4bxda","NaN","<div style=""width:500px;"">
                            <p style=""font-size:50px; font-weight:bold;""
                            >exciting</p>
                            <div style=""width:240px; margin: auto;"">
                                <img src=""images/gray_41.png"" style= ""width:200px""alt=""img"">
                            </div>
                        </div>","-58","","0","images/gray_41.png","","","","exciting"
"","","","","","html-slider-response","26","168603","0.0-20.0","jbnjz4bxda","NaN","<div style=""width:500px;"">
                            <p style=""font-size:50px; font-weight:bold;""
                            >exciting</p>
                            <div style=""width:240px; margin: auto;"">
                                <img src=""images/gray_40.png"" style= ""width:200px""alt=""img"">
                            </div>
                        </div>","-59","","0","images/gray_40.png","","","","exciting"
"","","","","","html-slider-response","27","170599","0.0-21.0","jbnjz4bxda","NaN","<div style=""width:500px;"">
                            <p style=""font-size:50px; font-weight:bold;""
                            >exciting</p>
                            <div style=""width:240px; margin: auto;"">
                                <img src=""images/gray_42.png"" style= ""width:200px""alt=""img"">
                            </div>
                        </div>","0","","0","images/gray_42.png","","","","exciting"
"","","","","","html-slider-response","28","173834","0.0-22.0","jbnjz4bxda","NaN","<div style=""width:500px;"">
                            <p style=""font-size:50px; font-weight:bold;""
                            >exciting</p>
                            <div style=""width:240px; margin: auto;"">
                                <img src=""images/gray_26.png"" style= ""width:200px""alt=""img"">
                            </div>
                        </div>","67","","0","images/gray_26.png","","","","exciting"
"","","","","","html-slider-response","29","176421","0.0-23.0","jbnjz4bxda","NaN","<div style=""width:500px;"">
                            <p style=""font-size:50px; font-weight:bold;""
                            >exciting</p>
                            <div style=""width:240px; margin: auto;"">
                                <img src=""images/gray_44.png"" style= ""width:200px""alt=""img"">
                            </div>
                        </div>","46","","0","images/gray_44.png","","","","exciting"
"","","","","","html-slider-response","30","177169","0.0-24.0","jbnjz4bxda","NaN","<div style=""width:500px;"">
                            <p style=""font-size:50px; font-weight:bold;""
                            >exciting</p>
                            <div style=""width:240px; margin: auto;"">
                                <img src=""images/gray_12.png"" style= ""width:200px""alt=""img"">
                            </div>
                        </div>","46","","0","images/gray_12.png","","","","exciting"
"","","","","","html-slider-response","31","180363","0.0-25.0","jbnjz4bxda","NaN","<div style=""width:500px;"">
                            <p style=""font-size:50px; font-weight:bold;""
                            >exciting</p>
                            <div style=""width:240px; margin: auto;"">
                                <img src=""images/gray_30.png"" style= ""width:200px""alt=""img"">
                            </div>
                        </div>","-88","","0","images/gray_30.png","","","","exciting"
"","","","","","html-slider-response","32","181907","0.0-26.0","jbnjz4bxda","NaN","<div style=""width:500px;"">
                            <p style=""font-size:50px; font-weight:bold;""
                            >exciting</p>
                            <div style=""width:240px; margin: auto;"">
                                <img src=""images/gray_28.png"" style= ""width:200px""alt=""img"">
                            </div>
                        </div>","-80","","0","images/gray_28.png","","","","exciting"
"","","","","","html-slider-response","33","183272","0.0-27.0","jbnjz4bxda","NaN","<div style=""width:500px;"">
                            <p style=""font-size:50px; font-weight:bold;""
                            >exciting</p>
                            <div style=""width:240px; margin: auto;"">
                                <img src=""images/gray_18.png"" style= ""width:200px""alt=""img"">
                            </div>
                        </div>","-80","","0","images/gray_18.png","","","","exciting"
"","","","","","html-slider-response","34","184823","0.0-28.0","jbnjz4bxda","NaN","<div style=""width:500px;"">
                            <p style=""font-size:50px; font-weight:bold;""
                            >exciting</p>
                            <div style=""width:240px; margin: auto;"">
                                <img src=""images/gray_13.png"" style= ""width:200px""alt=""img"">
                            </div>
                        </div>","-80","","0","images/gray_13.png","","","","exciting"
"","","","","","html-slider-response","35","186175","0.0-29.0","jbnjz4bxda","NaN","<div style=""width:500px;"">
                            <p style=""font-size:50px; font-weight:bold;""
                            >exciting</p>
                            <div style=""width:240px; margin: auto;"">
                                <img src=""images/gray_34.png"" style= ""width:200px""alt=""img"">
                            </div>
                        </div>","-80","","0","images/gray_34.png","","","","exciting"
"","","","","","html-slider-response","36","187916","0.0-30.0","jbnjz4bxda","NaN","<div style=""width:500px;"">
                            <p style=""font-size:50px; font-weight:bold;""
                            >exciting</p>
                            <div style=""width:240px; margin: auto;"">
                                <img src=""images/gray_04.png"" style= ""width:200px""alt=""img"">
                            </div>
                        </div>","75","","0","images/gray_04.png","","","","exciting"
"","","","","","html-slider-response","37","189338","0.0-31.0","jbnjz4bxda","NaN","<div style=""width:500px;"">
                            <p style=""font-size:50px; font-weight:bold;""
                            >exciting</p>
                            <div style=""width:240px; margin: auto;"">
                                <img src=""images/gray_38.png"" style= ""width:200px""alt=""img"">
                            </div>
                        </div>","86","","0","images/gray_38.png","","","","exciting"
"","","","","","html-slider-response","38","190834","0.0-32.0","jbnjz4bxda","NaN","<div style=""width:500px;"">
                            <p style=""font-size:50px; font-weight:bold;""
                            >exciting</p>
                            <div style=""width:240px; margin: auto;"">
                                <img src=""images/gray_10.png"" style= ""width:200px""alt=""img"">
                            </div>
                        </div>","53","","0","images/gray_10.png","","","","exciting"
"","","","","","html-slider-response","39","192346","0.0-33.0","jbnjz4bxda","NaN","<div style=""width:500px;"">
                            <p style=""font-size:50px; font-weight:bold;""
                            >exciting</p>
                            <div style=""width:240px; margin: auto;"">
                                <img src=""images/gray_36.png"" style= ""width:200px""alt=""img"">
                            </div>
                        </div>","114","","0","images/gray_36.png","","","","exciting"
"","","","","","html-slider-response","40","193748","0.0-34.0","jbnjz4bxda","NaN","<div style=""width:500px;"">
                            <p style=""font-size:50px; font-weight:bold;""
                            >exciting</p>
                            <div style=""width:240px; margin: auto;"">
                                <img src=""images/gray_09.png"" style= ""width:200px""alt=""img"">
                            </div>
                        </div>","53","","0","images/gray_09.png","","","","exciting"
"","","","","","html-slider-response","41","194977","0.0-35.0","jbnjz4bxda","NaN","<div style=""width:500px;"">
                            <p style=""font-size:50px; font-weight:bold;""
                            >exciting</p>
                            <div style=""width:240px; margin: auto;"">
                                <img src=""images/gray_20.png"" style= ""width:200px""alt=""img"">
                            </div>
                        </div>","18","","0","images/gray_20.png","","","","exciting"
"","","","","","html-slider-response","42","200102","0.0-36.0","jbnjz4bxda","NaN","<div style=""width:500px;"">
                            <p style=""font-size:50px; font-weight:bold;""
                            >exciting</p>
                            <div style=""width:240px; margin: auto;"">
                                <img src=""images/gray_08.png"" style= ""width:200px""alt=""img"">
                            </div>
                        </div>","37","","0","images/gray_08.png","","","","exciting"
"","","","","","html-slider-response","43","201227","0.0-37.0","jbnjz4bxda","NaN","<div style=""width:500px;"">
                            <p style=""font-size:50px; font-weight:bold;""
                            >exciting</p>
                            <div style=""width:240px; margin: auto;"">
                                <img src=""images/gray_21.png"" style= ""width:200px""alt=""img"">
                            </div>
                        </div>","37","","0","images/gray_21.png","","","","exciting"
"","","","","","html-slider-response","44","204700","0.0-38.0","jbnjz4bxda","NaN","<div style=""width:500px;"">
                            <p style=""font-size:50px; font-weight:bold;""
                            >exciting</p>
                            <div style=""width:240px; margin: auto;"">
                                <img src=""images/gray_01.png"" style= ""width:200px""alt=""img"">
                            </div>
                        </div>","37","","0","images/gray_01.png","","","","exciting"
"","","","","","html-slider-response","45","205865","0.0-39.0","jbnjz4bxda","NaN","<div style=""width:500px;"">
                            <p style=""font-size:50px; font-weight:bold;""
                            >exciting</p>
                            <div style=""width:240px; margin: auto;"">
                                <img src=""images/gray_06.png"" style= ""width:200px""alt=""img"">
                            </div>
                        </div>","37","","0","images/gray_06.png","","","","exciting"
"","","","","","html-slider-response","46","207135","0.0-40.0","jbnjz4bxda","NaN","<div style=""width:500px;"">
                            <p style=""font-size:50px; font-weight:bold;""
                            >exciting</p>
                            <div style=""width:240px; margin: auto;"">
                                <img src=""images/gray_15.png"" style= ""width:200px""alt=""img"">
                            </div>
                        </div>","-86","","0","images/gray_15.png","","","","exciting"
"","","","","","html-slider-response","47","208054","0.0-41.0","jbnjz4bxda","NaN","<div style=""width:500px;"">
                            <p style=""font-size:50px; font-weight:bold;""
                            >exciting</p>
                            <div style=""width:240px; margin: auto;"">
                                <img src=""images/gray_35.png"" style= ""width:200px""alt=""img"">
                            </div>
                        </div>","-86","","0","images/gray_35.png","","","","exciting"
"","","","","","html-slider-response","48","209102","0.0-42.0","jbnjz4bxda","NaN","<div style=""width:500px;"">
                            <p style=""font-size:50px; font-weight:bold;""
                            >exciting</p>
                            <div style=""width:240px; margin: auto;"">
                                <img src=""images/gray_17.png"" style= ""width:200px""alt=""img"">
                            </div>
                        </div>","-86","","0","images/gray_17.png","","","","exciting"
"","","","","","html-slider-response","49","210262","0.0-43.0","jbnjz4bxda","NaN","<div style=""width:500px;"">
                            <p style=""font-size:50px; font-weight:bold;""
                            >exciting</p>
                            <div style=""width:240px; margin: auto;"">
                                <img src=""images/gray_05.png"" style= ""width:200px""alt=""img"">
                            </div>
                        </div>","-86","","0","images/gray_05.png","","","","exciting"
"","","","","","html-slider-response","50","211871","0.0-44.0","jbnjz4bxda","NaN","<div style=""width:500px;"">
                            <p style=""font-size:50px; font-weight:bold;""
                            >exciting</p>
                            <div style=""width:240px; margin: auto;"">
                                <img src=""images/gray_14.png"" style= ""width:200px""alt=""img"">
                            </div>
                        </div>","94","","0","images/gray_14.png","","","","exciting"
"","","","","","html-slider-response","51","213033","0.0-45.0","jbnjz4bxda","NaN","<div style=""width:500px;"">
                            <p style=""font-size:50px; font-weight:bold;""
                            >exciting</p>
                            <div style=""width:240px; margin: auto;"">
                                <img src=""images/gray_43.png"" style= ""width:200px""alt=""img"">
                            </div>
                        </div>","-107","","0","images/gray_43.png","","","","exciting"
"","","","","","html-slider-response","52","214175","0.0-46.0","jbnjz4bxda","NaN","<div style=""width:500px;"">
                            <p style=""font-size:50px; font-weight:bold;""
                            >exciting</p>
                            <div style=""width:240px; margin: auto;"">
                                <img src=""images/gray_27.png"" style= ""width:200px""alt=""img"">
                            </div>
                        </div>","-107","","0","images/gray_27.png","","","","exciting"
"","","","","","html-slider-response","53","215981","0.0-47.0","jbnjz4bxda","NaN","<div style=""width:500px;"">
                            <p style=""font-size:50px; font-weight:bold;""
                            >exciting</p>
                            <div style=""width:240px; margin: auto;"">
                                <img src=""images/gray_16.png"" style= ""width:200px""alt=""img"">
                            </div>
                        </div>","-67","","0","images/gray_16.png","","","","exciting"
"","","","","","html-slider-response","54","217363","0.0-48.0","jbnjz4bxda","NaN","<div style=""width:500px;"">
                            <p style=""font-size:50px; font-weight:bold;""
                            >exciting</p>
                            <div style=""width:240px; margin: auto;"">
                                <img src=""images/gray_31.png"" style= ""width:200px""alt=""img"">
                            </div>
                        </div>","-63","","0","images/gray_31.png","","","","exciting"
"","","","","","html-slider-response","55","218738","0.0-49.0","jbnjz4bxda","NaN","<div style=""width:500px;"">
                            <p style=""font-size:50px; font-weight:bold;""
                            >exciting</p>
                            <div style=""width:240px; margin: auto;"">
                                <img src=""images/gray_07.png"" style= ""width:200px""alt=""img"">
                            </div>
                        </div>","34","","0","images/gray_07.png","","","","exciting"
"","","","","","html-slider-response","56","220475","0.0-50.0","jbnjz4bxda","NaN","<div style=""width:500px;"">
                            <p style=""font-size:50px; font-weight:bold;""
                            >exciting</p>
                            <div style=""width:240px; margin: auto;"">
                                <img src=""images/gray_29.png"" style= ""width:200px""alt=""img"">
                            </div>
                        </div>","50","","0","images/gray_29.png","","","","exciting"
"","","","","","html-slider-response","57","222110","0.0-51.0","jbnjz4bxda","NaN","<div style=""width:500px;"">
                            <p style=""font-size:50px; font-weight:bold;""
                            >exciting</p>
                            <div style=""width:240px; margin: auto;"">
                                <img src=""images/gray_02.png"" style= ""width:200px""alt=""img"">
                            </div>
                        </div>","-66","","0","images/gray_02.png","","","","exciting"
"","","","","","html-slider-response","58","223283","0.0-52.0","jbnjz4bxda","NaN","<div style=""width:500px;"">
                            <p style=""font-size:50px; font-weight:bold;""
                            >exciting</p>
                            <div style=""width:240px; margin: auto;"">
                                <img src=""images/gray_33.png"" style= ""width:200px""alt=""img"">
                            </div>
                        </div>","-56","","0","images/gray_33.png","","","","exciting"
"","","","","","html-slider-response","59","224864","0.0-53.0","jbnjz4bxda","NaN","<div style=""width:500px;"">
                            <p style=""font-size:50px; font-weight:bold;""
                            >exciting</p>
                            <div style=""width:240px; margin: auto;"">
                                <img src=""images/gray_19.png"" style= ""width:200px""alt=""img"">
                            </div>
                        </div>","48","","0","images/gray_19.png","","","","exciting"
"","","","","","html-slider-response","60","228920","0.0-54.0","jbnjz4bxda","NaN","<div style=""width:500px;"">
                            <p style=""font-size:50px; font-weight:bold;""
                            >exciting</p>
                            <div style=""width:240px; margin: auto;"">
                                <img src=""images/gray_32.png"" style= ""width:200px""alt=""img"">
                            </div>
                        </div>","69","","0","images/gray_32.png","","","","exciting"
"","","","","","html-slider-response","61","230438","0.0-55.0","jbnjz4bxda","NaN","<div style=""width:500px;"">
                            <p style=""font-size:50px; font-weight:bold;""
                            >exciting</p>
                            <div style=""width:240px; margin: auto;"">
                                <img src=""images/gray_39.png"" style= ""width:200px""alt=""img"">
                            </div>
                        </div>","-71","","0","images/gray_39.png","","","","exciting"
"","","","","","html-slider-response","62","231507","0.0-56.0","jbnjz4bxda","NaN","<div style=""width:500px;"">
                            <p style=""font-size:50px; font-weight:bold;""
                            >exciting</p>
                            <div style=""width:240px; margin: auto;"">
                                <img src=""images/gray_37.png"" style= ""width:200px""alt=""img"">
                            </div>
                        </div>","-71","","0","images/gray_37.png","","","","exciting"
"","","","","","html-slider-response","63","232503","0.0-57.0","jbnjz4bxda","NaN","<div style=""width:500px;"">
                            <p style=""font-size:50px; font-weight:bold;""
                            >exciting</p>
                            <div style=""width:240px; margin: auto;"">
                                <img src=""images/gray_22.png"" style= ""width:200px""alt=""img"">
                            </div>
                        </div>","-71","","0","images/gray_22.png","","","","exciting"
"","","","","","html-button-response","64","234405","0.0-58.0","jbnjz4bxda","1393","<p>Great Job! You've finished block 1.<br></br> You have 7 block(s) left to go.<br></br></p>","0","","","","","","",""
"","","","","","html-button-response","65","236543","0.0-59.0","jbnjz4bxda","2137","<p>In this block of trials, you will be asked to rate how much you associate each map with:</p > <p style = 'font-size:150%; font-weight: bold'>serious</p><br></br>","0","","","","","","",""
"","","","","","html-slider-response","66","238454","0.0-60.0","jbnjz4bxda","NaN","<div style=""width:500px;"">
                            <p style=""font-size:50px; font-weight:bold;""
                            >serious</p>
                            <div style=""width:240px; margin: auto;"">
                                <img src=""images/gray_28.png"" style= ""width:200px""alt=""img"">
                            </div>
                        </div>","-97","","0","images/gray_28.png","","","","serious"
"","","","","","html-slider-response","67","239803","0.0-61.0","jbnjz4bxda","NaN","<div style=""width:500px;"">
                            <p style=""font-size:50px; font-weight:bold;""
                            >serious</p>
                            <div style=""width:240px; margin: auto;"">
                                <img src=""images/gray_24.png"" style= ""width:200px""alt=""img"">
                            </div>
                        </div>","-97","","0","images/gray_24.png","","","","serious"
"","","","","","html-slider-response","68","241354","0.0-62.0","jbnjz4bxda","NaN","<div style=""width:500px;"">
                            <p style=""font-size:50px; font-weight:bold;""
                            >serious</p>
                            <div style=""width:240px; margin: auto;"">
                                <img src=""images/gray_12.png"" style= ""width:200px""alt=""img"">
                            </div>
                        </div>","116","","0","images/gray_12.png","","","","serious"
"","","","","","html-slider-response","69","243496","0.0-63.0","jbnjz4bxda","NaN","<div style=""width:500px;"">
                            <p style=""font-size:50px; font-weight:bold;""
                            >serious</p>
                            <div style=""width:240px; margin: auto;"">
                                <img src=""images/gray_42.png"" style= ""width:200px""alt=""img"">
                            </div>
                        </div>","27","","0","images/gray_42.png","","","","serious"
"","","","","","html-slider-response","70","244853","0.0-64.0","jbnjz4bxda","NaN","<div style=""width:500px;"">
                            <p style=""font-size:50px; font-weight:bold;""
                            >serious</p>
                            <div style=""width:240px; margin: auto;"">
                                <img src=""images/gray_11.png"" style= ""width:200px""alt=""img"">
                            </div>
                        </div>","27","","0","images/gray_11.png","","","","serious"
"","","","","","html-slider-response","71","246212","0.0-65.0","jbnjz4bxda","NaN","<div style=""width:500px;"">
                            <p style=""font-size:50px; font-weight:bold;""
                            >serious</p>
                            <div style=""width:240px; margin: auto;"">
                                <img src=""images/gray_41.png"" style= ""width:200px""alt=""img"">
                            </div>
                        </div>","27","","0","images/gray_41.png","","","","serious"
"","","","","","html-slider-response","72","247428","0.0-66.0","jbnjz4bxda","NaN","<div style=""width:500px;"">
                            <p style=""font-size:50px; font-weight:bold;""
                            >serious</p>
                            <div style=""width:240px; margin: auto;"">
                                <img src=""images/gray_30.png"" style= ""width:200px""alt=""img"">
                            </div>
                        </div>","27","","0","images/gray_30.png","","","","serious"
"","","","","","html-slider-response","73","248646","0.0-67.0","jbnjz4bxda","NaN","<div style=""width:500px;"">
                            <p style=""font-size:50px; font-weight:bold;""
                            >serious</p>
                            <div style=""width:240px; margin: auto;"">
                                <img src=""images/gray_01.png"" style= ""width:200px""alt=""img"">
                            </div>
                        </div>","27","","0","images/gray_01.png","","","","serious"
"","","","","","html-slider-response","74","249832","0.0-68.0","jbnjz4bxda","NaN","<div style=""width:500px;"">
                            <p style=""font-size:50px; font-weight:bold;""
                            >serious</p>
                            <div style=""width:240px; margin: auto;"">
                                <img src=""images/gray_35.png"" style= ""width:200px""alt=""img"">
                            </div>
                        </div>","27","","0","images/gray_35.png","","","","serious"
"","","","","","html-slider-response","75","251746","0.0-69.0","jbnjz4bxda","NaN","<div style=""width:500px;"">
                            <p style=""font-size:50px; font-weight:bold;""
                            >serious</p>
                            <div style=""width:240px; margin: auto;"">
                                <img src=""images/gray_44.png"" style= ""width:200px""alt=""img"">
                            </div>
                        </div>","27","","0","images/gray_44.png","","","","serious"
"","","","","","html-slider-response","76","252584","0.0-70.0","jbnjz4bxda","NaN","<div style=""width:500px;"">
                            <p style=""font-size:50px; font-weight:bold;""
                            >serious</p>
                            <div style=""width:240px; margin: auto;"">
                                <img src=""images/gray_26.png"" style= ""width:200px""alt=""img"">
                            </div>
                        </div>","27","","0","images/gray_26.png","","","","serious"
"","","","","","html-slider-response","77","253439","0.0-71.0","jbnjz4bxda","NaN","<div style=""width:500px;"">
                            <p style=""font-size:50px; font-weight:bold;""
                            >serious</p>
                            <div style=""width:240px; margin: auto;"">
                                <img src=""images/gray_23.png"" style= ""width:200px""alt=""img"">
                            </div>
                        </div>","27","","0","images/gray_23.png","","","","serious"
"","","","","","html-slider-response","78","254253","0.0-72.0","jbnjz4bxda","NaN","<div style=""width:500px;"">
                            <p style=""font-size:50px; font-weight:bold;""
                            >serious</p>
                            <div style=""width:240px; margin: auto;"">
                                <img src=""images/gray_04.png"" style= ""width:200px""alt=""img"">
                            </div>
                        </div>","27","","0","images/gray_04.png","","","","serious"
"","","","","","html-slider-response","79","255373","0.0-73.0","jbnjz4bxda","NaN","<div style=""width:500px;"">
                            <p style=""font-size:50px; font-weight:bold;""
                            >serious</p>
                            <div style=""width:240px; margin: auto;"">
                                <img src=""images/gray_10.png"" style= ""width:200px""alt=""img"">
                            </div>
                        </div>","27","","0","images/gray_10.png","","","","serious"
"","","","","","html-slider-response","80","256196","0.0-74.0","jbnjz4bxda","NaN","<div style=""width:500px;"">
                            <p style=""font-size:50px; font-weight:bold;""
                            >serious</p>
                            <div style=""width:240px; margin: auto;"">
                                <img src=""images/gray_34.png"" style= ""width:200px""alt=""img"">
                            </div>
                        </div>","27","","0","images/gray_34.png","","","","serious"
"","","","","","html-slider-response","81","257316","0.0-75.0","jbnjz4bxda","NaN","<div style=""width:500px;"">
                            <p style=""font-size:50px; font-weight:bold;""
                            >serious</p>
                            <div style=""width:240px; margin: auto;"">
                                <img src=""images/gray_25.png"" style= ""width:200px""alt=""img"">
                            </div>
                        </div>","27","","0","images/gray_25.png","","","","serious"
"","","","","","html-slider-response","82","258092","0.0-76.0","jbnjz4bxda","NaN","<div style=""width:500px;"">
                            <p style=""font-size:50px; font-weight:bold;""
                            >serious</p>
                            <div style=""width:240px; margin: auto;"">
                                <img src=""images/gray_21.png"" style= ""width:200px""alt=""img"">
                            </div>
                        </div>","27","","0","images/gray_21.png","","","","serious"
"","","","","","html-slider-response","83","259134","0.0-77.0","jbnjz4bxda","NaN","<div style=""width:500px;"">
                            <p style=""font-size:50px; font-weight:bold;""
                            >serious</p>
                            <div style=""width:240px; margin: auto;"">
                                <img src=""images/gray_36.png"" style= ""width:200px""alt=""img"">
                            </div>
                        </div>","27","","0","images/gray_36.png","","","","serious"
"","","","","","html-slider-response","84","260190","0.0-78.0","jbnjz4bxda","NaN","<div style=""width:500px;"">
                            <p style=""font-size:50px; font-weight:bold;""
                            >serious</p>
                            <div style=""width:240px; margin: auto;"">
                                <img src=""images/gray_02.png"" style= ""width:200px""alt=""img"">
                            </div>
                        </div>","27","","0","images/gray_02.png","","","","serious"
"","","","","","html-slider-response","85","261200","0.0-79.0","jbnjz4bxda","NaN","<div style=""width:500px;"">
                            <p style=""font-size:50px; font-weight:bold;""
                            >serious</p>
                            <div style=""width:240px; margin: auto;"">
                                <img src=""images/gray_39.png"" style= ""width:200px""alt=""img"">
                            </div>
                        </div>","27","","0","images/gray_39.png","","","","serious"
"","","","","","html-slider-response","86","262443","0.0-80.0","jbnjz4bxda","NaN","<div style=""width:500px;"">
                            <p style=""font-size:50px; font-weight:bold;""
                            >serious</p>
                            <div style=""width:240px; margin: auto;"">
                                <img src=""images/gray_27.png"" style= ""width:200px""alt=""img"">
                            </div>
                        </div>","27","","0","images/gray_27.png","","","","serious"
"","","","","","html-slider-response","87","263602","0.0-81.0","jbnjz4bxda","NaN","<div style=""width:500px;"">
                            <p style=""font-size:50px; font-weight:bold;""
                            >serious</p>
                            <div style=""width:240px; margin: auto;"">
                                <img src=""images/gray_17.png"" style= ""width:200px""alt=""img"">
                            </div>
                        </div>","27","","0","images/gray_17.png","","","","serious"
"","","","","","html-slider-response","88","264450","0.0-82.0","jbnjz4bxda","NaN","<div style=""width:500px;"">
                            <p style=""font-size:50px; font-weight:bold;""
                            >serious</p>
                            <div style=""width:240px; margin: auto;"">
                                <img src=""images/gray_16.png"" style= ""width:200px""alt=""img"">
                            </div>
                        </div>","27","","0","images/gray_16.png","","","","serious"
"","","","","","html-slider-response","89","265522","0.0-83.0","jbnjz4bxda","NaN","<div style=""width:500px;"">
                            <p style=""font-size:50px; font-weight:bold;""
                            >serious</p>
                            <div style=""width:240px; margin: auto;"">
                                <img src=""images/gray_07.png"" style= ""width:200px""alt=""img"">
                            </div>
                        </div>","27","","0","images/gray_07.png","","","","serious"
"","","","","","html-slider-response","90","266361","0.0-84.0","jbnjz4bxda","NaN","<div style=""width:500px;"">
                            <p style=""font-size:50px; font-weight:bold;""
                            >serious</p>
                            <div style=""width:240px; margin: auto;"">
                                <img src=""images/gray_05.png"" style= ""width:200px""alt=""img"">
                            </div>
                        </div>","27","","0","images/gray_05.png","","","","serious"
"","","","","","html-slider-response","91","267124","0.0-85.0","jbnjz4bxda","NaN","<div style=""width:500px;"">
                            <p style=""font-size:50px; font-weight:bold;""
                            >serious</p>
                            <div style=""width:240px; margin: auto;"">
                                <img src=""images/gray_37.png"" style= ""width:200px""alt=""img"">
                            </div>
                        </div>","27","","0","images/gray_37.png","","","","serious"
"","","","","","html-slider-response","92","268421","0.0-86.0","jbnjz4bxda","NaN","<div style=""width:500px;"">
                            <p style=""font-size:50px; font-weight:bold;""
                            >serious</p>
                            <div style=""width:240px; margin: auto;"">
                                <img src=""images/gray_20.png"" style= ""width:200px""alt=""img"">
                            </div>
                        </div>","27","","0","images/gray_20.png","","","","serious"
"","","","","","html-slider-response","93","269572","0.0-87.0","jbnjz4bxda","NaN","<div style=""width:500px;"">
                            <p style=""font-size:50px; font-weight:bold;""
                            >serious</p>
                            <div style=""width:240px; margin: auto;"">
                                <img src=""images/gray_06.png"" style= ""width:200px""alt=""img"">
                            </div>
                        </div>","27","","0","images/gray_06.png","","","","serious"
"","","","","","html-slider-response","94","270645","0.0-88.0","jbnjz4bxda","NaN","<div style=""width:500px;"">
                            <p style=""font-size:50px; font-weight:bold;""
                            >serious</p>
                            <div style=""width:240px; margin: auto;"">
                                <img src=""images/gray_19.png"" style= ""width:200px""alt=""img"">
                            </div>
                        </div>","27","","0","images/gray_19.png","","","","serious"
"","","","","","html-slider-response","95","271947","0.0-89.0","jbnjz4bxda","NaN","<div style=""width:500px;"">
                            <p style=""font-size:50px; font-weight:bold;""
                            >serious</p>
                            <div style=""width:240px; margin: auto;"">
                                <img src=""images/gray_08.png"" style= ""width:200px""alt=""img"">
                            </div>
                        </div>","27","","0","images/gray_08.png","","","","serious"
"","","","","","html-slider-response","96","273463","0.0-90.0","jbnjz4bxda","NaN","<div style=""width:500px;"">
                            <p style=""font-size:50px; font-weight:bold;""
                            >serious</p>
                            <div style=""width:240px; margin: auto;"">
                                <img src=""images/gray_29.png"" style= ""width:200px""alt=""img"">
                            </div>
                        </div>","27","","0","images/gray_29.png","","","","serious"
"","","","","","html-slider-response","97","274589","0.0-91.0","jbnjz4bxda","NaN","<div style=""width:500px;"">
                            <p style=""font-size:50px; font-weight:bold;""
                            >serious</p>
                            <div style=""width:240px; margin: auto;"">
                                <img src=""images/gray_31.png"" style= ""width:200px""alt=""img"">
                            </div>
                        </div>","27","","0","images/gray_31.png","","","","serious"
"","","","","","html-slider-response","98","276535","0.0-92.0","jbnjz4bxda","NaN","<div style=""width:500px;"">
                            <p style=""font-size:50px; font-weight:bold;""
                            >serious</p>
                            <div style=""width:240px; margin: auto;"">
                                <img src=""images/gray_43.png"" style= ""width:200px""alt=""img"">
                            </div>
                        </div>","-50","","0","images/gray_43.png","","","","serious"
"","","","","","html-slider-response","99","278254","0.0-93.0","jbnjz4bxda","NaN","<div style=""width:500px;"">
                            <p style=""font-size:50px; font-weight:bold;""
                            >serious</p>
                            <div style=""width:240px; margin: auto;"">
                                <img src=""images/gray_38.png"" style= ""width:200px""alt=""img"">
                            </div>
                        </div>","-112","","0","images/gray_38.png","","","","serious"
"","","","","","html-slider-response","100","279676","0.0-94.0","jbnjz4bxda","NaN","<div style=""width:500px;"">
                            <p style=""font-size:50px; font-weight:bold;""
                            >serious</p>
                            <div style=""width:240px; margin: auto;"">
                                <img src=""images/gray_32.png"" style= ""width:200px""alt=""img"">
                            </div>
                        </div>","51","","0","images/gray_32.png","","","","serious"
"","","","","","html-slider-response","101","280814","0.0-95.0","jbnjz4bxda","NaN","<div style=""width:500px;"">
                            <p style=""font-size:50px; font-weight:bold;""
                            >serious</p>
                            <div style=""width:240px; margin: auto;"">
                                <img src=""images/gray_15.png"" style= ""width:200px""alt=""img"">
                            </div>
                        </div>","51","","0","images/gray_15.png","","","","serious"
"","","","","","html-slider-response","102","281960","0.0-96.0","jbnjz4bxda","NaN","<div style=""width:500px;"">
                            <p style=""font-size:50px; font-weight:bold;""
                            >serious</p>
                            <div style=""width:240px; margin: auto;"">
                                <img src=""images/gray_03.png"" style= ""width:200px""alt=""img"">
                            </div>
                        </div>","51","","0","images/gray_03.png","","","","serious"
"","","","","","html-slider-response","103","283168","0.0-97.0","jbnjz4bxda","NaN","<div style=""width:500px;"">
                            <p style=""font-size:50px; font-weight:bold;""
                            >serious</p>
                            <div style=""width:240px; margin: auto;"">
                                <img src=""images/gray_13.png"" style= ""width:200px""alt=""img"">
                            </div>
                        </div>","51","","0","images/gray_13.png","","","","serious"
"","","","","","html-slider-response","104","284307","0.0-98.0","jbnjz4bxda","NaN","<div style=""width:500px;"">
                            <p style=""font-size:50px; font-weight:bold;""
                            >serious</p>
                            <div style=""width:240px; margin: auto;"">
                                <img src=""images/gray_33.png"" style= ""width:200px""alt=""img"">
                            </div>
                        </div>","51","","0","images/gray_33.png","","","","serious"
"","","","","","html-slider-response","105","286086","0.0-99.0","jbnjz4bxda","NaN","<div style=""width:500px;"">
                            <p style=""font-size:50px; font-weight:bold;""
                            >serious</p>
                            <div style=""width:240px; margin: auto;"">
                                <img src=""images/gray_40.png"" style= ""width:200px""alt=""img"">
                            </div>
                        </div>","51","","0","images/gray_40.png","","","","serious"
"","","","","","html-slider-response","106","287330","0.0-100.0","jbnjz4bxda","NaN","<div style=""width:500px;"">
                            <p style=""font-size:50px; font-weight:bold;""
                            >serious</p>
                            <div style=""width:240px; margin: auto;"">
                                <img src=""images/gray_18.png"" style= ""width:200px""alt=""img"">
                            </div>
                        </div>","51","","0","images/gray_18.png","","","","serious"
"","","","","","html-slider-response","107","288206","0.0-101.0","jbnjz4bxda","NaN","<div style=""width:500px;"">
                            <p style=""font-size:50px; font-weight:bold;""
                            >serious</p>
                            <div style=""width:240px; margin: auto;"">
                                <img src=""images/gray_14.png"" style= ""width:200px""alt=""img"">
                            </div>
                        </div>","51","","0","images/gray_14.png","","","","serious"
"","","","","","html-slider-response","108","289262","0.0-102.0","jbnjz4bxda","NaN","<div style=""width:500px;"">
                            <p style=""font-size:50px; font-weight:bold;""
                            >serious</p>
                            <div style=""width:240px; margin: auto;"">
                                <img src=""images/gray_09.png"" style= ""width:200px""alt=""img"">
                            </div>
                        </div>","51","","0","images/gray_09.png","","","","serious"
"","","","","","html-slider-response","109","290224","0.0-103.0","jbnjz4bxda","NaN","<div style=""width:500px;"">
                            <p style=""font-size:50px; font-weight:bold;""
                            >serious</p>
                            <div style=""width:240px; margin: auto;"">
                                <img src=""images/gray_22.png"" style= ""width:200px""alt=""img"">
                            </div>
                        </div>","51","","0","images/gray_22.png","","","","serious"
"","","","","","html-button-response","110","292084","0.0-104.0","jbnjz4bxda","1349","<p>Great Job! You've finished block 2.<br></br> You have 6 block(s) left to go.<br></br></p>","0","","","","","","",""
"","","","","","html-button-response","111","293085","0.0-105.0","jbnjz4bxda","1000","<p>In this block of trials, you will be asked to rate how much you associate each map with:</p > <p style = 'font-size:150%; font-weight: bold'>positive</p><br></br>","0","","","","","","",""
"","","","","","html-slider-response","112","295084","0.0-106.0","jbnjz4bxda","NaN","<div style=""width:500px;"">
                            <p style=""font-size:50px; font-weight:bold;""
                            >positive</p>
                            <div style=""width:240px; margin: auto;"">
                                <img src=""images/gray_19.png"" style= ""width:200px""alt=""img"">
                            </div>
                        </div>","-103","","0","images/gray_19.png","","","","positive"
"","","","","","html-slider-response","113","297298","0.0-107.0","jbnjz4bxda","NaN","<div style=""width:500px;"">
                            <p style=""font-size:50px; font-weight:bold;""
                            >positive</p>
                            <div style=""width:240px; margin: auto;"">
                                <img src=""images/gray_14.png"" style= ""width:200px""alt=""img"">
                            </div>
                        </div>","-96","","0","images/gray_14.png","","","","positive"
"","","","","","html-slider-response","114","298749","0.0-108.0","jbnjz4bxda","NaN","<div style=""width:500px;"">
                            <p style=""font-size:50px; font-weight:bold;""
                            >positive</p>
                            <div style=""width:240px; margin: auto;"">
                                <img src=""images/gray_26.png"" style= ""width:200px""alt=""img"">
                            </div>
                        </div>","-134","","0","images/gray_26.png","","","","positive"
"","","","","","html-slider-response","115","300432","0.0-109.0","jbnjz4bxda","NaN","<div style=""width:500px;"">
                            <p style=""font-size:50px; font-weight:bold;""
                            >positive</p>
                            <div style=""width:240px; margin: auto;"">
                                <img src=""images/gray_35.png"" style= ""width:200px""alt=""img"">
                            </div>
                        </div>","83","","0","images/gray_35.png","","","","positive"
"","","","","","html-slider-response","116","301779","0.0-110.0","jbnjz4bxda","NaN","<div style=""width:500px;"">
                            <p style=""font-size:50px; font-weight:bold;""
                            >positive</p>
                            <div style=""width:240px; margin: auto;"">
                                <img src=""images/gray_05.png"" style= ""width:200px""alt=""img"">
                            </div>
                        </div>","98","","0","images/gray_05.png","","","","positive"
"","","","","","html-slider-response","117","303720","0.0-111.0","jbnjz4bxda","NaN","<div style=""width:500px;"">
                            <p style=""font-size:50px; font-weight:bold;""
                            >positive</p>
                            <div style=""width:240px; margin: auto;"">
                                <img src=""images/gray_40.png"" style= ""width:200px""alt=""img"">
                            </div>
                        </div>","61","","0","images/gray_40.png","","","","positive"
"","","","","","html-slider-response","118","306322","0.0-112.0","jbnjz4bxda","NaN","<div style=""width:500px;"">
                            <p style=""font-size:50px; font-weight:bold;""
                            >positive</p>
                            <div style=""width:240px; margin: auto;"">
                                <img src=""images/gray_17.png"" style= ""width:200px""alt=""img"">
                            </div>
                        </div>","187","","0","images/gray_17.png","","","","positive"
"","","","","","html-slider-response","119","307783","0.0-113.0","jbnjz4bxda","NaN","<div style=""width:500px;"">
                            <p style=""font-size:50px; font-weight:bold;""
                            >positive</p>
                            <div style=""width:240px; margin: auto;"">
                                <img src=""images/gray_09.png"" style= ""width:200px""alt=""img"">
                            </div>
                        </div>","94","","0","images/gray_09.png","","","","positive"
"","","","","","html-slider-response","120","308898","0.0-114.0","jbnjz4bxda","NaN","<div style=""width:500px;"">
                            <p style=""font-size:50px; font-weight:bold;""
                            >positive</p>
                            <div style=""width:240px; margin: auto;"">
                                <img src=""images/gray_28.png"" style= ""width:200px""alt=""img"">
                            </div>
                        </div>","72","","0","images/gray_28.png","","","","positive"
"","","","","","html-slider-response","121","310163","0.0-115.0","jbnjz4bxda","NaN","<div style=""width:500px;"">
                            <p style=""font-size:50px; font-weight:bold;""
                            >positive</p>
                            <div style=""width:240px; margin: auto;"">
                                <img src=""images/gray_25.png"" style= ""width:200px""alt=""img"">
                            </div>
                        </div>","-62","","0","images/gray_25.png","","","","positive"
"","","","","","html-slider-response","122","312572","0.0-116.0","jbnjz4bxda","NaN","<div style=""width:500px;"">
                            <p style=""font-size:50px; font-weight:bold;""
                            >positive</p>
                            <div style=""width:240px; margin: auto;"">
                                <img src=""images/gray_24.png"" style= ""width:200px""alt=""img"">
                            </div>
                        </div>","-61","","0","images/gray_24.png","","","","positive"
"","","","","","html-slider-response","123","313715","0.0-117.0","jbnjz4bxda","NaN","<div style=""width:500px;"">
                            <p style=""font-size:50px; font-weight:bold;""
                            >positive</p>
                            <div style=""width:240px; margin: auto;"">
                                <img src=""images/gray_18.png"" style= ""width:200px""alt=""img"">
                            </div>
                        </div>","-13","","0","images/gray_18.png","","","","positive"
"","","","","","html-slider-response","124","314715","0.0-118.0","jbnjz4bxda","NaN","<div style=""width:500px;"">
                            <p style=""font-size:50px; font-weight:bold;""
                            >positive</p>
                            <div style=""width:240px; margin: auto;"">
                                <img src=""images/gray_22.png"" style= ""width:200px""alt=""img"">
                            </div>
                        </div>","0","","0","images/gray_22.png","","","","positive"
"","","","","","html-slider-response","125","316451","0.0-119.0","jbnjz4bxda","NaN","<div style=""width:500px;"">
                            <p style=""font-size:50px; font-weight:bold;""
                            >positive</p>
                            <div style=""width:240px; margin: auto;"">
                                <img src=""images/gray_11.png"" style= ""width:200px""alt=""img"">
                            </div>
                        </div>","-100","","0","images/gray_11.png","","","","positive"
"","","","","","html-slider-response","126","317964","0.0-120.0","jbnjz4bxda","NaN","<div style=""width:500px;"">
                            <p style=""font-size:50px; font-weight:bold;""
                            >positive</p>
                            <div style=""width:240px; margin: auto;"">
                                <img src=""images/gray_37.png"" style= ""width:200px""alt=""img"">
                            </div>
                        </div>","-130","","0","images/gray_37.png","","","","positive"
"","","","","","html-slider-response","127","320896","0.0-121.0","jbnjz4bxda","NaN","<div style=""width:500px;"">
                            <p style=""font-size:50px; font-weight:bold;""
                            >positive</p>
                            <div style=""width:240px; margin: auto;"">
                                <img src=""images/gray_16.png"" style= ""width:200px""alt=""img"">
                            </div>
                        </div>","-195","","0","images/gray_16.png","","","","positive"
"","","","","","html-slider-response","128","322121","0.0-122.0","jbnjz4bxda","NaN","<div style=""width:500px;"">
                            <p style=""font-size:50px; font-weight:bold;""
                            >positive</p>
                            <div style=""width:240px; margin: auto;"">
                                <img src=""images/gray_10.png"" style= ""width:200px""alt=""img"">
                            </div>
                        </div>","-190","","0","images/gray_10.png","","","","positive"
"","","","","","html-slider-response","129","323573","0.0-123.0","jbnjz4bxda","NaN","<div style=""width:500px;"">
                            <p style=""font-size:50px; font-weight:bold;""
                            >positive</p>
                            <div style=""width:240px; margin: auto;"">
                                <img src=""images/gray_01.png"" style= ""width:200px""alt=""img"">
                            </div>
                        </div>","-190","","0","images/gray_01.png","","","","positive"
"","","","","","html-slider-response","130","324739","0.0-124.0","jbnjz4bxda","NaN","<div style=""width:500px;"">
                            <p style=""font-size:50px; font-weight:bold;""
                            >positive</p>
                            <div style=""width:240px; margin: auto;"">
                                <img src=""images/gray_02.png"" style= ""width:200px""alt=""img"">
                            </div>
                        </div>","-190","","0","images/gray_02.png","","","","positive"
"","","","","","html-slider-response","131","325927","0.0-125.0","jbnjz4bxda","NaN","<div style=""width:500px;"">
                            <p style=""font-size:50px; font-weight:bold;""
                            >positive</p>
                            <div style=""width:240px; margin: auto;"">
                                <img src=""images/gray_36.png"" style= ""width:200px""alt=""img"">
                            </div>
                        </div>","-190","","0","images/gray_36.png","","","","positive"
"","","","","","html-slider-response","132","327593","0.0-126.0","jbnjz4bxda","NaN","<div style=""width:500px;"">
                            <p style=""font-size:50px; font-weight:bold;""
                            >positive</p>
                            <div style=""width:240px; margin: auto;"">
                                <img src=""images/gray_04.png"" style= ""width:200px""alt=""img"">
                            </div>
                        </div>","102","","0","images/gray_04.png","","","","positive"
"","","","","","html-slider-response","133","328968","0.0-127.0","jbnjz4bxda","NaN","<div style=""width:500px;"">
                            <p style=""font-size:50px; font-weight:bold;""
                            >positive</p>
                            <div style=""width:240px; margin: auto;"">
                                <img src=""images/gray_42.png"" style= ""width:200px""alt=""img"">
                            </div>
                        </div>","119","","0","images/gray_42.png","","","","positive"
"","","","","","html-slider-response","134","329945","0.0-128.0","jbnjz4bxda","NaN","<div style=""width:500px;"">
                            <p style=""font-size:50px; font-weight:bold;""
                            >positive</p>
                            <div style=""width:240px; margin: auto;"">
                                <img src=""images/gray_12.png"" style= ""width:200px""alt=""img"">
                            </div>
                        </div>","116","","0","images/gray_12.png","","","","positive"
"","","","","","html-slider-response","135","330889","0.0-129.0","jbnjz4bxda","NaN","<div style=""width:500px;"">
                            <p style=""font-size:50px; font-weight:bold;""
                            >positive</p>
                            <div style=""width:240px; margin: auto;"">
                                <img src=""images/gray_34.png"" style= ""width:200px""alt=""img"">
                            </div>
                        </div>","116","","0","images/gray_34.png","","","","positive"
"","","","","","html-slider-response","136","331862","0.0-130.0","jbnjz4bxda","NaN","<div style=""width:500px;"">
                            <p style=""font-size:50px; font-weight:bold;""
                            >positive</p>
                            <div style=""width:240px; margin: auto;"">
                                <img src=""images/gray_13.png"" style= ""width:200px""alt=""img"">
                            </div>
                        </div>","59","","0","images/gray_13.png","","","","positive"
"","","","","","html-slider-response","137","333763","0.0-131.0","jbnjz4bxda","NaN","<div style=""width:500px;"">
                            <p style=""font-size:50px; font-weight:bold;""
                            >positive</p>
                            <div style=""width:240px; margin: auto;"">
                                <img src=""images/gray_43.png"" style= ""width:200px""alt=""img"">
                            </div>
                        </div>","-3","","0","images/gray_43.png","","","","positive"
"","","","","","html-slider-response","138","334720","0.0-132.0","jbnjz4bxda","NaN","<div style=""width:500px;"">
                            <p style=""font-size:50px; font-weight:bold;""
                            >positive</p>
                            <div style=""width:240px; margin: auto;"">
                                <img src=""images/gray_33.png"" style= ""width:200px""alt=""img"">
                            </div>
                        </div>","-3","","0","images/gray_33.png","","","","positive"
"","","","","","html-slider-response","139","338499","0.0-133.0","jbnjz4bxda","NaN","<div style=""width:500px;"">
                            <p style=""font-size:50px; font-weight:bold;""
                            >positive</p>
                            <div style=""width:240px; margin: auto;"">
                                <img src=""images/gray_31.png"" style= ""width:200px""alt=""img"">
                            </div>
                        </div>","191","","0","images/gray_31.png","","","","positive"
"","","","","","html-slider-response","140","339086","0.0-134.0","jbnjz4bxda","NaN","<div style=""width:500px;"">
                            <p style=""font-size:50px; font-weight:bold;""
                            >positive</p>
                            <div style=""width:240px; margin: auto;"">
                                <img src=""images/gray_44.png"" style= ""width:200px""alt=""img"">
                            </div>
                        </div>","66","","0","images/gray_44.png","","","","positive"
"","","","","","html-slider-response","141","340159","0.0-135.0","jbnjz4bxda","NaN","<div style=""width:500px;"">
                            <p style=""font-size:50px; font-weight:bold;""
                            >positive</p>
                            <div style=""width:240px; margin: auto;"">
                                <img src=""images/gray_39.png"" style= ""width:200px""alt=""img"">
                            </div>
                        </div>","86","","0","images/gray_39.png","","","","positive"
"","","","","","html-slider-response","142","341123","0.0-136.0","jbnjz4bxda","NaN","<div style=""width:500px;"">
                            <p style=""font-size:50px; font-weight:bold;""
                            >positive</p>
                            <div style=""width:240px; margin: auto;"">
                                <img src=""images/gray_20.png"" style= ""width:200px""alt=""img"">
                            </div>
                        </div>","86","","0","images/gray_20.png","","","","positive"
"","","","","","html-slider-response","143","342938","0.0-137.0","jbnjz4bxda","NaN","<div style=""width:500px;"">
                            <p style=""font-size:50px; font-weight:bold;""
                            >positive</p>
                            <div style=""width:240px; margin: auto;"">
                                <img src=""images/gray_06.png"" style= ""width:200px""alt=""img"">
                            </div>
                        </div>","169","","0","images/gray_06.png","","","","positive"
"","","","","","html-slider-response","144","344340","0.0-138.0","jbnjz4bxda","NaN","<div style=""width:500px;"">
                            <p style=""font-size:50px; font-weight:bold;""
                            >positive</p>
                            <div style=""width:240px; margin: auto;"">
                                <img src=""images/gray_38.png"" style= ""width:200px""alt=""img"">
                            </div>
                        </div>","110","","0","images/gray_38.png","","","","positive"
"","","","","","html-slider-response","145","345912","0.0-139.0","jbnjz4bxda","NaN","<div style=""width:500px;"">
                            <p style=""font-size:50px; font-weight:bold;""
                            >positive</p>
                            <div style=""width:240px; margin: auto;"">
                                <img src=""images/gray_15.png"" style= ""width:200px""alt=""img"">
                            </div>
                        </div>","-67","","0","images/gray_15.png","","","","positive"
"","","","","","html-slider-response","146","347218","0.0-140.0","jbnjz4bxda","NaN","<div style=""width:500px;"">
                            <p style=""font-size:50px; font-weight:bold;""
                            >positive</p>
                            <div style=""width:240px; margin: auto;"">
                                <img src=""images/gray_32.png"" style= ""width:200px""alt=""img"">
                            </div>
                        </div>","-53","","0","images/gray_32.png","","","","positive"
"","","","","","html-slider-response","147","348327","0.0-141.0","jbnjz4bxda","NaN","<div style=""width:500px;"">
                            <p style=""font-size:50px; font-weight:bold;""
                            >positive</p>
                            <div style=""width:240px; margin: auto;"">
                                <img src=""images/gray_23.png"" style= ""width:200px""alt=""img"">
                            </div>
                        </div>","0","","0","images/gray_23.png","","","","positive"
"","","","","","html-slider-response","148","349388","0.0-142.0","jbnjz4bxda","NaN","<div style=""width:500px;"">
                            <p style=""font-size:50px; font-weight:bold;""
                            >positive</p>
                            <div style=""width:240px; margin: auto;"">
                                <img src=""images/gray_41.png"" style= ""width:200px""alt=""img"">
                            </div>
                        </div>","-2","","0","images/gray_41.png","","","","positive"
"","","","","","html-slider-response","149","350521","0.0-143.0","jbnjz4bxda","NaN","<div style=""width:500px;"">
                            <p style=""font-size:50px; font-weight:bold;""
                            >positive</p>
                            <div style=""width:240px; margin: auto;"">
                                <img src=""images/gray_03.png"" style= ""width:200px""alt=""img"">
                            </div>
                        </div>","-2","","0","images/gray_03.png","","","","positive"
"","","","","","html-slider-response","150","351565","0.0-144.0","jbnjz4bxda","NaN","<div style=""width:500px;"">
                            <p style=""font-size:50px; font-weight:bold;""
                            >positive</p>
                            <div style=""width:240px; margin: auto;"">
                                <img src=""images/gray_08.png"" style= ""width:200px""alt=""img"">
                            </div>
                        </div>","-2","","0","images/gray_08.png","","","","positive"
"","","","","","html-slider-response","151","352688","0.0-145.0","jbnjz4bxda","NaN","<div style=""width:500px;"">
                            <p style=""font-size:50px; font-weight:bold;""
                            >positive</p>
                            <div style=""width:240px; margin: auto;"">
                                <img src=""images/gray_29.png"" style= ""width:200px""alt=""img"">
                            </div>
                        </div>","-2","","0","images/gray_29.png","","","","positive"
"","","","","","html-slider-response","152","355578","0.0-146.0","jbnjz4bxda","NaN","<div style=""width:500px;"">
                            <p style=""font-size:50px; font-weight:bold;""
                            >positive</p>
                            <div style=""width:240px; margin: auto;"">
                                <img src=""images/gray_27.png"" style= ""width:200px""alt=""img"">
                            </div>
                        </div>","-119","","0","images/gray_27.png","","","","positive"
"","","","","","html-slider-response","153","356802","0.0-147.0","jbnjz4bxda","NaN","<div style=""width:500px;"">
                            <p style=""font-size:50px; font-weight:bold;""
                            >positive</p>
                            <div style=""width:240px; margin: auto;"">
                                <img src=""images/gray_30.png"" style= ""width:200px""alt=""img"">
                            </div>
                        </div>","-15","","0","images/gray_30.png","","","","positive"
"","","","","","html-slider-response","154","361048","0.0-148.0","jbnjz4bxda","NaN","<div style=""width:500px;"">
                            <p style=""font-size:50px; font-weight:bold;""
                            >positive</p>
                            <div style=""width:240px; margin: auto;"">
                                <img src=""images/gray_21.png"" style= ""width:200px""alt=""img"">
                            </div>
                        </div>","-154","","0","images/gray_21.png","","","","positive"
"","","","","","html-slider-response","155","364521","0.0-149.0","jbnjz4bxda","NaN","<div style=""width:500px;"">
                            <p style=""font-size:50px; font-weight:bold;""
                            >positive</p>
                            <div style=""width:240px; margin: auto;"">
                                <img src=""images/gray_07.png"" style= ""width:200px""alt=""img"">
                            </div>
                        </div>","162","","0","images/gray_07.png","","","","positive"
"","","","","","html-button-response","156","365799","0.0-150.0","jbnjz4bxda","776","<p>Great Job! You've finished block 3.<br></br> You have 5 block(s) left to go.<br></br></p>","0","","","","","","",""
"","","","","","html-button-response","157","366516","0.0-151.0","jbnjz4bxda","716","<p>In this block of trials, you will be asked to rate how much you associate each map with:</p > <p style = 'font-size:150%; font-weight: bold'>trustworthy</p><br></br>","0","","","","","","",""
"","","","","","html-slider-response","158","376816","0.0-152.0","jbnjz4bxda","NaN","<div style=""width:500px;"">
                            <p style=""font-size:50px; font-weight:bold;""
                            >trustworthy</p>
                            <div style=""width:240px; margin: auto;"">
                                <img src=""images/gray_03.png"" style= ""width:200px""alt=""img"">
                            </div>
                        </div>","-43","","0","images/gray_03.png","","","","trustworthy"
"","","","","","html-slider-response","159","377602","0.0-153.0","jbnjz4bxda","NaN","<div style=""width:500px;"">
                            <p style=""font-size:50px; font-weight:bold;""
                            >trustworthy</p>
                            <div style=""width:240px; margin: auto;"">
                                <img src=""images/gray_09.png"" style= ""width:200px""alt=""img"">
                            </div>
                        </div>","-43","","0","images/gray_09.png","","","","trustworthy"
"","","","","","html-slider-response","160","380809","0.0-154.0","jbnjz4bxda","NaN","<div style=""width:500px;"">
                            <p style=""font-size:50px; font-weight:bold;""
                            >trustworthy</p>
                            <div style=""width:240px; margin: auto;"">
                                <img src=""images/gray_29.png"" style= ""width:200px""alt=""img"">
                            </div>
                        </div>","-138","","0","images/gray_29.png","","","","trustworthy"
"","","","","","html-slider-response","161","382164","0.0-155.0","jbnjz4bxda","NaN","<div style=""width:500px;"">
                            <p style=""font-size:50px; font-weight:bold;""
                            >trustworthy</p>
                            <div style=""width:240px; margin: auto;"">
                                <img src=""images/gray_41.png"" style= ""width:200px""alt=""img"">
                            </div>
                        </div>","-138","","0","images/gray_41.png","","","","trustworthy"
"","","","","","html-slider-response","162","382910","0.0-156.0","jbnjz4bxda","NaN","<div style=""width:500px;"">
                            <p style=""font-size:50px; font-weight:bold;""
                            >trustworthy</p>
                            <div style=""width:240px; margin: auto;"">
                                <img src=""images/gray_24.png"" style= ""width:200px""alt=""img"">
                            </div>
                        </div>","-138","","0","images/gray_24.png","","","","trustworthy"
"","","","","","html-slider-response","163","384529","0.0-157.0","jbnjz4bxda","NaN","<div style=""width:500px;"">
                            <p style=""font-size:50px; font-weight:bold;""
                            >trustworthy</p>
                            <div style=""width:240px; margin: auto;"">
                                <img src=""images/gray_26.png"" style= ""width:200px""alt=""img"">
                            </div>
                        </div>","83","","0","images/gray_26.png","","","","trustworthy"
"","","","","","html-slider-response","164","386068","0.0-158.0","jbnjz4bxda","NaN","<div style=""width:500px;"">
                            <p style=""font-size:50px; font-weight:bold;""
                            >trustworthy</p>
                            <div style=""width:240px; margin: auto;"">
                                <img src=""images/gray_08.png"" style= ""width:200px""alt=""img"">
                            </div>
                        </div>","-89","","0","images/gray_08.png","","","","trustworthy"
"","","","","","html-slider-response","165","387875","0.0-159.0","jbnjz4bxda","NaN","<div style=""width:500px;"">
                            <p style=""font-size:50px; font-weight:bold;""
                            >trustworthy</p>
                            <div style=""width:240px; margin: auto;"">
                                <img src=""images/gray_33.png"" style= ""width:200px""alt=""img"">
                            </div>
                        </div>","150","","0","images/gray_33.png","","","","trustworthy"
"","","","","","html-slider-response","166","389317","0.0-160.0","jbnjz4bxda","NaN","<div style=""width:500px;"">
                            <p style=""font-size:50px; font-weight:bold;""
                            >trustworthy</p>
                            <div style=""width:240px; margin: auto;"">
                                <img src=""images/gray_10.png"" style= ""width:200px""alt=""img"">
                            </div>
                        </div>","-81","","0","images/gray_10.png","","","","trustworthy"
"","","","","","html-slider-response","167","392218","0.0-161.0","jbnjz4bxda","NaN","<div style=""width:500px;"">
                            <p style=""font-size:50px; font-weight:bold;""
                            >trustworthy</p>
                            <div style=""width:240px; margin: auto;"">
                                <img src=""images/gray_39.png"" style= ""width:200px""alt=""img"">
                            </div>
                        </div>","189","","0","images/gray_39.png","","","","trustworthy"
"","","","","","html-slider-response","168","393955","0.0-162.0","jbnjz4bxda","NaN","<div style=""width:500px;"">
                            <p style=""font-size:50px; font-weight:bold;""
                            >trustworthy</p>
                            <div style=""width:240px; margin: auto;"">
                                <img src=""images/gray_38.png"" style= ""width:200px""alt=""img"">
                            </div>
                        </div>","35","","0","images/gray_38.png","","","","trustworthy"
"","","","","","html-slider-response","169","395425","0.0-163.0","jbnjz4bxda","NaN","<div style=""width:500px;"">
                            <p style=""font-size:50px; font-weight:bold;""
                            >trustworthy</p>
                            <div style=""width:240px; margin: auto;"">
                                <img src=""images/gray_37.png"" style= ""width:200px""alt=""img"">
                            </div>
                        </div>","-59","","0","images/gray_37.png","","","","trustworthy"
"","","","","","html-slider-response","170","396923","0.0-164.0","jbnjz4bxda","NaN","<div style=""width:500px;"">
                            <p style=""font-size:50px; font-weight:bold;""
                            >trustworthy</p>
                            <div style=""width:240px; margin: auto;"">
                                <img src=""images/gray_40.png"" style= ""width:200px""alt=""img"">
                            </div>
                        </div>","-59","","0","images/gray_40.png","","","","trustworthy"
"","","","","","html-slider-response","171","398074","0.0-165.0","jbnjz4bxda","NaN","<div style=""width:500px;"">
                            <p style=""font-size:50px; font-weight:bold;""
                            >trustworthy</p>
                            <div style=""width:240px; margin: auto;"">
                                <img src=""images/gray_05.png"" style= ""width:200px""alt=""img"">
                            </div>
                        </div>","-59","","0","images/gray_05.png","","","","trustworthy"
"","","","","","html-slider-response","172","399375","0.0-166.0","jbnjz4bxda","NaN","<div style=""width:500px;"">
                            <p style=""font-size:50px; font-weight:bold;""
                            >trustworthy</p>
                            <div style=""width:240px; margin: auto;"">
                                <img src=""images/gray_36.png"" style= ""width:200px""alt=""img"">
                            </div>
                        </div>","-59","","0","images/gray_36.png","","","","trustworthy"
"","","","","","html-slider-response","173","400440","0.0-167.0","jbnjz4bxda","NaN","<div style=""width:500px;"">
                            <p style=""font-size:50px; font-weight:bold;""
                            >trustworthy</p>
                            <div style=""width:240px; margin: auto;"">
                                <img src=""images/gray_21.png"" style= ""width:200px""alt=""img"">
                            </div>
                        </div>","-59","","0","images/gray_21.png","","","","trustworthy"
"","","","","","html-slider-response","174","402124","0.0-168.0","jbnjz4bxda","NaN","<div style=""width:500px;"">
                            <p style=""font-size:50px; font-weight:bold;""
                            >trustworthy</p>
                            <div style=""width:240px; margin: auto;"">
                                <img src=""images/gray_20.png"" style= ""width:200px""alt=""img"">
                            </div>
                        </div>","-59","","0","images/gray_20.png","","","","trustworthy"
"","","","","","html-slider-response","175","402957","0.0-169.0","jbnjz4bxda","NaN","<div style=""width:500px;"">
                            <p style=""font-size:50px; font-weight:bold;""
                            >trustworthy</p>
                            <div style=""width:240px; margin: auto;"">
                                <img src=""images/gray_22.png"" style= ""width:200px""alt=""img"">
                            </div>
                        </div>","-59","","0","images/gray_22.png","","","","trustworthy"
"","","","","","html-slider-response","176","404884","0.0-170.0","jbnjz4bxda","NaN","<div style=""width:500px;"">
                            <p style=""font-size:50px; font-weight:bold;""
                            >trustworthy</p>
                            <div style=""width:240px; margin: auto;"">
                                <img src=""images/gray_15.png"" style= ""width:200px""alt=""img"">
                            </div>
                        </div>","38","","0","images/gray_15.png","","","","trustworthy"
"","","","","","html-slider-response","177","406396","0.0-171.0","jbnjz4bxda","NaN","<div style=""width:500px;"">
                            <p style=""font-size:50px; font-weight:bold;""
                            >trustworthy</p>
                            <div style=""width:240px; margin: auto;"">
                                <img src=""images/gray_28.png"" style= ""width:200px""alt=""img"">
                            </div>
                        </div>","-94","","0","images/gray_28.png","","","","trustworthy"
"","","","","","html-slider-response","178","407709","0.0-172.0","jbnjz4bxda","NaN","<div style=""width:500px;"">
                            <p style=""font-size:50px; font-weight:bold;""
                            >trustworthy</p>
                            <div style=""width:240px; margin: auto;"">
                                <img src=""images/gray_01.png"" style= ""width:200px""alt=""img"">
                            </div>
                        </div>","-105","","0","images/gray_01.png","","","","trustworthy"
"","","","","","html-slider-response","179","409037","0.0-173.0","jbnjz4bxda","NaN","<div style=""width:500px;"">
                            <p style=""font-size:50px; font-weight:bold;""
                            >trustworthy</p>
                            <div style=""width:240px; margin: auto;"">
                                <img src=""images/gray_19.png"" style= ""width:200px""alt=""img"">
                            </div>
                        </div>","-105","","0","images/gray_19.png","","","","trustworthy"
"","","","","","html-slider-response","180","412571","0.0-174.0","jbnjz4bxda","NaN","<div style=""width:500px;"">
                            <p style=""font-size:50px; font-weight:bold;""
                            >trustworthy</p>
                            <div style=""width:240px; margin: auto;"">
                                <img src=""images/gray_11.png"" style= ""width:200px""alt=""img"">
                            </div>
                        </div>","76","","0","images/gray_11.png","","","","trustworthy"
"","","","","","html-slider-response","181","414057","0.0-175.0","jbnjz4bxda","NaN","<div style=""width:500px;"">
                            <p style=""font-size:50px; font-weight:bold;""
                            >trustworthy</p>
                            <div style=""width:240px; margin: auto;"">
                                <img src=""images/gray_02.png"" style= ""width:200px""alt=""img"">
                            </div>
                        </div>","76","","0","images/gray_02.png","","","","trustworthy"
"","","","","","html-slider-response","182","415315","0.0-176.0","jbnjz4bxda","NaN","<div style=""width:500px;"">
                            <p style=""font-size:50px; font-weight:bold;""
                            >trustworthy</p>
                            <div style=""width:240px; margin: auto;"">
                                <img src=""images/gray_04.png"" style= ""width:200px""alt=""img"">
                            </div>
                        </div>","76","","0","images/gray_04.png","","","","trustworthy"
"","","","","","html-slider-response","183","416805","0.0-177.0","jbnjz4bxda","NaN","<div style=""width:500px;"">
                            <p style=""font-size:50px; font-weight:bold;""
                            >trustworthy</p>
                            <div style=""width:240px; margin: auto;"">
                                <img src=""images/gray_06.png"" style= ""width:200px""alt=""img"">
                            </div>
                        </div>","76","","0","images/gray_06.png","","","","trustworthy"
"","","","","","html-slider-response","184","418239","0.0-178.0","jbnjz4bxda","NaN","<div style=""width:500px;"">
                            <p style=""font-size:50px; font-weight:bold;""
                            >trustworthy</p>
                            <div style=""width:240px; margin: auto;"">
                                <img src=""images/gray_43.png"" style= ""width:200px""alt=""img"">
                            </div>
                        </div>","76","","0","images/gray_43.png","","","","trustworthy"
"","","","","","html-slider-response","185","419452","0.0-179.0","jbnjz4bxda","NaN","<div style=""width:500px;"">
                            <p style=""font-size:50px; font-weight:bold;""
                            >trustworthy</p>
                            <div style=""width:240px; margin: auto;"">
                                <img src=""images/gray_35.png"" style= ""width:200px""alt=""img"">
                            </div>
                        </div>","76","","0","images/gray_35.png","","","","trustworthy"
"","","","","","html-slider-response","186","420882","0.0-180.0","jbnjz4bxda","NaN","<div style=""width:500px;"">
                            <p style=""font-size:50px; font-weight:bold;""
                            >trustworthy</p>
                            <div style=""width:240px; margin: auto;"">
                                <img src=""images/gray_13.png"" style= ""width:200px""alt=""img"">
                            </div>
                        </div>","76","","0","images/gray_13.png","","","","trustworthy"
"","","","","","html-slider-response","187","422665","0.0-181.0","jbnjz4bxda","NaN","<div style=""width:500px;"">
                            <p style=""font-size:50px; font-weight:bold;""
                            >trustworthy</p>
                            <div style=""width:240px; margin: auto;"">
                                <img src=""images/gray_23.png"" style= ""width:200px""alt=""img"">
                            </div>
                        </div>","-74","","0","images/gray_23.png","","","","trustworthy"
"","","","","","html-slider-response","188","424376","0.0-182.0","jbnjz4bxda","NaN","<div style=""width:500px;"">
                            <p style=""font-size:50px; font-weight:bold;""
                            >trustworthy</p>
                            <div style=""width:240px; margin: auto;"">
                                <img src=""images/gray_17.png"" style= ""width:200px""alt=""img"">
                            </div>
                        </div>","91","","0","images/gray_17.png","","","","trustworthy"
"","","","","","html-slider-response","189","427725","0.0-183.0","jbnjz4bxda","NaN","<div style=""width:500px;"">
                            <p style=""font-size:50px; font-weight:bold;""
                            >trustworthy</p>
                            <div style=""width:240px; margin: auto;"">
                                <img src=""images/gray_27.png"" style= ""width:200px""alt=""img"">
                            </div>
                        </div>","-50","","0","images/gray_27.png","","","","trustworthy"
"","","","","","html-slider-response","190","428876","0.0-184.0","jbnjz4bxda","NaN","<div style=""width:500px;"">
                            <p style=""font-size:50px; font-weight:bold;""
                            >trustworthy</p>
                            <div style=""width:240px; margin: auto;"">
                                <img src=""images/gray_42.png"" style= ""width:200px""alt=""img"">
                            </div>
                        </div>","72","","0","images/gray_42.png","","","","trustworthy"
"","","","","","html-slider-response","191","429715","0.0-185.0","jbnjz4bxda","NaN","<div style=""width:500px;"">
                            <p style=""font-size:50px; font-weight:bold;""
                            >trustworthy</p>
                            <div style=""width:240px; margin: auto;"">
                                <img src=""images/gray_18.png"" style= ""width:200px""alt=""img"">
                            </div>
                        </div>","72","","0","images/gray_18.png","","","","trustworthy"
"","","","","","html-slider-response","192","430481","0.0-186.0","jbnjz4bxda","NaN","<div style=""width:500px;"">
                            <p style=""font-size:50px; font-weight:bold;""
                            >trustworthy</p>
                            <div style=""width:240px; margin: auto;"">
                                <img src=""images/gray_44.png"" style= ""width:200px""alt=""img"">
                            </div>
                        </div>","72","","0","images/gray_44.png","","","","trustworthy"
"","","","","","html-slider-response","193","431253","0.0-187.0","jbnjz4bxda","NaN","<div style=""width:500px;"">
                            <p style=""font-size:50px; font-weight:bold;""
                            >trustworthy</p>
                            <div style=""width:240px; margin: auto;"">
                                <img src=""images/gray_12.png"" style= ""width:200px""alt=""img"">
                            </div>
                        </div>","72","","0","images/gray_12.png","","","","trustworthy"
"","","","","","html-slider-response","194","432082","0.0-188.0","jbnjz4bxda","NaN","<div style=""width:500px;"">
                            <p style=""font-size:50px; font-weight:bold;""
                            >trustworthy</p>
                            <div style=""width:240px; margin: auto;"">
                                <img src=""images/gray_34.png"" style= ""width:200px""alt=""img"">
                            </div>
                        </div>","72","","0","images/gray_34.png","","","","trustworthy"
"","","","","","html-slider-response","195","432814","0.0-189.0","jbnjz4bxda","NaN","<div style=""width:500px;"">
                            <p style=""font-size:50px; font-weight:bold;""
                            >trustworthy</p>
                            <div style=""width:240px; margin: auto;"">
                                <img src=""images/gray_31.png"" style= ""width:200px""alt=""img"">
                            </div>
                        </div>","72","","0","images/gray_31.png","","","","trustworthy"
"","","","","","html-slider-response","196","433579","0.0-190.0","jbnjz4bxda","NaN","<div style=""width:500px;"">
                            <p style=""font-size:50px; font-weight:bold;""
                            >trustworthy</p>
                            <div style=""width:240px; margin: auto;"">
                                <img src=""images/gray_16.png"" style= ""width:200px""alt=""img"">
                            </div>
                        </div>","72","","0","images/gray_16.png","","","","trustworthy"
"","","","","","html-slider-response","197","434323","0.0-191.0","jbnjz4bxda","NaN","<div style=""width:500px;"">
                            <p style=""font-size:50px; font-weight:bold;""
                            >trustworthy</p>
                            <div style=""width:240px; margin: auto;"">
                                <img src=""images/gray_30.png"" style= ""width:200px""alt=""img"">
                            </div>
                        </div>","72","","0","images/gray_30.png","","","","trustworthy"
"","","","","","html-slider-response","198","435118","0.0-192.0","jbnjz4bxda","NaN","<div style=""width:500px;"">
                            <p style=""font-size:50px; font-weight:bold;""
                            >trustworthy</p>
                            <div style=""width:240px; margin: auto;"">
                                <img src=""images/gray_14.png"" style= ""width:200px""alt=""img"">
                            </div>
                        </div>","72","","0","images/gray_14.png","","","","trustworthy"
"","","","","","html-slider-response","199","435850","0.0-193.0","jbnjz4bxda","NaN","<div style=""width:500px;"">
                            <p style=""font-size:50px; font-weight:bold;""
