"success","timeout","failed_images","failed_audio","failed_video","trial_type","trial_index","time_elapsed","internal_node_id","subject_id","rt","stimulus","response","question_order","slider_start","image_path","practiceTrial","practiceTrialNum","correct","concept"
"true","false","[]","[]","[]","preload","0","944","0.0-0.0","k8qzodbtzk","","","","","","","","","",""
"","","","","","html-button-response","1","8066","0.0-1.0","k8qzodbtzk","7119","Welcome to our experiment!<p>At the bottom of this screen, you will see a button that says ""Begin Experiment"".<br>Please only click that button when you are ready to complete the 25 minute experiment in one sitting.</p><p> Once you click that button, it will not be possible to restart the experiment.","0","","","","","","",""
"true","","","","","fullscreen","2","10730","0.0-2.0","k8qzodbtzk","1654","","","","","","","","",""
"","","","","","survey-multi-select","3","50262","0.0-3.0","k8qzodbtzk","39526","","{""Consent"":[""<strong>I consent</strong>""]}","[0]","","","","","",""
"","","","","","html-button-response","4","51732","0.0-4.0","k8qzodbtzk","1461","Welcome! <p> This experiment involves two parts: demographic information, followed by the experimental task.<p> It will take about 25 minutes to complete both parts.","0","","","","","","",""
"","","","","","survey-text","5","63799","0.0-5.0","k8qzodbtzk","12049","","{""Age"":""18"",""Gender"":""female"",""Race/ethnicity"":""white"",""Languages"":""engligh""}","","","","","","",""
"","","","","","html-slider-response","6","79356","0.0-6.0","k8qzodbtzk","15552","
            <div style='text-align:left; font-size:20px; line-height:25px; width: 1200px;'>
                During this experiment you will be asked to rate how much you associate maps with    different concepts.<br> Below, you can see some examples of the maps you will be asked to rate. Next to the maps
    is the list of concepts.<br>You will be asked    to rate how much you associate each map with each concept on a scale from 'not at all' to 'very much' like the
    one below. <br><br>
    Now, please look at the list of concepts and maps. For each concept, think about the map you associate 'very
    much' with the concept.<br>     When you see that map during the experiment, please rate it near the 'very much' endpoint of the
    scale.<br>Now, please think about which map you associate 'not at all'     with each concept. When you see that map during the experiment, please rate it near the 'not at all' endpoint
    of the scale.<br>
    Please use the full range of the scale. That is, if a map is somewhat associated with the concept, you would
    click partway between the middle point and right side of the scale.    You will be asked to rate each map for a given concept before moving on to the next concept.<br><br>Press the
    'Continue' button for instructions on how to use the slider.    <br><br>
</div>

<div style=""width: 500px; margin: 0 auto;"">
    <div style=""text-align: left; width: 200px; float: left;"">
        <p style=""font-size:25px; line-height:18px;"">calm</p>
        <p style=""font-size:25px; line-height:18px;"">exciting</p>
        <p style=""font-size:25px;line-height:18px;"">positive</p>
        <p style=""font-size:25px;line-height:18px;"">negative</p>
        <p style=""font-size:25px;line-height:18px;"">serious</p>
        <p style=""font-size:25px;line-height:18px;"">playful</p>
        <p style=""font-size:25px;line-height:18px;"">trustworthy</p>
        <p style=""font-size:25px;line-height:18px;"">disturbing</p>
    </div>
    <div style=""width: 200px; float: right; padding-top:15px; padding-right:40px"">
        <br>
        <br>
        <img src=""maps_anchoring.png"" alt=""img"" style=""max-width:500px"">
    </div>
    <div style=""clear: both;""></div>
</div>
            ","null","","0","maps_anchoring.png","true","","",""
"","","","","","html-button-response","7","81414","0.0-7.0","k8qzodbtzk","2056","<div style=""width:800px;""><p style=""text-align:left"">To move the slider, click and drag your cursor to the location of the scale where you would like to make your rating and then let go. When you let go of the slider, your response will be recorded and the next trial will begin. <br>
            We are interested in your initial impressions of each map for the given concept, so please go with your first intuition. <br>
            Before you begin the experiment, there will be four training trials for you to practice using the scale. <br>
             When you are ready to start the training trials, please click ""Continue"".</p><br></div>","0","","","","","","",""
"","","","","","html-slider-response","8","85303","0.0-8.0-0.0","k8qzodbtzk","NaN","<div style=""width:500px;"">
                            <p style=""font-size:25px;"">Please move the slider all the way to the <br> right endpoint of the scale</p>

                            </div>
                        </div>","200","","0","","true","0","true",""
"","","","","","html-button-response","9","86644","0.0-8.0-1.0","k8qzodbtzk","837","<p align='center'><b>Good job!</b> Click on 'Continue' to proceed.</p>","0","","","","","","",""
"","","","","","html-slider-response","10","88594","0.0-9.0-0.0","k8qzodbtzk","NaN","<div style=""width:500px;"">
                            <p style=""font-size:25px;"">Please move the slider all the way to the <br> left endpoint of the scale</p>

                            </div>
                        </div>","-200","","0","","true","1","true",""
"","","","","","html-button-response","11","90068","0.0-9.0-1.0","k8qzodbtzk","969","<p align='center'><b>Good job!</b> Click on 'Continue' to proceed.</p>","0","","","","","","",""
"","","","","","html-slider-response","12","94830","0.0-10.0-0.0","k8qzodbtzk","NaN","<div style=""width:500px;"">
                            <p style=""font-size:25px;"">Please move the slider halfway between the center and right endpoint of the scale</p>

                            </div>
                        </div>","105","","0","","true","2","true",""
"","","","","","html-button-response","13","95932","0.0-10.0-1.0","k8qzodbtzk","599","<p align='center'><b>Good job!</b> Click on 'Continue' to proceed.</p>","0","","","","","","",""
"","","","","","html-slider-response","14","98019","0.0-11.0-0.0","k8qzodbtzk","NaN","<div style=""width:500px;"">
                            <p style=""font-size:25px;"">Please move the slider halfway between the center and left endpoint of the scale</p>

                            </div>
                        </div>","-104","","0","","true","3","true",""
"","","","","","html-button-response","15","99107","0.0-11.0-1.0","k8qzodbtzk","584","<p align='center'><b>Good job!</b> Click on 'Continue' to proceed.</p>","0","","","","","","",""
"","","","","","html-button-response","16","100128","0.0-12.0","k8qzodbtzk","1019","<p>Great job! You've completed the practice trials. Now you will begin the main task.</p>","0","","","","","","",""
"","","","","","html-button-response","17","102617","0.0-13.0","k8qzodbtzk","2488","<p>In this block of trials, you will be asked to rate how much you associate each map with:</p > <p style = 'font-size:150%; font-weight: bold'>playful</p><br></br>","0","","","","","","",""
"","","","","","html-slider-response","18","107604","0.0-14.0","k8qzodbtzk","NaN","<div style=""width:500px;"">
                            <p style=""font-size:50px; font-weight:bold;""
                            >playful</p>
                            <div style=""width:240px; margin: auto;"">
                                <img src=""images/gray_14.png"" style= ""width:200px""alt=""img"">
                            </div>
                        </div>","-106","","0","images/gray_14.png","","","","playful"
"","","","","","html-slider-response","19","110865","0.0-15.0","k8qzodbtzk","NaN","<div style=""width:500px;"">
                            <p style=""font-size:50px; font-weight:bold;""
                            >playful</p>
                            <div style=""width:240px; margin: auto;"">
                                <img src=""images/gray_04.png"" style= ""width:200px""alt=""img"">
                            </div>
                        </div>","110","","0","images/gray_04.png","","","","playful"
"","","","","","html-slider-response","20","114008","0.0-16.0","k8qzodbtzk","NaN","<div style=""width:500px;"">
                            <p style=""font-size:50px; font-weight:bold;""
                            >playful</p>
                            <div style=""width:240px; margin: auto;"">
                                <img src=""images/gray_37.png"" style= ""width:200px""alt=""img"">
                            </div>
                        </div>","102","","0","images/gray_37.png","","","","playful"
"","","","","","html-slider-response","21","117362","0.0-17.0","k8qzodbtzk","NaN","<div style=""width:500px;"">
                            <p style=""font-size:50px; font-weight:bold;""
                            >playful</p>
                            <div style=""width:240px; margin: auto;"">
                                <img src=""images/gray_21.png"" style= ""width:200px""alt=""img"">
                            </div>
                        </div>","-200","","0","images/gray_21.png","","","","playful"
"","","","","","html-slider-response","22","120381","0.0-18.0","k8qzodbtzk","NaN","<div style=""width:500px;"">
                            <p style=""font-size:50px; font-weight:bold;""
                            >playful</p>
                            <div style=""width:240px; margin: auto;"">
                                <img src=""images/gray_36.png"" style= ""width:200px""alt=""img"">
                            </div>
                        </div>","-101","","0","images/gray_36.png","","","","playful"
"","","","","","html-slider-response","23","123296","0.0-19.0","k8qzodbtzk","NaN","<div style=""width:500px;"">
                            <p style=""font-size:50px; font-weight:bold;""
                            >playful</p>
                            <div style=""width:240px; margin: auto;"">
                                <img src=""images/gray_07.png"" style= ""width:200px""alt=""img"">
                            </div>
                        </div>","106","","0","images/gray_07.png","","","","playful"
"","","","","","html-slider-response","24","126992","0.0-20.0","k8qzodbtzk","NaN","<div style=""width:500px;"">
                            <p style=""font-size:50px; font-weight:bold;""
                            >playful</p>
                            <div style=""width:240px; margin: auto;"">
                                <img src=""images/gray_34.png"" style= ""width:200px""alt=""img"">
                            </div>
                        </div>","-110","","0","images/gray_34.png","","","","playful"
"","","","","","html-slider-response","25","130147","0.0-21.0","k8qzodbtzk","NaN","<div style=""width:500px;"">
                            <p style=""font-size:50px; font-weight:bold;""
                            >playful</p>
                            <div style=""width:240px; margin: auto;"">
                                <img src=""images/gray_19.png"" style= ""width:200px""alt=""img"">
                            </div>
                        </div>","109","","0","images/gray_19.png","","","","playful"
"","","","","","html-slider-response","26","133642","0.0-22.0","k8qzodbtzk","NaN","<div style=""width:500px;"">
                            <p style=""font-size:50px; font-weight:bold;""
                            >playful</p>
                            <div style=""width:240px; margin: auto;"">
                                <img src=""images/gray_10.png"" style= ""width:200px""alt=""img"">
                            </div>
                        </div>","-103","","0","images/gray_10.png","","","","playful"
"","","","","","html-slider-response","27","136546","0.0-23.0","k8qzodbtzk","NaN","<div style=""width:500px;"">
                            <p style=""font-size:50px; font-weight:bold;""
                            >playful</p>
                            <div style=""width:240px; margin: auto;"">
                                <img src=""images/gray_17.png"" style= ""width:200px""alt=""img"">
                            </div>
                        </div>","200","","0","images/gray_17.png","","","","playful"
"","","","","","html-slider-response","28","138612","0.0-24.0","k8qzodbtzk","NaN","<div style=""width:500px;"">
                            <p style=""font-size:50px; font-weight:bold;""
                            >playful</p>
                            <div style=""width:240px; margin: auto;"">
                                <img src=""images/gray_29.png"" style= ""width:200px""alt=""img"">
                            </div>
                        </div>","-200","","0","images/gray_29.png","","","","playful"
"","","","","","html-slider-response","29","141429","0.0-25.0","k8qzodbtzk","NaN","<div style=""width:500px;"">
                            <p style=""font-size:50px; font-weight:bold;""
                            >playful</p>
                            <div style=""width:240px; margin: auto;"">
                                <img src=""images/gray_40.png"" style= ""width:200px""alt=""img"">
                            </div>
                        </div>","-99","","0","images/gray_40.png","","","","playful"
"","","","","","html-slider-response","30","144459","0.0-26.0","k8qzodbtzk","NaN","<div style=""width:500px;"">
                            <p style=""font-size:50px; font-weight:bold;""
                            >playful</p>
                            <div style=""width:240px; margin: auto;"">
                                <img src=""images/gray_27.png"" style= ""width:200px""alt=""img"">
                            </div>
                        </div>","109","","0","images/gray_27.png","","","","playful"
"","","","","","html-slider-response","31","147490","0.0-27.0","k8qzodbtzk","NaN","<div style=""width:500px;"">
                            <p style=""font-size:50px; font-weight:bold;""
                            >playful</p>
                            <div style=""width:240px; margin: auto;"">
                                <img src=""images/gray_35.png"" style= ""width:200px""alt=""img"">
                            </div>
                        </div>","112","","0","images/gray_35.png","","","","playful"
"","","","","","html-slider-response","32","150587","0.0-28.0","k8qzodbtzk","NaN","<div style=""width:500px;"">
                            <p style=""font-size:50px; font-weight:bold;""
                            >playful</p>
                            <div style=""width:240px; margin: auto;"">
                                <img src=""images/gray_20.png"" style= ""width:200px""alt=""img"">
                            </div>
                        </div>","-104","","0","images/gray_20.png","","","","playful"
"","","","","","html-slider-response","33","153426","0.0-29.0","k8qzodbtzk","NaN","<div style=""width:500px;"">
                            <p style=""font-size:50px; font-weight:bold;""
                            >playful</p>
                            <div style=""width:240px; margin: auto;"">
                                <img src=""images/gray_02.png"" style= ""width:200px""alt=""img"">
                            </div>
                        </div>","114","","0","images/gray_02.png","","","","playful"
"","","","","","html-slider-response","34","156241","0.0-30.0","k8qzodbtzk","NaN","<div style=""width:500px;"">
                            <p style=""font-size:50px; font-weight:bold;""
                            >playful</p>
                            <div style=""width:240px; margin: auto;"">
                                <img src=""images/gray_32.png"" style= ""width:200px""alt=""img"">
                            </div>
                        </div>","112","","0","images/gray_32.png","","","","playful"
"","","","","","html-slider-response","35","158989","0.0-31.0","k8qzodbtzk","NaN","<div style=""width:500px;"">
                            <p style=""font-size:50px; font-weight:bold;""
                            >playful</p>
                            <div style=""width:240px; margin: auto;"">
                                <img src=""images/gray_26.png"" style= ""width:200px""alt=""img"">
                            </div>
                        </div>","110","","0","images/gray_26.png","","","","playful"
"","","","","","html-slider-response","36","161517","0.0-32.0","k8qzodbtzk","NaN","<div style=""width:500px;"">
                            <p style=""font-size:50px; font-weight:bold;""
                            >playful</p>
                            <div style=""width:240px; margin: auto;"">
                                <img src=""images/gray_28.png"" style= ""width:200px""alt=""img"">
                            </div>
                        </div>","110","","0","images/gray_28.png","","","","playful"
"","","","","","html-slider-response","37","163784","0.0-33.0","k8qzodbtzk","NaN","<div style=""width:500px;"">
                            <p style=""font-size:50px; font-weight:bold;""
                            >playful</p>
                            <div style=""width:240px; margin: auto;"">
                                <img src=""images/gray_42.png"" style= ""width:200px""alt=""img"">
                            </div>
                        </div>","200","","0","images/gray_42.png","","","","playful"
"","","","","","html-slider-response","38","165888","0.0-34.0","k8qzodbtzk","NaN","<div style=""width:500px;"">
                            <p style=""font-size:50px; font-weight:bold;""
                            >playful</p>
                            <div style=""width:240px; margin: auto;"">
                                <img src=""images/gray_12.png"" style= ""width:200px""alt=""img"">
                            </div>
                        </div>","200","","0","images/gray_12.png","","","","playful"
"","","","","","html-slider-response","39","168340","0.0-35.0","k8qzodbtzk","NaN","<div style=""width:500px;"">
                            <p style=""font-size:50px; font-weight:bold;""
                            >playful</p>
                            <div style=""width:240px; margin: auto;"">
                                <img src=""images/gray_38.png"" style= ""width:200px""alt=""img"">
                            </div>
                        </div>","113","","0","images/gray_38.png","","","","playful"
"","","","","","html-slider-response","40","170849","0.0-36.0","k8qzodbtzk","NaN","<div style=""width:500px;"">
                            <p style=""font-size:50px; font-weight:bold;""
                            >playful</p>
                            <div style=""width:240px; margin: auto;"">
                                <img src=""images/gray_11.png"" style= ""width:200px""alt=""img"">
                            </div>
                        </div>","110","","0","images/gray_11.png","","","","playful"
"","","","","","html-slider-response","41","173016","0.0-37.0","k8qzodbtzk","NaN","<div style=""width:500px;"">
                            <p style=""font-size:50px; font-weight:bold;""
                            >playful</p>
                            <div style=""width:240px; margin: auto;"">
                                <img src=""images/gray_41.png"" style= ""width:200px""alt=""img"">
                            </div>
                        </div>","-99","","0","images/gray_41.png","","","","playful"
"","","","","","html-slider-response","42","175767","0.0-38.0","k8qzodbtzk","NaN","<div style=""width:500px;"">
                            <p style=""font-size:50px; font-weight:bold;""
                            >playful</p>
                            <div style=""width:240px; margin: auto;"">
                                <img src=""images/gray_33.png"" style= ""width:200px""alt=""img"">
                            </div>
                        </div>","-61","","0","images/gray_33.png","","","","playful"
"","","","","","html-slider-response","43","177801","0.0-39.0","k8qzodbtzk","NaN","<div style=""width:500px;"">
                            <p style=""font-size:50px; font-weight:bold;""
                            >playful</p>
                            <div style=""width:240px; margin: auto;"">
                                <img src=""images/gray_24.png"" style= ""width:200px""alt=""img"">
                            </div>
                        </div>","82","","0","images/gray_24.png","","","","playful"
"","","","","","html-slider-response","44","179764","0.0-40.0","k8qzodbtzk","NaN","<div style=""width:500px;"">
                            <p style=""font-size:50px; font-weight:bold;""
                            >playful</p>
                            <div style=""width:240px; margin: auto;"">
                                <img src=""images/gray_03.png"" style= ""width:200px""alt=""img"">
                            </div>
                        </div>","-50","","0","images/gray_03.png","","","","playful"
"","","","","","html-slider-response","45","182087","0.0-41.0","k8qzodbtzk","NaN","<div style=""width:500px;"">
                            <p style=""font-size:50px; font-weight:bold;""
                            >playful</p>
                            <div style=""width:240px; margin: auto;"">
                                <img src=""images/gray_18.png"" style= ""width:200px""alt=""img"">
                            </div>
                        </div>","-91","","0","images/gray_18.png","","","","playful"
"","","","","","html-slider-response","46","184548","0.0-42.0","k8qzodbtzk","NaN","<div style=""width:500px;"">
                            <p style=""font-size:50px; font-weight:bold;""
                            >playful</p>
                            <div style=""width:240px; margin: auto;"">
                                <img src=""images/gray_25.png"" style= ""width:200px""alt=""img"">
                            </div>
                        </div>","-92","","0","images/gray_25.png","","","","playful"
"","","","","","html-slider-response","47","186963","0.0-43.0","k8qzodbtzk","NaN","<div style=""width:500px;"">
                            <p style=""font-size:50px; font-weight:bold;""
                            >playful</p>
                            <div style=""width:240px; margin: auto;"">
                                <img src=""images/gray_39.png"" style= ""width:200px""alt=""img"">
                            </div>
                        </div>","86","","0","images/gray_39.png","","","","playful"
"","","","","","html-slider-response","48","189574","0.0-44.0","k8qzodbtzk","NaN","<div style=""width:500px;"">
                            <p style=""font-size:50px; font-weight:bold;""
                            >playful</p>
                            <div style=""width:240px; margin: auto;"">
                                <img src=""images/gray_31.png"" style= ""width:200px""alt=""img"">
                            </div>
                        </div>","93","","0","images/gray_31.png","","","","playful"
"","","","","","html-slider-response","49","192594","0.0-45.0","k8qzodbtzk","NaN","<div style=""width:500px;"">
                            <p style=""font-size:50px; font-weight:bold;""
                            >playful</p>
                            <div style=""width:240px; margin: auto;"">
                                <img src=""images/gray_15.png"" style= ""width:200px""alt=""img"">
                            </div>
                        </div>","98","","0","images/gray_15.png","","","","playful"
"","","","","","html-slider-response","50","194797","0.0-46.0","k8qzodbtzk","NaN","<div style=""width:500px;"">
                            <p style=""font-size:50px; font-weight:bold;""
                            >playful</p>
                            <div style=""width:240px; margin: auto;"">
                                <img src=""images/gray_01.png"" style= ""width:200px""alt=""img"">
                            </div>
                        </div>","115","","0","images/gray_01.png","","","","playful"
"","","","","","html-slider-response","51","196662","0.0-47.0","k8qzodbtzk","NaN","<div style=""width:500px;"">
                            <p style=""font-size:50px; font-weight:bold;""
                            >playful</p>
                            <div style=""width:240px; margin: auto;"">
                                <img src=""images/gray_16.png"" style= ""width:200px""alt=""img"">
                            </div>
                        </div>","-99","","0","images/gray_16.png","","","","playful"
"","","","","","html-slider-response","52","198921","0.0-48.0","k8qzodbtzk","NaN","<div style=""width:500px;"">
                            <p style=""font-size:50px; font-weight:bold;""
                            >playful</p>
                            <div style=""width:240px; margin: auto;"">
                                <img src=""images/gray_06.png"" style= ""width:200px""alt=""img"">
                            </div>
                        </div>","-98","","0","images/gray_06.png","","","","playful"
"","","","","","html-slider-response","53","201357","0.0-49.0","k8qzodbtzk","NaN","<div style=""width:500px;"">
                            <p style=""font-size:50px; font-weight:bold;""
                            >playful</p>
                            <div style=""width:240px; margin: auto;"">
                                <img src=""images/gray_05.png"" style= ""width:200px""alt=""img"">
                            </div>
                        </div>","-94","","0","images/gray_05.png","","","","playful"
"","","","","","html-slider-response","54","203745","0.0-50.0","k8qzodbtzk","NaN","<div style=""width:500px;"">
                            <p style=""font-size:50px; font-weight:bold;""
                            >playful</p>
                            <div style=""width:240px; margin: auto;"">
                                <img src=""images/gray_44.png"" style= ""width:200px""alt=""img"">
                            </div>
                        </div>","-94","","0","images/gray_44.png","","","","playful"
"","","","","","html-slider-response","55","206470","0.0-51.0","k8qzodbtzk","NaN","<div style=""width:500px;"">
                            <p style=""font-size:50px; font-weight:bold;""
                            >playful</p>
                            <div style=""width:240px; margin: auto;"">
                                <img src=""images/gray_43.png"" style= ""width:200px""alt=""img"">
                            </div>
                        </div>","-34","","0","images/gray_43.png","","","","playful"
"","","","","","html-slider-response","56","208504","0.0-52.0","k8qzodbtzk","NaN","<div style=""width:500px;"">
                            <p style=""font-size:50px; font-weight:bold;""
                            >playful</p>
                            <div style=""width:240px; margin: auto;"">
                                <img src=""images/gray_08.png"" style= ""width:200px""alt=""img"">
                            </div>
                        </div>","-47","","0","images/gray_08.png","","","","playful"
"","","","","","html-slider-response","57","210348","0.0-53.0","k8qzodbtzk","NaN","<div style=""width:500px;"">
                            <p style=""font-size:50px; font-weight:bold;""
                            >playful</p>
                            <div style=""width:240px; margin: auto;"">
                                <img src=""images/gray_13.png"" style= ""width:200px""alt=""img"">
                            </div>
                        </div>","-80","","0","images/gray_13.png","","","","playful"
"","","","","","html-slider-response","58","212372","0.0-54.0","k8qzodbtzk","NaN","<div style=""width:500px;"">
                            <p style=""font-size:50px; font-weight:bold;""
                            >playful</p>
                            <div style=""width:240px; margin: auto;"">
                                <img src=""images/gray_22.png"" style= ""width:200px""alt=""img"">
                            </div>
                        </div>","-104","","0","images/gray_22.png","","","","playful"
"","","","","","html-slider-response","59","214453","0.0-55.0","k8qzodbtzk","NaN","<div style=""width:500px;"">
                            <p style=""font-size:50px; font-weight:bold;""
                            >playful</p>
                            <div style=""width:240px; margin: auto;"">
                                <img src=""images/gray_30.png"" style= ""width:200px""alt=""img"">
                            </div>
                        </div>","-72","","0","images/gray_30.png","","","","playful"
"","","","","","html-slider-response","60","216539","0.0-56.0","k8qzodbtzk","NaN","<div style=""width:500px;"">
                            <p style=""font-size:50px; font-weight:bold;""
                            >playful</p>
                            <div style=""width:240px; margin: auto;"">
                                <img src=""images/gray_09.png"" style= ""width:200px""alt=""img"">
                            </div>
                        </div>","53","","0","images/gray_09.png","","","","playful"
"","","","","","html-slider-response","61","218342","0.0-57.0","k8qzodbtzk","NaN","<div style=""width:500px;"">
                            <p style=""font-size:50px; font-weight:bold;""
                            >playful</p>
                            <div style=""width:240px; margin: auto;"">
                                <img src=""images/gray_23.png"" style= ""width:200px""alt=""img"">
                            </div>
                        </div>","96","","0","images/gray_23.png","","","","playful"
"","","","","","html-button-response","62","229567","0.0-58.0","k8qzodbtzk","10722","<p>Great Job! You've finished block 1.<br></br> You have 7 block(s) left to go.<br></br></p>","0","","","","","","",""
"","","","","","html-button-response","63","231687","0.0-59.0","k8qzodbtzk","2117","<p>In this block of trials, you will be asked to rate how much you associate each map with:</p > <p style = 'font-size:150%; font-weight: bold'>trustworthy</p><br></br>","0","","","","","","",""
"","","","","","html-slider-response","64","236463","0.0-60.0","k8qzodbtzk","NaN","<div style=""width:500px;"">
                            <p style=""font-size:50px; font-weight:bold;""
                            >trustworthy</p>
                            <div style=""width:240px; margin: auto;"">
                                <img src=""images/gray_39.png"" style= ""width:200px""alt=""img"">
                            </div>
                        </div>","90","","0","images/gray_39.png","","","","trustworthy"
"","","","","","html-slider-response","65","238709","0.0-61.0","k8qzodbtzk","NaN","<div style=""width:500px;"">
                            <p style=""font-size:50px; font-weight:bold;""
                            >trustworthy</p>
                            <div style=""width:240px; margin: auto;"">
                                <img src=""images/gray_22.png"" style= ""width:200px""alt=""img"">
                            </div>
                        </div>","-86","","0","images/gray_22.png","","","","trustworthy"
"","","","","","html-slider-response","66","241168","0.0-62.0","k8qzodbtzk","NaN","<div style=""width:500px;"">
                            <p style=""font-size:50px; font-weight:bold;""
                            >trustworthy</p>
                            <div style=""width:240px; margin: auto;"">
                                <img src=""images/gray_40.png"" style= ""width:200px""alt=""img"">
                            </div>
                        </div>","-90","","0","images/gray_40.png","","","","trustworthy"
"","","","","","html-slider-response","67","243439","0.0-63.0","k8qzodbtzk","NaN","<div style=""width:500px;"">
                            <p style=""font-size:50px; font-weight:bold;""
                            >trustworthy</p>
                            <div style=""width:240px; margin: auto;"">
                                <img src=""images/gray_42.png"" style= ""width:200px""alt=""img"">
                            </div>
                        </div>","110","","0","images/gray_42.png","","","","trustworthy"
"","","","","","html-slider-response","68","245624","0.0-64.0","k8qzodbtzk","NaN","<div style=""width:500px;"">
                            <p style=""font-size:50px; font-weight:bold;""
                            >trustworthy</p>
                            <div style=""width:240px; margin: auto;"">
                                <img src=""images/gray_04.png"" style= ""width:200px""alt=""img"">
                            </div>
                        </div>","101","","0","images/gray_04.png","","","","trustworthy"
"","","","","","html-slider-response","69","247944","0.0-65.0","k8qzodbtzk","NaN","<div style=""width:500px;"">
                            <p style=""font-size:50px; font-weight:bold;""
                            >trustworthy</p>
                            <div style=""width:240px; margin: auto;"">
                                <img src=""images/gray_07.png"" style= ""width:200px""alt=""img"">
                            </div>
                        </div>","-90","","0","images/gray_07.png","","","","trustworthy"
"","","","","","html-slider-response","70","250636","0.0-66.0","k8qzodbtzk","NaN","<div style=""width:500px;"">
                            <p style=""font-size:50px; font-weight:bold;""
                            >trustworthy</p>
                            <div style=""width:240px; margin: auto;"">
                                <img src=""images/gray_17.png"" style= ""width:200px""alt=""img"">
                            </div>
                        </div>","-104","","0","images/gray_17.png","","","","trustworthy"
"","","","","","html-slider-response","71","252994","0.0-67.0","k8qzodbtzk","NaN","<div style=""width:500px;"">
                            <p style=""font-size:50px; font-weight:bold;""
                            >trustworthy</p>
                            <div style=""width:240px; margin: auto;"">
                                <img src=""images/gray_34.png"" style= ""width:200px""alt=""img"">
                            </div>
                        </div>","-200","","0","images/gray_34.png","","","","trustworthy"
"","","","","","html-slider-response","72","255222","0.0-68.0","k8qzodbtzk","NaN","<div style=""width:500px;"">
                            <p style=""font-size:50px; font-weight:bold;""
                            >trustworthy</p>
                            <div style=""width:240px; margin: auto;"">
                                <img src=""images/gray_41.png"" style= ""width:200px""alt=""img"">
                            </div>
                        </div>","-200","","0","images/gray_41.png","","","","trustworthy"
"","","","","","html-slider-response","73","257014","0.0-69.0","k8qzodbtzk","NaN","<div style=""width:500px;"">
                            <p style=""font-size:50px; font-weight:bold;""
                            >trustworthy</p>
                            <div style=""width:240px; margin: auto;"">
                                <img src=""images/gray_26.png"" style= ""width:200px""alt=""img"">
                            </div>
                        </div>","2","","0","images/gray_26.png","","","","trustworthy"
"","","","","","html-slider-response","74","259230","0.0-70.0","k8qzodbtzk","NaN","<div style=""width:500px;"">
                            <p style=""font-size:50px; font-weight:bold;""
                            >trustworthy</p>
                            <div style=""width:240px; margin: auto;"">
                                <img src=""images/gray_33.png"" style= ""width:200px""alt=""img"">
                            </div>
                        </div>","86","","0","images/gray_33.png","","","","trustworthy"
"","","","","","html-slider-response","75","262280","0.0-71.0","k8qzodbtzk","NaN","<div style=""width:500px;"">
                            <p style=""font-size:50px; font-weight:bold;""
                            >trustworthy</p>
                            <div style=""width:240px; margin: auto;"">
                                <img src=""images/gray_20.png"" style= ""width:200px""alt=""img"">
                            </div>
                        </div>","-34","","0","images/gray_20.png","","","","trustworthy"
"","","","","","html-slider-response","76","264210","0.0-72.0","k8qzodbtzk","NaN","<div style=""width:500px;"">
                            <p style=""font-size:50px; font-weight:bold;""
                            >trustworthy</p>
                            <div style=""width:240px; margin: auto;"">
                                <img src=""images/gray_44.png"" style= ""width:200px""alt=""img"">
                            </div>
                        </div>","-69","","0","images/gray_44.png","","","","trustworthy"
"","","","","","html-slider-response","77","266072","0.0-73.0","k8qzodbtzk","NaN","<div style=""width:500px;"">
                            <p style=""font-size:50px; font-weight:bold;""
                            >trustworthy</p>
                            <div style=""width:240px; margin: auto;"">
                                <img src=""images/gray_43.png"" style= ""width:200px""alt=""img"">
                            </div>
                        </div>","101","","0","images/gray_43.png","","","","trustworthy"
"","","","","","html-slider-response","78","268024","0.0-74.0","k8qzodbtzk","NaN","<div style=""width:500px;"">
                            <p style=""font-size:50px; font-weight:bold;""
                            >trustworthy</p>
                            <div style=""width:240px; margin: auto;"">
                                <img src=""images/gray_10.png"" style= ""width:200px""alt=""img"">
                            </div>
                        </div>","97","","0","images/gray_10.png","","","","trustworthy"
"","","","","","html-slider-response","79","269958","0.0-75.0","k8qzodbtzk","NaN","<div style=""width:500px;"">
                            <p style=""font-size:50px; font-weight:bold;""
                            >trustworthy</p>
                            <div style=""width:240px; margin: auto;"">
                                <img src=""images/gray_30.png"" style= ""width:200px""alt=""img"">
                            </div>
                        </div>","-109","","0","images/gray_30.png","","","","trustworthy"
"","","","","","html-slider-response","80","271908","0.0-76.0","k8qzodbtzk","NaN","<div style=""width:500px;"">
                            <p style=""font-size:50px; font-weight:bold;""
                            >trustworthy</p>
                            <div style=""width:240px; margin: auto;"">
                                <img src=""images/gray_35.png"" style= ""width:200px""alt=""img"">
                            </div>
                        </div>","-101","","0","images/gray_35.png","","","","trustworthy"
"","","","","","html-slider-response","81","274052","0.0-77.0","k8qzodbtzk","NaN","<div style=""width:500px;"">
                            <p style=""font-size:50px; font-weight:bold;""
                            >trustworthy</p>
                            <div style=""width:240px; margin: auto;"">
                                <img src=""images/gray_15.png"" style= ""width:200px""alt=""img"">
                            </div>
                        </div>","126","","0","images/gray_15.png","","","","trustworthy"
"","","","","","html-slider-response","82","276206","0.0-78.0","k8qzodbtzk","NaN","<div style=""width:500px;"">
                            <p style=""font-size:50px; font-weight:bold;""
                            >trustworthy</p>
                            <div style=""width:240px; margin: auto;"">
                                <img src=""images/gray_31.png"" style= ""width:200px""alt=""img"">
                            </div>
                        </div>","130","","0","images/gray_31.png","","","","trustworthy"
"","","","","","html-slider-response","83","278708","0.0-79.0","k8qzodbtzk","NaN","<div style=""width:500px;"">
                            <p style=""font-size:50px; font-weight:bold;""
                            >trustworthy</p>
                            <div style=""width:240px; margin: auto;"">
                                <img src=""images/gray_38.png"" style= ""width:200px""alt=""img"">
                            </div>
                        </div>","-107","","0","images/gray_38.png","","","","trustworthy"
"","","","","","html-slider-response","84","282399","0.0-80.0","k8qzodbtzk","NaN","<div style=""width:500px;"">
                            <p style=""font-size:50px; font-weight:bold;""
                            >trustworthy</p>
                            <div style=""width:240px; margin: auto;"">
                                <img src=""images/gray_32.png"" style= ""width:200px""alt=""img"">
                            </div>
                        </div>","-109","","0","images/gray_32.png","","","","trustworthy"
"","","","","","html-slider-response","85","285595","0.0-81.0","k8qzodbtzk","NaN","<div style=""width:500px;"">
                            <p style=""font-size:50px; font-weight:bold;""
                            >trustworthy</p>
                            <div style=""width:240px; margin: auto;"">
                                <img src=""images/gray_21.png"" style= ""width:200px""alt=""img"">
                            </div>
                        </div>","-200","","0","images/gray_21.png","","","","trustworthy"
"","","","","","html-slider-response","86","287832","0.0-82.0","k8qzodbtzk","NaN","<div style=""width:500px;"">
                            <p style=""font-size:50px; font-weight:bold;""
                            >trustworthy</p>
                            <div style=""width:240px; margin: auto;"">
                                <img src=""images/gray_19.png"" style= ""width:200px""alt=""img"">
                            </div>
                        </div>","-56","","0","images/gray_19.png","","","","trustworthy"
"","","","","","html-slider-response","87","289686","0.0-83.0","k8qzodbtzk","NaN","<div style=""width:500px;"">
                            <p style=""font-size:50px; font-weight:bold;""
                            >trustworthy</p>
                            <div style=""width:240px; margin: auto;"">
                                <img src=""images/gray_12.png"" style= ""width:200px""alt=""img"">
                            </div>
                        </div>","106","","0","images/gray_12.png","","","","trustworthy"
"","","","","","html-slider-response","88","291420","0.0-84.0","k8qzodbtzk","NaN","<div style=""width:500px;"">
                            <p style=""font-size:50px; font-weight:bold;""
                            >trustworthy</p>
                            <div style=""width:240px; margin: auto;"">
                                <img src=""images/gray_28.png"" style= ""width:200px""alt=""img"">
                            </div>
                        </div>","-102","","0","images/gray_28.png","","","","trustworthy"
"","","","","","html-slider-response","89","293172","0.0-85.0","k8qzodbtzk","NaN","<div style=""width:500px;"">
                            <p style=""font-size:50px; font-weight:bold;""
                            >trustworthy</p>
                            <div style=""width:240px; margin: auto;"">
                                <img src=""images/gray_24.png"" style= ""width:200px""alt=""img"">
                            </div>
                        </div>","-95","","0","images/gray_24.png","","","","trustworthy"
"","","","","","html-slider-response","90","296901","0.0-86.0","k8qzodbtzk","NaN","<div style=""width:500px;"">
                            <p style=""font-size:50px; font-weight:bold;""
                            >trustworthy</p>
                            <div style=""width:240px; margin: auto;"">
                                <img src=""images/gray_09.png"" style= ""width:200px""alt=""img"">
                            </div>
                        </div>","-52","","0","images/gray_09.png","","","","trustworthy"
"","","","","","html-slider-response","91","298969","0.0-87.0","k8qzodbtzk","NaN","<div style=""width:500px;"">
                            <p style=""font-size:50px; font-weight:bold;""
                            >trustworthy</p>
                            <div style=""width:240px; margin: auto;"">
                                <img src=""images/gray_16.png"" style= ""width:200px""alt=""img"">
                            </div>
                        </div>","-49","","0","images/gray_16.png","","","","trustworthy"
"","","","","","html-slider-response","92","301120","0.0-88.0","k8qzodbtzk","NaN","<div style=""width:500px;"">
                            <p style=""font-size:50px; font-weight:bold;""
                            >trustworthy</p>
                            <div style=""width:240px; margin: auto;"">
                                <img src=""images/gray_18.png"" style= ""width:200px""alt=""img"">
                            </div>
                        </div>","97","","0","images/gray_18.png","","","","trustworthy"
"","","","","","html-slider-response","93","303886","0.0-89.0","k8qzodbtzk","NaN","<div style=""width:500px;"">
                            <p style=""font-size:50px; font-weight:bold;""
                            >trustworthy</p>
                            <div style=""width:240px; margin: auto;"">
                                <img src=""images/gray_29.png"" style= ""width:200px""alt=""img"">
                            </div>
                        </div>","85","","0","images/gray_29.png","","","","trustworthy"
"","","","","","html-slider-response","94","306713","0.0-90.0","k8qzodbtzk","NaN","<div style=""width:500px;"">
                            <p style=""font-size:50px; font-weight:bold;""
                            >trustworthy</p>
                            <div style=""width:240px; margin: auto;"">
                                <img src=""images/gray_05.png"" style= ""width:200px""alt=""img"">
                            </div>
                        </div>","83","","0","images/gray_05.png","","","","trustworthy"
"","","","","","html-slider-response","95","308643","0.0-91.0","k8qzodbtzk","NaN","<div style=""width:500px;"">
                            <p style=""font-size:50px; font-weight:bold;""
                            >trustworthy</p>
                            <div style=""width:240px; margin: auto;"">
                                <img src=""images/gray_25.png"" style= ""width:200px""alt=""img"">
                            </div>
                        </div>","114","","0","images/gray_25.png","","","","trustworthy"
"","","","","","html-slider-response","96","310476","0.0-92.0","k8qzodbtzk","NaN","<div style=""width:500px;"">
                            <p style=""font-size:50px; font-weight:bold;""
                            >trustworthy</p>
                            <div style=""width:240px; margin: auto;"">
                                <img src=""images/gray_06.png"" style= ""width:200px""alt=""img"">
                            </div>
                        </div>","-56","","0","images/gray_06.png","","","","trustworthy"
"","","","","","html-slider-response","97","312132","0.0-93.0","k8qzodbtzk","NaN","<div style=""width:500px;"">
                            <p style=""font-size:50px; font-weight:bold;""
                            >trustworthy</p>
                            <div style=""width:240px; margin: auto;"">
                                <img src=""images/gray_36.png"" style= ""width:200px""alt=""img"">
                            </div>
                        </div>","-75","","0","images/gray_36.png","","","","trustworthy"
"","","","","","html-slider-response","98","313901","0.0-94.0","k8qzodbtzk","NaN","<div style=""width:500px;"">
                            <p style=""font-size:50px; font-weight:bold;""
                            >trustworthy</p>
                            <div style=""width:240px; margin: auto;"">
                                <img src=""images/gray_37.png"" style= ""width:200px""alt=""img"">
                            </div>
                        </div>","-122","","0","images/gray_37.png","","","","trustworthy"
"","","","","","html-slider-response","99","315581","0.0-95.0","k8qzodbtzk","NaN","<div style=""width:500px;"">
                            <p style=""font-size:50px; font-weight:bold;""
                            >trustworthy</p>
                            <div style=""width:240px; margin: auto;"">
                                <img src=""images/gray_13.png"" style= ""width:200px""alt=""img"">
                            </div>
                        </div>","-77","","0","images/gray_13.png","","","","trustworthy"
"","","","","","html-slider-response","100","317356","0.0-96.0","k8qzodbtzk","NaN","<div style=""width:500px;"">
                            <p style=""font-size:50px; font-weight:bold;""
                            >trustworthy</p>
                            <div style=""width:240px; margin: auto;"">
                                <img src=""images/gray_02.png"" style= ""width:200px""alt=""img"">
                            </div>
                        </div>","-69","","0","images/gray_02.png","","","","trustworthy"
"","","","","","html-slider-response","101","320488","0.0-97.0","k8qzodbtzk","NaN","<div style=""width:500px;"">
                            <p style=""font-size:50px; font-weight:bold;""
                            >trustworthy</p>
                            <div style=""width:240px; margin: auto;"">
                                <img src=""images/gray_08.png"" style= ""width:200px""alt=""img"">
                            </div>
                        </div>","85","","0","images/gray_08.png","","","","trustworthy"
"","","","","","html-slider-response","102","322343","0.0-98.0","k8qzodbtzk","NaN","<div style=""width:500px;"">
                            <p style=""font-size:50px; font-weight:bold;""
                            >trustworthy</p>
                            <div style=""width:240px; margin: auto;"">
                                <img src=""images/gray_14.png"" style= ""width:200px""alt=""img"">
                            </div>
                        </div>","68","","0","images/gray_14.png","","","","trustworthy"
"","","","","","html-slider-response","103","324143","0.0-99.0","k8qzodbtzk","NaN","<div style=""width:500px;"">
                            <p style=""font-size:50px; font-weight:bold;""
                            >trustworthy</p>
                            <div style=""width:240px; margin: auto;"">
                                <img src=""images/gray_03.png"" style= ""width:200px""alt=""img"">
                            </div>
                        </div>","90","","0","images/gray_03.png","","","","trustworthy"
"","","","","","html-slider-response","104","326041","0.0-100.0","k8qzodbtzk","NaN","<div style=""width:500px;"">
                            <p style=""font-size:50px; font-weight:bold;""
                            >trustworthy</p>
                            <div style=""width:240px; margin: auto;"">
                                <img src=""images/gray_11.png"" style= ""width:200px""alt=""img"">
                            </div>
                        </div>","-63","","0","images/gray_11.png","","","","trustworthy"
"","","","","","html-slider-response","105","329716","0.0-101.0","k8qzodbtzk","NaN","<div style=""width:500px;"">
                            <p style=""font-size:50px; font-weight:bold;""
                            >trustworthy</p>
                            <div style=""width:240px; margin: auto;"">
                                <img src=""images/gray_27.png"" style= ""width:200px""alt=""img"">
                            </div>
                        </div>","-69","","0","images/gray_27.png","","","","trustworthy"
"","","","","","html-slider-response","106","331819","0.0-102.0","k8qzodbtzk","NaN","<div style=""width:500px;"">
                            <p style=""font-size:50px; font-weight:bold;""
                            >trustworthy</p>
                            <div style=""width:240px; margin: auto;"">
                                <img src=""images/gray_01.png"" style= ""width:200px""alt=""img"">
                            </div>
                        </div>","-103","","0","images/gray_01.png","","","","trustworthy"
"","","","","","html-slider-response","107","334050","0.0-103.0","k8qzodbtzk","NaN","<div style=""width:500px;"">
                            <p style=""font-size:50px; font-weight:bold;""
                            >trustworthy</p>
                            <div style=""width:240px; margin: auto;"">
                                <img src=""images/gray_23.png"" style= ""width:200px""alt=""img"">
                            </div>
                        </div>","59","","0","images/gray_23.png","","","","trustworthy"
"","","","","","html-button-response","108","335555","0.0-104.0","k8qzodbtzk","997","<p>Great Job! You've finished block 2.<br></br> You have 6 block(s) left to go.<br></br></p>","0","","","","","","",""
"","","","","","html-button-response","109","336778","0.0-105.0","k8qzodbtzk","1221","<p>In this block of trials, you will be asked to rate how much you associate each map with:</p > <p style = 'font-size:150%; font-weight: bold'>disturbing</p><br></br>","0","","","","","","",""
"","","","","","html-slider-response","110","340011","0.0-106.0","k8qzodbtzk","NaN","<div style=""width:500px;"">
                            <p style=""font-size:50px; font-weight:bold;""
                            >disturbing</p>
                            <div style=""width:240px; margin: auto;"">
                                <img src=""images/gray_35.png"" style= ""width:200px""alt=""img"">
                            </div>
                        </div>","-200","","0","images/gray_35.png","","","","disturbing"
"","","","","","html-slider-response","111","342233","0.0-107.0","k8qzodbtzk","NaN","<div style=""width:500px;"">
                            <p style=""font-size:50px; font-weight:bold;""
                            >disturbing</p>
                            <div style=""width:240px; margin: auto;"">
                                <img src=""images/gray_20.png"" style= ""width:200px""alt=""img"">
                            </div>
                        </div>","133","","0","images/gray_20.png","","","","disturbing"
"","","","","","html-slider-response","112","345425","0.0-108.0","k8qzodbtzk","NaN","<div style=""width:500px;"">
                            <p style=""font-size:50px; font-weight:bold;""
                            >disturbing</p>
                            <div style=""width:240px; margin: auto;"">
                                <img src=""images/gray_37.png"" style= ""width:200px""alt=""img"">
                            </div>
                        </div>","34","","0","images/gray_37.png","","","","disturbing"
"","","","","","html-slider-response","113","348720","0.0-109.0","k8qzodbtzk","NaN","<div style=""width:500px;"">
                            <p style=""font-size:50px; font-weight:bold;""
                            >disturbing</p>
                            <div style=""width:240px; margin: auto;"">
                                <img src=""images/gray_03.png"" style= ""width:200px""alt=""img"">
                            </div>
                        </div>","-200","","0","images/gray_03.png","","","","disturbing"
"","","","","","html-slider-response","114","350745","0.0-110.0","k8qzodbtzk","NaN","<div style=""width:500px;"">
                            <p style=""font-size:50px; font-weight:bold;""
                            >disturbing</p>
                            <div style=""width:240px; margin: auto;"">
                                <img src=""images/gray_01.png"" style= ""width:200px""alt=""img"">
                            </div>
                        </div>","-200","","0","images/gray_01.png","","","","disturbing"
"","","","","","html-slider-response","115","353182","0.0-111.0","k8qzodbtzk","NaN","<div style=""width:500px;"">
                            <p style=""font-size:50px; font-weight:bold;""
                            >disturbing</p>
                            <div style=""width:240px; margin: auto;"">
                                <img src=""images/gray_14.png"" style= ""width:200px""alt=""img"">
                            </div>
                        </div>","71","","0","images/gray_14.png","","","","disturbing"
"","","","","","html-slider-response","116","357237","0.0-112.0","k8qzodbtzk","NaN","<div style=""width:500px;"">
                            <p style=""font-size:50px; font-weight:bold;""
                            >disturbing</p>
                            <div style=""width:240px; margin: auto;"">
                                <img src=""images/gray_25.png"" style= ""width:200px""alt=""img"">
                            </div>
                        </div>","60","","0","images/gray_25.png","","","","disturbing"
"","","","","","html-slider-response","117","359182","0.0-113.0","k8qzodbtzk","NaN","<div style=""width:500px;"">
                            <p style=""font-size:50px; font-weight:bold;""
                            >disturbing</p>
                            <div style=""width:240px; margin: auto;"">
                                <img src=""images/gray_26.png"" style= ""width:200px""alt=""img"">
                            </div>
                        </div>","-102","","0","images/gray_26.png","","","","disturbing"
"","","","","","html-slider-response","118","361140","0.0-114.0","k8qzodbtzk","NaN","<div style=""width:500px;"">
                            <p style=""font-size:50px; font-weight:bold;""
                            >disturbing</p>
                            <div style=""width:240px; margin: auto;"">
                                <img src=""images/gray_44.png"" style= ""width:200px""alt=""img"">
                            </div>
                        </div>","-112","","0","images/gray_44.png","","","","disturbing"
"","","","","","html-slider-response","119","363185","0.0-115.0","k8qzodbtzk","NaN","<div style=""width:500px;"">
                            <p style=""font-size:50px; font-weight:bold;""
                            >disturbing</p>
                            <div style=""width:240px; margin: auto;"">
                                <img src=""images/gray_42.png"" style= ""width:200px""alt=""img"">
                            </div>
                        </div>","-118","","0","images/gray_42.png","","","","disturbing"
"","","","","","html-slider-response","120","365693","0.0-116.0","k8qzodbtzk","NaN","<div style=""width:500px;"">
                            <p style=""font-size:50px; font-weight:bold;""
                            >disturbing</p>
                            <div style=""width:240px; margin: auto;"">
                                <img src=""images/gray_30.png"" style= ""width:200px""alt=""img"">
                            </div>
                        </div>","142","","0","images/gray_30.png","","","","disturbing"
"","","","","","html-slider-response","121","368151","0.0-117.0","k8qzodbtzk","NaN","<div style=""width:500px;"">
                            <p style=""font-size:50px; font-weight:bold;""
                            >disturbing</p>
                            <div style=""width:240px; margin: auto;"">
                                <img src=""images/gray_21.png"" style= ""width:200px""alt=""img"">
                            </div>
                        </div>","200","","0","images/gray_21.png","","","","disturbing"
"","","","","","html-slider-response","122","370609","0.0-118.0","k8qzodbtzk","NaN","<div style=""width:500px;"">
                            <p style=""font-size:50px; font-weight:bold;""
                            >disturbing</p>
                            <div style=""width:240px; margin: auto;"">
                                <img src=""images/gray_02.png"" style= ""width:200px""alt=""img"">
                            </div>
                        </div>","-200","","0","images/gray_02.png","","","","disturbing"
"","","","","","html-slider-response","123","373142","0.0-119.0","k8qzodbtzk","NaN","<div style=""width:500px;"">
                            <p style=""font-size:50px; font-weight:bold;""
                            >disturbing</p>
                            <div style=""width:240px; margin: auto;"">
                                <img src=""images/gray_27.png"" style= ""width:200px""alt=""img"">
                            </div>
                        </div>","200","","0","images/gray_27.png","","","","disturbing"
"","","","","","html-slider-response","124","375789","0.0-120.0","k8qzodbtzk","NaN","<div style=""width:500px;"">
                            <p style=""font-size:50px; font-weight:bold;""
                            >disturbing</p>
                            <div style=""width:240px; margin: auto;"">
                                <img src=""images/gray_33.png"" style= ""width:200px""alt=""img"">
                            </div>
                        </div>","-182","","0","images/gray_33.png","","","","disturbing"
"","","","","","html-slider-response","125","379160","0.0-121.0","k8qzodbtzk","NaN","<div style=""width:500px;"">
                            <p style=""font-size:50px; font-weight:bold;""
                            >disturbing</p>
                            <div style=""width:240px; margin: auto;"">
                                <img src=""images/gray_10.png"" style= ""width:200px""alt=""img"">
                            </div>
                        </div>","-120","","0","images/gray_10.png","","","","disturbing"
"","","","","","html-slider-response","126","381419","0.0-122.0","k8qzodbtzk","NaN","<div style=""width:500px;"">
                            <p style=""font-size:50px; font-weight:bold;""
                            >disturbing</p>
                            <div style=""width:240px; margin: auto;"">
                                <img src=""images/gray_32.png"" style= ""width:200px""alt=""img"">
                            </div>
                        </div>","-200","","0","images/gray_32.png","","","","disturbing"
"","","","","","html-slider-response","127","383886","0.0-123.0","k8qzodbtzk","NaN","<div style=""width:500px;"">
                            <p style=""font-size:50px; font-weight:bold;""
                            >disturbing</p>
                            <div style=""width:240px; margin: auto;"">
                                <img src=""images/gray_16.png"" style= ""width:200px""alt=""img"">
                            </div>
                        </div>","-200","","0","images/gray_16.png","","","","disturbing"
"","","","","","html-slider-response","128","385991","0.0-124.0","k8qzodbtzk","NaN","<div style=""width:500px;"">
                            <p style=""font-size:50px; font-weight:bold;""
                            >disturbing</p>
                            <div style=""width:240px; margin: auto;"">
                                <img src=""images/gray_40.png"" style= ""width:200px""alt=""img"">
                            </div>
                        </div>","-200","","0","images/gray_40.png","","","","disturbing"
"","","","","","html-slider-response","129","388359","0.0-125.0","k8qzodbtzk","NaN","<div style=""width:500px;"">
                            <p style=""font-size:50px; font-weight:bold;""
                            >disturbing</p>
                            <div style=""width:240px; margin: auto;"">
                                <img src=""images/gray_39.png"" style= ""width:200px""alt=""img"">
                            </div>
                        </div>","131","","0","images/gray_39.png","","","","disturbing"
"","","","","","html-slider-response","130","391055","0.0-126.0","k8qzodbtzk","NaN","<div style=""width:500px;"">
                            <p style=""font-size:50px; font-weight:bold;""
                            >disturbing</p>
                            <div style=""width:240px; margin: auto;"">
                                <img src=""images/gray_28.png"" style= ""width:200px""alt=""img"">
                            </div>
                        </div>","102","","0","images/gray_28.png","","","","disturbing"
"","","","","","html-slider-response","131","392897","0.0-127.0","k8qzodbtzk","NaN","<div style=""width:500px;"">
                            <p style=""font-size:50px; font-weight:bold;""
                            >disturbing</p>
                            <div style=""width:240px; margin: auto;"">
                                <img src=""images/gray_23.png"" style= ""width:200px""alt=""img"">
                            </div>
                        </div>","-182","","0","images/gray_23.png","","","","disturbing"
"","","","","","html-slider-response","132","394746","0.0-128.0","k8qzodbtzk","NaN","<div style=""width:500px;"">
                            <p style=""font-size:50px; font-weight:bold;""
                            >disturbing</p>
                            <div style=""width:240px; margin: auto;"">
                                <img src=""images/gray_24.png"" style= ""width:200px""alt=""img"">
                            </div>
                        </div>","179","","0","images/gray_24.png","","","","disturbing"
"","","","","","html-slider-response","133","397523","0.0-129.0","k8qzodbtzk","NaN","<div style=""width:500px;"">
                            <p style=""font-size:50px; font-weight:bold;""
                            >disturbing</p>
                            <div style=""width:240px; margin: auto;"">
                                <img src=""images/gray_17.png"" style= ""width:200px""alt=""img"">
                            </div>
                        </div>","-144","","0","images/gray_17.png","","","","disturbing"
"","","","","","html-slider-response","134","399367","0.0-130.0","k8qzodbtzk","NaN","<div style=""width:500px;"">
                            <p style=""font-size:50px; font-weight:bold;""
                            >disturbing</p>
                            <div style=""width:240px; margin: auto;"">
                                <img src=""images/gray_22.png"" style= ""width:200px""alt=""img"">
                            </div>
                        </div>","200","","0","images/gray_22.png","","","","disturbing"
"","","","","","html-slider-response","135","402040","0.0-131.0","k8qzodbtzk","NaN","<div style=""width:500px;"">
                            <p style=""font-size:50px; font-weight:bold;""
                            >disturbing</p>
                            <div style=""width:240px; margin: auto;"">
                                <img src=""images/gray_12.png"" style= ""width:200px""alt=""img"">
                            </div>
                        </div>","-184","","0","images/gray_12.png","","","","disturbing"
"","","","","","html-slider-response","136","404080","0.0-132.0","k8qzodbtzk","NaN","<div style=""width:500px;"">
                            <p style=""font-size:50px; font-weight:bold;""
                            >disturbing</p>
                            <div style=""width:240px; margin: auto;"">
                                <img src=""images/gray_38.png"" style= ""width:200px""alt=""img"">
                            </div>
                        </div>","-174","","0","images/gray_38.png","","","","disturbing"
"","","","","","html-slider-response","137","406041","0.0-133.0","k8qzodbtzk","NaN","<div style=""width:500px;"">
                            <p style=""font-size:50px; font-weight:bold;""
                            >disturbing</p>
                            <div style=""width:240px; margin: auto;"">
                                <img src=""images/gray_07.png"" style= ""width:200px""alt=""img"">
                            </div>
                        </div>","171","","0","images/gray_07.png","","","","disturbing"
"","","","","","html-slider-response","138","408161","0.0-134.0","k8qzodbtzk","NaN","<div style=""width:500px;"">
                            <p style=""font-size:50px; font-weight:bold;""
                            >disturbing</p>
                            <div style=""width:240px; margin: auto;"">
                                <img src=""images/gray_11.png"" style= ""width:200px""alt=""img"">
                            </div>
                        </div>","112","","0","images/gray_11.png","","","","disturbing"
"","","","","","html-slider-response","139","410292","0.0-135.0","k8qzodbtzk","NaN","<div style=""width:500px;"">
                            <p style=""font-size:50px; font-weight:bold;""
                            >disturbing</p>
                            <div style=""width:240px; margin: auto;"">
                                <img src=""images/gray_18.png"" style= ""width:200px""alt=""img"">
                            </div>
                        </div>","113","","0","images/gray_18.png","","","","disturbing"
"","","","","","html-slider-response","140","412933","0.0-136.0","k8qzodbtzk","NaN","<div style=""width:500px;"">
                            <p style=""font-size:50px; font-weight:bold;""
                            >disturbing</p>
                            <div style=""width:240px; margin: auto;"">
                                <img src=""images/gray_19.png"" style= ""width:200px""alt=""img"">
                            </div>
                        </div>","136","","0","images/gray_19.png","","","","disturbing"
"","","","","","html-slider-response","141","415370","0.0-137.0","k8qzodbtzk","NaN","<div style=""width:500px;"">
                            <p style=""font-size:50px; font-weight:bold;""
                            >disturbing</p>
                            <div style=""width:240px; margin: auto;"">
                                <img src=""images/gray_31.png"" style= ""width:200px""alt=""img"">
                            </div>
                        </div>","-163","","0","images/gray_31.png","","","","disturbing"
"","","","","","html-slider-response","142","418223","0.0-138.0","k8qzodbtzk","NaN","<div style=""width:500px;"">
                            <p style=""font-size:50px; font-weight:bold;""
                            >disturbing</p>
                            <div style=""width:240px; margin: auto;"">
                                <img src=""images/gray_05.png"" style= ""width:200px""alt=""img"">
                            </div>
                        </div>","121","","0","images/gray_05.png","","","","disturbing"
"","","","","","html-slider-response","143","420579","0.0-139.0","k8qzodbtzk","NaN","<div style=""width:500px;"">
                            <p style=""font-size:50px; font-weight:bold;""
                            >disturbing</p>
                            <div style=""width:240px; margin: auto;"">
                                <img src=""images/gray_29.png"" style= ""width:200px""alt=""img"">
                            </div>
                        </div>","160","","0","images/gray_29.png","","","","disturbing"
"","","","","","html-slider-response","144","422913","0.0-140.0","k8qzodbtzk","NaN","<div style=""width:500px;"">
                            <p style=""font-size:50px; font-weight:bold;""
                            >disturbing</p>
                            <div style=""width:240px; margin: auto;"">
                                <img src=""images/gray_43.png"" style= ""width:200px""alt=""img"">
                            </div>
                        </div>","98","","0","images/gray_43.png","","","","disturbing"
"","","","","","html-slider-response","145","425645","0.0-141.0","k8qzodbtzk","NaN","<div style=""width:500px;"">
                            <p style=""font-size:50px; font-weight:bold;""
                            >disturbing</p>
                            <div style=""width:240px; margin: auto;"">
                                <img src=""images/gray_04.png"" style= ""width:200px""alt=""img"">
                            </div>
                        </div>","-102","","0","images/gray_04.png","","","","disturbing"
"","","","","","html-slider-response","146","427615","0.0-142.0","k8qzodbtzk","NaN","<div style=""width:500px;"">
                            <p style=""font-size:50px; font-weight:bold;""
                            >disturbing</p>
                            <div style=""width:240px; margin: auto;"">
                                <img src=""images/gray_41.png"" style= ""width:200px""alt=""img"">
                            </div>
                        </div>","117","","0","images/gray_41.png","","","","disturbing"
"","","","","","html-slider-response","147","429791","0.0-143.0","k8qzodbtzk","NaN","<div style=""width:500px;"">
                            <p style=""font-size:50px; font-weight:bold;""
                            >disturbing</p>
                            <div style=""width:240px; margin: auto;"">
                                <img src=""images/gray_36.png"" style= ""width:200px""alt=""img"">
                            </div>
                        </div>","-107","","0","images/gray_36.png","","","","disturbing"
"","","","","","html-slider-response","148","431942","0.0-144.0","k8qzodbtzk","NaN","<div style=""width:500px;"">
                            <p style=""font-size:50px; font-weight:bold;""
                            >disturbing</p>
                            <div style=""width:240px; margin: auto;"">
                                <img src=""images/gray_08.png"" style= ""width:200px""alt=""img"">
                            </div>
                        </div>","142","","0","images/gray_08.png","","","","disturbing"
"","","","","","html-slider-response","149","434400","0.0-145.0","k8qzodbtzk","NaN","<div style=""width:500px;"">
                            <p style=""font-size:50px; font-weight:bold;""
                            >disturbing</p>
                            <div style=""width:240px; margin: auto;"">
                                <img src=""images/gray_15.png"" style= ""width:200px""alt=""img"">
                            </div>
                        </div>","-112","","0","images/gray_15.png","","","","disturbing"
"","","","","","html-slider-response","150","436730","0.0-146.0","k8qzodbtzk","NaN","<div style=""width:500px;"">
                            <p style=""font-size:50px; font-weight:bold;""
                            >disturbing</p>
                            <div style=""width:240px; margin: auto;"">
                                <img src=""images/gray_09.png"" style= ""width:200px""alt=""img"">
                            </div>
                        </div>","138","","0","images/gray_09.png","","","","disturbing"
"","","","","","html-slider-response","151","440259","0.0-147.0","k8qzodbtzk","NaN","<div style=""width:500px;"">
                            <p style=""font-size:50px; font-weight:bold;""
                            >disturbing</p>
                            <div style=""width:240px; margin: auto;"">
                                <img src=""images/gray_13.png"" style= ""width:200px""alt=""img"">
                            </div>
                        </div>","112","","0","images/gray_13.png","","","","disturbing"
"","","","","","html-slider-response","152","442550","0.0-148.0","k8qzodbtzk","NaN","<div style=""width:500px;"">
                            <p style=""font-size:50px; font-weight:bold;""
                            >disturbing</p>
                            <div style=""width:240px; margin: auto;"">
                                <img src=""images/gray_34.png"" style= ""width:200px""alt=""img"">
                            </div>
                        </div>","200","","0","images/gray_34.png","","","","disturbing"
"","","","","","html-slider-response","153","444859","0.0-149.0","k8qzodbtzk","NaN","<div style=""width:500px;"">
                            <p style=""font-size:50px; font-weight:bold;""
                            >disturbing</p>
                            <div style=""width:240px; margin: auto;"">
                                <img src=""images/gray_06.png"" style= ""width:200px""alt=""img"">
                            </div>
                        </div>","-122","","0","images/gray_06.png","","","","disturbing"
"","","","","","html-button-response","154","450853","0.0-150.0","k8qzodbtzk","5485","<p>Great Job! You've finished block 3.<br></br> You have 5 block(s) left to go.<br></br></p>","0","","","","","","",""
"","","","","","html-button-response","155","452143","0.0-151.0","k8qzodbtzk","1289","<p>In this block of trials, you will be asked to rate how much you associate each map with:</p > <p style = 'font-size:150%; font-weight: bold'>positive</p><br></br>","0","","","","","","",""
"","","","","","html-slider-response","156","454475","0.0-152.0","k8qzodbtzk","NaN","<div style=""width:500px;"">
                            <p style=""font-size:50px; font-weight:bold;""
                            >positive</p>
                            <div style=""width:240px; margin: auto;"">
                                <img src=""images/gray_11.png"" style= ""width:200px""alt=""img"">
                            </div>
                        </div>","-200","","0","images/gray_11.png","","","","positive"
"","","","","","html-slider-response","157","456277","0.0-153.0","k8qzodbtzk","NaN","<div style=""width:500px;"">
                            <p style=""font-size:50px; font-weight:bold;""
                            >positive</p>
                            <div style=""width:240px; margin: auto;"">
                                <img src=""images/gray_02.png"" style= ""width:200px""alt=""img"">
                            </div>
                        </div>","-200","","0","images/gray_02.png","","","","positive"
"","","","","","html-slider-response","158","458165","0.0-154.0","k8qzodbtzk","NaN","<div style=""width:500px;"">
                            <p style=""font-size:50px; font-weight:bold;""
                            >positive</p>
                            <div style=""width:240px; margin: auto;"">
                                <img src=""images/gray_37.png"" style= ""width:200px""alt=""img"">
                            </div>
                        </div>","-200","","0","images/gray_37.png","","","","positive"
"","","","","","html-slider-response","159","460459","0.0-155.0","k8qzodbtzk","NaN","<div style=""width:500px;"">
                            <p style=""font-size:50px; font-weight:bold;""
                            >positive</p>
                            <div style=""width:240px; margin: auto;"">
                                <img src=""images/gray_36.png"" style= ""width:200px""alt=""img"">
                            </div>
                        </div>","-200","","0","images/gray_36.png","","","","positive"
"","","","","","html-slider-response","160","462409","0.0-156.0","k8qzodbtzk","NaN","<div style=""width:500px;"">
                            <p style=""font-size:50px; font-weight:bold;""
                            >positive</p>
                            <div style=""width:240px; margin: auto;"">
                                <img src=""images/gray_01.png"" style= ""width:200px""alt=""img"">
                            </div>
                        </div>","-200","","0","images/gray_01.png","","","","positive"
"","","","","","html-slider-response","161","464601","0.0-157.0","k8qzodbtzk","NaN","<div style=""width:500px;"">
                            <p style=""font-size:50px; font-weight:bold;""
                            >positive</p>
                            <div style=""width:240px; margin: auto;"">
                                <img src=""images/gray_32.png"" style= ""width:200px""alt=""img"">
                            </div>
                        </div>","83","","0","images/gray_32.png","","","","positive"
"","","","","","html-slider-response","162","466409","0.0-158.0","k8qzodbtzk","NaN","<div style=""width:500px;"">
                            <p style=""font-size:50px; font-weight:bold;""
                            >positive</p>
                            <div style=""width:240px; margin: auto;"">
                                <img src=""images/gray_03.png"" style= ""width:200px""alt=""img"">
                            </div>
                        </div>","104","","0","images/gray_03.png","","","","positive"
"","","","","","html-slider-response","163","468321","0.0-159.0","k8qzodbtzk","NaN","<div style=""width:500px;"">
                            <p style=""font-size:50px; font-weight:bold;""
                            >positive</p>
                            <div style=""width:240px; margin: auto;"">
                                <img src=""images/gray_27.png"" style= ""width:200px""alt=""img"">
                            </div>
                        </div>","-106","","0","images/gray_27.png","","","","positive"
"","","","","","html-slider-response","164","470195","0.0-160.0","k8qzodbtzk","NaN","<div style=""width:500px;"">
                            <p style=""font-size:50px; font-weight:bold;""
                            >positive</p>
                            <div style=""width:240px; margin: auto;"">
                                <img src=""images/gray_41.png"" style= ""width:200px""alt=""img"">
                            </div>
                        </div>","-200","","0","images/gray_41.png","","","","positive"
"","","","","","html-slider-response","165","472665","0.0-161.0","k8qzodbtzk","NaN","<div style=""width:500px;"">
                            <p style=""font-size:50px; font-weight:bold;""
                            >positive</p>
                            <div style=""width:240px; margin: auto;"">
                                <img src=""images/gray_05.png"" style= ""width:200px""alt=""img"">
                            </div>
                        </div>","-117","","0","images/gray_05.png","","","","positive"
"","","","","","html-slider-response","166","475133","0.0-162.0","k8qzodbtzk","NaN","<div style=""width:500px;"">
                            <p style=""font-size:50px; font-weight:bold;""
                            >positive</p>
                            <div style=""width:240px; margin: auto;"">
                                <img src=""images/gray_26.png"" style= ""width:200px""alt=""img"">
                            </div>
                        </div>","109","","0","images/gray_26.png","","","","positive"
"","","","","","html-slider-response","167","477273","0.0-163.0","k8qzodbtzk","NaN","<div style=""width:500px;"">
                            <p style=""font-size:50px; font-weight:bold;""
                            >positive</p>
                            <div style=""width:240px; margin: auto;"">
                                <img src=""images/gray_42.png"" style= ""width:200px""alt=""img"">
                            </div>
                        </div>","-70","","0","images/gray_42.png","","","","positive"
"","","","","","html-slider-response","168","479220","0.0-164.0","k8qzodbtzk","NaN","<div style=""width:500px;"">
                            <p style=""font-size:50px; font-weight:bold;""
                            >positive</p>
                            <div style=""width:240px; margin: auto;"">
                                <img src=""images/gray_10.png"" style= ""width:200px""alt=""img"">
                            </div>
                        </div>","-101","","0","images/gray_10.png","","","","positive"
"","","","","","html-slider-response","169","481256","0.0-165.0","k8qzodbtzk","NaN","<div style=""width:500px;"">
                            <p style=""font-size:50px; font-weight:bold;""
                            >positive</p>
                            <div style=""width:240px; margin: auto;"">
                                <img src=""images/gray_20.png"" style= ""width:200px""alt=""img"">
                            </div>
                        </div>","-144","","0","images/gray_20.png","","","","positive"
"","","","","","html-slider-response","170","483234","0.0-166.0","k8qzodbtzk","NaN","<div style=""width:500px;"">
                            <p style=""font-size:50px; font-weight:bold;""
                            >positive</p>
                            <div style=""width:240px; margin: auto;"">
                                <img src=""images/gray_38.png"" style= ""width:200px""alt=""img"">
                            </div>
                        </div>","106","","0","images/gray_38.png","","","","positive"
"","","","","","html-slider-response","171","485075","0.0-167.0","k8qzodbtzk","NaN","<div style=""width:500px;"">
                            <p style=""font-size:50px; font-weight:bold;""
                            >positive</p>
                            <div style=""width:240px; margin: auto;"">
                                <img src=""images/gray_24.png"" style= ""width:200px""alt=""img"">
                            </div>
                        </div>","-86","","0","images/gray_24.png","","","","positive"
"","","","","","html-slider-response","172","487420","0.0-168.0","k8qzodbtzk","NaN","<div style=""width:500px;"">
                            <p style=""font-size:50px; font-weight:bold;""
                            >positive</p>
                            <div style=""width:240px; margin: auto;"">
                                <img src=""images/gray_30.png"" style= ""width:200px""alt=""img"">
                            </div>
                        </div>","78","","0","images/gray_30.png","","","","positive"
"","","","","","html-slider-response","173","489316","0.0-169.0","k8qzodbtzk","NaN","<div style=""width:500px;"">
                            <p style=""font-size:50px; font-weight:bold;""
                            >positive</p>
                            <div style=""width:240px; margin: auto;"">
                                <img src=""images/gray_25.png"" style= ""width:200px""alt=""img"">
                            </div>
                        </div>","110","","0","images/gray_25.png","","","","positive"
"","","","","","html-slider-response","174","491291","0.0-170.0","k8qzodbtzk","NaN","<div style=""width:500px;"">
                            <p style=""font-size:50px; font-weight:bold;""
                            >positive</p>
                            <div style=""width:240px; margin: auto;"">
                                <img src=""images/gray_18.png"" style= ""width:200px""alt=""img"">
                            </div>
                        </div>","-114","","0","images/gray_18.png","","","","positive"
"","","","","","html-slider-response","175","493677","0.0-171.0","k8qzodbtzk","NaN","<div style=""width:500px;"">
                            <p style=""font-size:50px; font-weight:bold;""
                            >positive</p>
                            <div style=""width:240px; margin: auto;"">
                                <img src=""images/gray_29.png"" style= ""width:200px""alt=""img"">
                            </div>
                        </div>","-114","","0","images/gray_29.png","","","","positive"
"","","","","","html-slider-response","176","495668","0.0-172.0","k8qzodbtzk","NaN","<div style=""width:500px;"">
                            <p style=""font-size:50px; font-weight:bold;""
                            >positive</p>
                            <div style=""width:240px; margin: auto;"">
                                <img src=""images/gray_34.png"" style= ""width:200px""alt=""img"">
                            </div>
                        </div>","-189","","0","images/gray_34.png","","","","positive"
"","","","","","html-slider-response","177","497713","0.0-173.0","k8qzodbtzk","NaN","<div style=""width:500px;"">
                            <p style=""font-size:50px; font-weight:bold;""
                            >positive</p>
                            <div style=""width:240px; margin: auto;"">
                                <img src=""images/gray_21.png"" style= ""width:200px""alt=""img"">
                            </div>
                        </div>","-200","","0","images/gray_21.png","","","","positive"
"","","","","","html-slider-response","178","499848","0.0-174.0","k8qzodbtzk","NaN","<div style=""width:500px;"">
                            <p style=""font-size:50px; font-weight:bold;""
                            >positive</p>
                            <div style=""width:240px; margin: auto;"">
                                <img src=""images/gray_44.png"" style= ""width:200px""alt=""img"">
                            </div>
                        </div>","-101","","0","images/gray_44.png","","","","positive"
"","","","","","html-slider-response","179","501818","0.0-175.0","k8qzodbtzk","NaN","<div style=""width:500px;"">
                            <p style=""font-size:50px; font-weight:bold;""
                            >positive</p>
                            <div style=""width:240px; margin: auto;"">
                                <img src=""images/gray_09.png"" style= ""width:200px""alt=""img"">
                            </div>
                        </div>","74","","0","images/gray_09.png","","","","positive"
"","","","","","html-slider-response","180","503866","0.0-176.0","k8qzodbtzk","NaN","<div style=""width:500px;"">
                            <p style=""font-size:50px; font-weight:bold;""
                            >positive</p>
                            <div style=""width:240px; margin: auto;"">
                                <img src=""images/gray_13.png"" style= ""width:200px""alt=""img"">
                            </div>
                        </div>","-96","","0","images/gray_13.png","","","","positive"
"","","","","","html-slider-response","181","506054","0.0-177.0","k8qzodbtzk","NaN","<div style=""width:500px;"">
                            <p style=""font-size:50px; font-weight:bold;""
                            >positive</p>
                            <div style=""width:240px; margin: auto;"">
                                <img src=""images/gray_08.png"" style= ""width:200px""alt=""img"">
                            </div>
                        </div>","-200","","0","images/gray_08.png","","","","positive"
"","","","","","html-slider-response","182","508454","0.0-178.0","k8qzodbtzk","NaN","<div style=""width:500px;"">
                            <p style=""font-size:50px; font-weight:bold;""
                            >positive</p>
                            <div style=""width:240px; margin: auto;"">
                                <img src=""images/gray_14.png"" style= ""width:200px""alt=""img"">
                            </div>
                        </div>","-39","","0","images/gray_14.png","","","","positive"
"","","","","","html-slider-response","183","510625","0.0-179.0","k8qzodbtzk","NaN","<div style=""width:500px;"">
                            <p style=""font-size:50px; font-weight:bold;""
                            >positive</p>
                            <div style=""width:240px; margin: auto;"">
                                <img src=""images/gray_23.png"" style= ""width:200px""alt=""img"">
                            </div>
                        </div>","-122","","0","images/gray_23.png","","","","positive"
"","","","","","html-slider-response","184","512604","0.0-180.0","k8qzodbtzk","NaN","<div style=""width:500px;"">
                            <p style=""font-size:50px; font-weight:bold;""
                            >positive</p>
                            <div style=""width:240px; margin: auto;"">
                                <img src=""images/gray_07.png"" style= ""width:200px""alt=""img"">
                            </div>
                        </div>","-106","","0","images/gray_07.png","","","","positive"
"","","","","","html-slider-response","185","514552","0.0-181.0","k8qzodbtzk","NaN","<div style=""width:500px;"">
                            <p style=""font-size:50px; font-weight:bold;""
                            >positive</p>
                            <div style=""width:240px; margin: auto;"">
                                <img src=""images/gray_15.png"" style= ""width:200px""alt=""img"">
                            </div>
                        </div>","96","","0","images/gray_15.png","","","","positive"
"","","","","","html-slider-response","186","516765","0.0-182.0","k8qzodbtzk","NaN","<div style=""width:500px;"">
                            <p style=""font-size:50px; font-weight:bold;""
                            >positive</p>
                            <div style=""width:240px; margin: auto;"">
                                <img src=""images/gray_12.png"" style= ""width:200px""alt=""img"">
                            </div>
                        </div>","104","","0","images/gray_12.png","","","","positive"
"","","","","","html-slider-response","187","519060","0.0-183.0","k8qzodbtzk","NaN","<div style=""width:500px;"">
                            <p style=""font-size:50px; font-weight:bold;""
                            >positive</p>
                            <div style=""width:240px; margin: auto;"">
                                <img src=""images/gray_31.png"" style= ""width:200px""alt=""img"">
                            </div>
                        </div>","82","","0","images/gray_31.png","","","","positive"
"","","","","","html-slider-response","188","520986","0.0-184.0","k8qzodbtzk","NaN","<div style=""width:500px;"">
                            <p style=""font-size:50px; font-weight:bold;""
                            >positive</p>
                            <div style=""width:240px; margin: auto;"">
                                <img src=""images/gray_22.png"" style= ""width:200px""alt=""img"">
                            </div>
                        </div>","-104","","0","images/gray_22.png","","","","positive"
"","","","","","html-slider-response","189","522981","0.0-185.0","k8qzodbtzk","NaN","<div style=""width:500px;"">
                            <p style=""font-size:50px; font-weight:bold;""
                            >positive</p>
                            <div style=""width:240px; margin: auto;"">
                                <img src=""images/gray_17.png"" style= ""width:200px""alt=""img"">
                            </div>
                        </div>","115","","0","images/gray_17.png","","","","positive"
"","","","","","html-slider-response","190","524925","0.0-186.0","k8qzodbtzk","NaN","<div style=""width:500px;"">
                            <p style=""font-size:50px; font-weight:bold;""
                            >positive</p>
                            <div style=""width:240px; margin: auto;"">
                                <img src=""images/gray_39.png"" style= ""width:200px""alt=""img"">
                            </div>
                        </div>","112","","0","images/gray_39.png","","","","positive"
"","","","","","html-slider-response","191","526570","0.0-187.0","k8qzodbtzk","NaN","<div style=""width:500px;"">
                            <p style=""font-size:50px; font-weight:bold;""
                            >positive</p>
                            <div style=""width:240px; margin: auto;"">
                                <img src=""images/gray_40.png"" style= ""width:200px""alt=""img"">
                            </div>
                        </div>","-106","","0","images/gray_40.png","","","","positive"
"","","","","","html-slider-response","192","528323","0.0-188.0","k8qzodbtzk","NaN","<div style=""width:500px;"">
                            <p style=""font-size:50px; font-weight:bold;""
                            >positive</p>
                            <div style=""width:240px; margin: auto;"">
                                <img src=""images/gray_16.png"" style= ""width:200px""alt=""img"">
                            </div>
                        </div>","-110","","0","images/gray_16.png","","","","positive"
"","","","","","html-slider-response","193","530359","0.0-189.0","k8qzodbtzk","NaN","<div style=""width:500px;"">
                            <p style=""font-size:50px; font-weight:bold;""
                            >positive</p>
                            <div style=""width:240px; margin: auto;"">
                                <img src=""images/gray_33.png"" style= ""width:200px""alt=""img"">
                            </div>
                        </div>","101","","0","images/gray_33.png","","","","positive"
"","","","","","html-slider-response","194","531915","0.0-190.0","k8qzodbtzk","NaN","<div style=""width:500px;"">
                            <p style=""font-size:50px; font-weight:bold;""
                            >positive</p>
                            <div style=""width:240px; margin: auto;"">
                                <img src=""images/gray_06.png"" style= ""width:200px""alt=""img"">
                            </div>
                        </div>","14","","0","images/gray_06.png","","","","positive"
"","","","","","html-slider-response","195","534190","0.0-191.0","k8qzodbtzk","NaN","<div style=""width:500px;"">
                            <p style=""font-size:50px; font-weight:bold;""
                            >positive</p>
                            <div style=""width:240px; margin: auto;"">
                                <img src=""images/gray_43.png"" style= ""width:200px""alt=""img"">
                            </div>
                        </div>","108","","0","images/gray_43.png","","","","positive"
"","","","","","html-slider-response","196","536116","0.0-192.0","k8qzodbtzk","NaN","<div style=""width:500px;"">
                            <p style=""font-size:50px; font-weight:bold;""
                            >positive</p>
                            <div style=""width:240px; margin: auto;"">
                                <img src=""images/gray_28.png"" style= ""width:200px""alt=""img"">
                            </div>
                        </div>","-93","","0","images/gray_28.png","","","","positive"
"","","","","","html-slider-response","197","542280","0.0-193.0","k8qzodbtzk","NaN","<div style=""width:500px;"">
                            <p style=""font-size:50px; font-weight:bold;""
                            >positive</p>
                            <div style=""width:240px; margin: auto;"">
                                <img src=""images/gray_35.png"" style= ""width:200px""alt=""img"">
                            </div>
                        </div>","115","","0","images/gray_35.png","","","","positive"
