"success","timeout","failed_images","failed_audio","failed_video","trial_type","trial_index","time_elapsed","internal_node_id","subject_id","rt","stimulus","response","question_order","slider_start","image_path","practiceTrial","practiceTrialNum","correct","concept"
"true","false","[]","[]","[]","preload","0","757","0.0-0.0","m5vvmkwxzr","","","","","","","","","",""
"","","","","","html-button-response","1","7272","0.0-1.0","m5vvmkwxzr","6513","Welcome to our experiment!<p>At the bottom of this screen, you will see a button that says ""Begin Experiment"".<br>Please only click that button when you are ready to complete the 25 minute experiment in one sitting.</p><p> Once you click that button, it will not be possible to restart the experiment.","0","","","","","","",""
"true","","","","","fullscreen","2","9717","0.0-2.0","m5vvmkwxzr","1435","","","","","","","","",""
"","","","","","survey-multi-select","3","20004","0.0-3.0","m5vvmkwxzr","10283","","{""Consent"":[""<strong>I consent</strong>""]}","[0]","","","","","",""
"","","","","","html-button-response","4","22172","0.0-4.0","m5vvmkwxzr","2164","Welcome! <p> This experiment involves two parts: demographic information, followed by the experimental task.<p> It will take about 25 minutes to complete both parts.","0","","","","","","",""
"","","","","","survey-text","5","44596","0.0-5.0","m5vvmkwxzr","22407","","{""Age"":""18"",""Gender"":""Male"",""Race/ethnicity"":""White"",""Languages"":""English""}","","","","","","",""
"","","","","","html-slider-response","6","61987","0.0-6.0","m5vvmkwxzr","17388","
            <div style='text-align:left; font-size:20px; line-height:25px; width: 1200px;'>
                During this experiment you will be asked to rate how much you associate maps with    different concepts.<br> Below, you can see some examples of the maps you will be asked to rate. Next to the maps
    is the list of concepts.<br>You will be asked    to rate how much you associate each map with each concept on a scale from 'not at all' to 'very much' like the
    one below. <br><br>
    Now, please look at the list of concepts and maps. For each concept, think about the map you associate 'very
    much' with the concept.<br>     When you see that map during the experiment, please rate it near the 'very much' endpoint of the
    scale.<br>Now, please think about which map you associate 'not at all'     with each concept. When you see that map during the experiment, please rate it near the 'not at all' endpoint
    of the scale.<br>
    Please use the full range of the scale. That is, if a map is somewhat associated with the concept, you would
    click partway between the middle point and right side of the scale.    You will be asked to rate each map for a given concept before moving on to the next concept.<br><br>Press the
    'Continue' button for instructions on how to use the slider.    <br><br>
</div>

<div style=""width: 500px; margin: 0 auto;"">
    <div style=""text-align: left; width: 200px; float: left;"">
        <p style=""font-size:25px; line-height:18px;"">calm</p>
        <p style=""font-size:25px; line-height:18px;"">exciting</p>
        <p style=""font-size:25px;line-height:18px;"">positive</p>
        <p style=""font-size:25px;line-height:18px;"">negative</p>
        <p style=""font-size:25px;line-height:18px;"">serious</p>
        <p style=""font-size:25px;line-height:18px;"">playful</p>
        <p style=""font-size:25px;line-height:18px;"">trustworthy</p>
        <p style=""font-size:25px;line-height:18px;"">disturbing</p>
    </div>
    <div style=""width: 200px; float: right; padding-top:15px; padding-right:40px"">
        <br>
        <br>
        <img src=""maps_anchoring.png"" alt=""img"" style=""max-width:500px"">
    </div>
    <div style=""clear: both;""></div>
</div>
            ","null","","0","maps_anchoring.png","true","","",""
"","","","","","html-button-response","7","64381","0.0-7.0","m5vvmkwxzr","2392","<div style=""width:800px;""><p style=""text-align:left"">To move the slider, click and drag your cursor to the location of the scale where you would like to make your rating and then let go. When you let go of the slider, your response will be recorded and the next trial will begin. <br>
            We are interested in your initial impressions of each map for the given concept, so please go with your first intuition. <br>
            Before you begin the experiment, there will be four training trials for you to practice using the scale. <br>
             When you are ready to start the training trials, please click ""Continue"".</p><br></div>","0","","","","","","",""
"","","","","","html-slider-response","8","67840","0.0-8.0-0.0","m5vvmkwxzr","NaN","<div style=""width:500px;"">
                            <p style=""font-size:25px;"">Please move the slider all the way to the <br> right endpoint of the scale</p>

                            </div>
                        </div>","200","","0","","true","0","true",""
"","","","","","html-button-response","9","69429","0.0-8.0-1.0","m5vvmkwxzr","1078","<p align='center'><b>Good job!</b> Click on 'Continue' to proceed.</p>","0","","","","","","",""
"","","","","","html-slider-response","10","71386","0.0-9.0-0.0","m5vvmkwxzr","NaN","<div style=""width:500px;"">
                            <p style=""font-size:25px;"">Please move the slider all the way to the <br> left endpoint of the scale</p>

                            </div>
                        </div>","-200","","0","","true","1","true",""
"","","","","","html-button-response","11","76921","0.0-9.0-1.0","m5vvmkwxzr","5026","<p align='center'><b>Good job!</b> Click on 'Continue' to proceed.</p>","0","","","","","","",""
"","","","","","html-slider-response","12","82075","0.0-10.0-0.0","m5vvmkwxzr","NaN","<div style=""width:500px;"">
                            <p style=""font-size:25px;"">Please move the slider halfway between the center and right endpoint of the scale</p>

                            </div>
                        </div>","96","","0","","true","2","true",""
"","","","","","html-button-response","13","83458","0.0-10.0-1.0","m5vvmkwxzr","880","<p align='center'><b>Good job!</b> Click on 'Continue' to proceed.</p>","0","","","","","","",""
"","","","","","html-slider-response","14","85591","0.0-11.0-0.0","m5vvmkwxzr","NaN","<div style=""width:500px;"">
                            <p style=""font-size:25px;"">Please move the slider halfway between the center and left endpoint of the scale</p>

                            </div>
                        </div>","-109","","0","","true","3","true",""
"","","","","","html-button-response","15","86780","0.0-11.0-1.0","m5vvmkwxzr","673","<p align='center'><b>Good job!</b> Click on 'Continue' to proceed.</p>","0","","","","","","",""
"","","","","","html-button-response","16","88146","0.0-12.0","m5vvmkwxzr","1365","<p>Great job! You've completed the practice trials. Now you will begin the main task.</p>","0","","","","","","",""
"","","","","","html-button-response","17","92662","0.0-13.0","m5vvmkwxzr","4514","<p>In this block of trials, you will be asked to rate how much you associate each map with:</p > <p style = 'font-size:150%; font-weight: bold'>negative</p><br></br>","0","","","","","","",""
"","","","","","html-slider-response","18","98500","0.0-14.0","m5vvmkwxzr","NaN","<div style=""width:500px;"">
                            <p style=""font-size:50px; font-weight:bold;""
                            >negative</p>
                            <div style=""width:240px; margin: auto;"">
                                <img src=""images/gray_02.png"" style= ""width:200px""alt=""img"">
                            </div>
                        </div>","-111","","0","images/gray_02.png","","","","negative"
"","","","","","html-slider-response","19","101893","0.0-15.0","m5vvmkwxzr","NaN","<div style=""width:500px;"">
                            <p style=""font-size:50px; font-weight:bold;""
                            >negative</p>
                            <div style=""width:240px; margin: auto;"">
                                <img src=""images/gray_16.png"" style= ""width:200px""alt=""img"">
                            </div>
                        </div>","-102","","0","images/gray_16.png","","","","negative"
"","","","","","html-slider-response","20","104411","0.0-16.0","m5vvmkwxzr","NaN","<div style=""width:500px;"">
                            <p style=""font-size:50px; font-weight:bold;""
                            >negative</p>
                            <div style=""width:240px; margin: auto;"">
                                <img src=""images/gray_07.png"" style= ""width:200px""alt=""img"">
                            </div>
                        </div>","113","","0","images/gray_07.png","","","","negative"
"","","","","","html-slider-response","21","107099","0.0-17.0","m5vvmkwxzr","NaN","<div style=""width:500px;"">
                            <p style=""font-size:50px; font-weight:bold;""
                            >negative</p>
                            <div style=""width:240px; margin: auto;"">
                                <img src=""images/gray_27.png"" style= ""width:200px""alt=""img"">
                            </div>
                        </div>","103","","0","images/gray_27.png","","","","negative"
"","","","","","html-slider-response","22","109612","0.0-18.0","m5vvmkwxzr","NaN","<div style=""width:500px;"">
                            <p style=""font-size:50px; font-weight:bold;""
                            >negative</p>
                            <div style=""width:240px; margin: auto;"">
                                <img src=""images/gray_30.png"" style= ""width:200px""alt=""img"">
                            </div>
                        </div>","-115","","0","images/gray_30.png","","","","negative"
"","","","","","html-slider-response","23","111777","0.0-19.0","m5vvmkwxzr","NaN","<div style=""width:500px;"">
                            <p style=""font-size:50px; font-weight:bold;""
                            >negative</p>
                            <div style=""width:240px; margin: auto;"">
                                <img src=""images/gray_28.png"" style= ""width:200px""alt=""img"">
                            </div>
                        </div>","122","","0","images/gray_28.png","","","","negative"
"","","","","","html-slider-response","24","113576","0.0-20.0","m5vvmkwxzr","NaN","<div style=""width:500px;"">
                            <p style=""font-size:50px; font-weight:bold;""
                            >negative</p>
                            <div style=""width:240px; margin: auto;"">
                                <img src=""images/gray_10.png"" style= ""width:200px""alt=""img"">
                            </div>
                        </div>","-126","","0","images/gray_10.png","","","","negative"
"","","","","","html-slider-response","25","115098","0.0-21.0","m5vvmkwxzr","NaN","<div style=""width:500px;"">
                            <p style=""font-size:50px; font-weight:bold;""
                            >negative</p>
                            <div style=""width:240px; margin: auto;"">
                                <img src=""images/gray_04.png"" style= ""width:200px""alt=""img"">
                            </div>
                        </div>","140","","0","images/gray_04.png","","","","negative"
"","","","","","html-slider-response","26","119116","0.0-22.0","m5vvmkwxzr","NaN","<div style=""width:500px;"">
                            <p style=""font-size:50px; font-weight:bold;""
                            >negative</p>
                            <div style=""width:240px; margin: auto;"">
                                <img src=""images/gray_44.png"" style= ""width:200px""alt=""img"">
                            </div>
                        </div>","86","","0","images/gray_44.png","","","","negative"
"","","","","","html-slider-response","27","121015","0.0-23.0","m5vvmkwxzr","NaN","<div style=""width:500px;"">
                            <p style=""font-size:50px; font-weight:bold;""
                            >negative</p>
                            <div style=""width:240px; margin: auto;"">
                                <img src=""images/gray_42.png"" style= ""width:200px""alt=""img"">
                            </div>
                        </div>","-1","","0","images/gray_42.png","","","","negative"
"","","","","","html-slider-response","28","122522","0.0-24.0","m5vvmkwxzr","NaN","<div style=""width:500px;"">
                            <p style=""font-size:50px; font-weight:bold;""
                            >negative</p>
                            <div style=""width:240px; margin: auto;"">
                                <img src=""images/gray_38.png"" style= ""width:200px""alt=""img"">
                            </div>
                        </div>","-72","","0","images/gray_38.png","","","","negative"
"","","","","","html-slider-response","29","124231","0.0-25.0","m5vvmkwxzr","NaN","<div style=""width:500px;"">
                            <p style=""font-size:50px; font-weight:bold;""
                            >negative</p>
                            <div style=""width:240px; margin: auto;"">
                                <img src=""images/gray_09.png"" style= ""width:200px""alt=""img"">
                            </div>
                        </div>","96","","0","images/gray_09.png","","","","negative"
"","","","","","html-slider-response","30","125697","0.0-26.0","m5vvmkwxzr","NaN","<div style=""width:500px;"">
                            <p style=""font-size:50px; font-weight:bold;""
                            >negative</p>
                            <div style=""width:240px; margin: auto;"">
                                <img src=""images/gray_31.png"" style= ""width:200px""alt=""img"">
                            </div>
                        </div>","-130","","0","images/gray_31.png","","","","negative"
"","","","","","html-slider-response","31","127399","0.0-27.0","m5vvmkwxzr","NaN","<div style=""width:500px;"">
                            <p style=""font-size:50px; font-weight:bold;""
                            >negative</p>
                            <div style=""width:240px; margin: auto;"">
                                <img src=""images/gray_22.png"" style= ""width:200px""alt=""img"">
                            </div>
                        </div>","109","","0","images/gray_22.png","","","","negative"
"","","","","","html-slider-response","32","129555","0.0-28.0","m5vvmkwxzr","NaN","<div style=""width:500px;"">
                            <p style=""font-size:50px; font-weight:bold;""
                            >negative</p>
                            <div style=""width:240px; margin: auto;"">
                                <img src=""images/gray_43.png"" style= ""width:200px""alt=""img"">
                            </div>
                        </div>","118","","0","images/gray_43.png","","","","negative"
"","","","","","html-slider-response","33","131208","0.0-29.0","m5vvmkwxzr","NaN","<div style=""width:500px;"">
                            <p style=""font-size:50px; font-weight:bold;""
                            >negative</p>
                            <div style=""width:240px; margin: auto;"">
                                <img src=""images/gray_39.png"" style= ""width:200px""alt=""img"">
                            </div>
                        </div>","-118","","0","images/gray_39.png","","","","negative"
"","","","","","html-slider-response","34","133057","0.0-30.0","m5vvmkwxzr","NaN","<div style=""width:500px;"">
                            <p style=""font-size:50px; font-weight:bold;""
                            >negative</p>
                            <div style=""width:240px; margin: auto;"">
                                <img src=""images/gray_34.png"" style= ""width:200px""alt=""img"">
                            </div>
                        </div>","104","","0","images/gray_34.png","","","","negative"
"","","","","","html-slider-response","35","134830","0.0-31.0","m5vvmkwxzr","NaN","<div style=""width:500px;"">
                            <p style=""font-size:50px; font-weight:bold;""
                            >negative</p>
                            <div style=""width:240px; margin: auto;"">
                                <img src=""images/gray_17.png"" style= ""width:200px""alt=""img"">
                            </div>
                        </div>","-141","","0","images/gray_17.png","","","","negative"
"","","","","","html-slider-response","36","136678","0.0-32.0","m5vvmkwxzr","NaN","<div style=""width:500px;"">
                            <p style=""font-size:50px; font-weight:bold;""
                            >negative</p>
                            <div style=""width:240px; margin: auto;"">
                                <img src=""images/gray_01.png"" style= ""width:200px""alt=""img"">
                            </div>
                        </div>","116","","0","images/gray_01.png","","","","negative"
"","","","","","html-slider-response","37","138464","0.0-33.0","m5vvmkwxzr","NaN","<div style=""width:500px;"">
                            <p style=""font-size:50px; font-weight:bold;""
                            >negative</p>
                            <div style=""width:240px; margin: auto;"">
                                <img src=""images/gray_32.png"" style= ""width:200px""alt=""img"">
                            </div>
                        </div>","-131","","0","images/gray_32.png","","","","negative"
"","","","","","html-slider-response","38","140934","0.0-34.0","m5vvmkwxzr","NaN","<div style=""width:500px;"">
                            <p style=""font-size:50px; font-weight:bold;""
                            >negative</p>
                            <div style=""width:240px; margin: auto;"">
                                <img src=""images/gray_15.png"" style= ""width:200px""alt=""img"">
                            </div>
                        </div>","98","","0","images/gray_15.png","","","","negative"
"","","","","","html-slider-response","39","142785","0.0-35.0","m5vvmkwxzr","NaN","<div style=""width:500px;"">
                            <p style=""font-size:50px; font-weight:bold;""
                            >negative</p>
                            <div style=""width:240px; margin: auto;"">
                                <img src=""images/gray_37.png"" style= ""width:200px""alt=""img"">
                            </div>
                        </div>","92","","0","images/gray_37.png","","","","negative"
"","","","","","html-slider-response","40","144710","0.0-36.0","m5vvmkwxzr","NaN","<div style=""width:500px;"">
                            <p style=""font-size:50px; font-weight:bold;""
                            >negative</p>
                            <div style=""width:240px; margin: auto;"">
                                <img src=""images/gray_33.png"" style= ""width:200px""alt=""img"">
                            </div>
                        </div>","6","","0","images/gray_33.png","","","","negative"
"","","","","","html-slider-response","41","146272","0.0-37.0","m5vvmkwxzr","NaN","<div style=""width:500px;"">
                            <p style=""font-size:50px; font-weight:bold;""
                            >negative</p>
                            <div style=""width:240px; margin: auto;"">
                                <img src=""images/gray_35.png"" style= ""width:200px""alt=""img"">
                            </div>
                        </div>","-13","","0","images/gray_35.png","","","","negative"
"","","","","","html-slider-response","42","147695","0.0-38.0","m5vvmkwxzr","NaN","<div style=""width:500px;"">
                            <p style=""font-size:50px; font-weight:bold;""
                            >negative</p>
                            <div style=""width:240px; margin: auto;"">
                                <img src=""images/gray_26.png"" style= ""width:200px""alt=""img"">
                            </div>
                        </div>","40","","0","images/gray_26.png","","","","negative"
"","","","","","html-slider-response","43","149039","0.0-39.0","m5vvmkwxzr","NaN","<div style=""width:500px;"">
                            <p style=""font-size:50px; font-weight:bold;""
                            >negative</p>
                            <div style=""width:240px; margin: auto;"">
                                <img src=""images/gray_25.png"" style= ""width:200px""alt=""img"">
                            </div>
                        </div>","-59","","0","images/gray_25.png","","","","negative"
"","","","","","html-slider-response","44","150584","0.0-40.0","m5vvmkwxzr","NaN","<div style=""width:500px;"">
                            <p style=""font-size:50px; font-weight:bold;""
                            >negative</p>
                            <div style=""width:240px; margin: auto;"">
                                <img src=""images/gray_40.png"" style= ""width:200px""alt=""img"">
                            </div>
                        </div>","70","","0","images/gray_40.png","","","","negative"
"","","","","","html-slider-response","45","152071","0.0-41.0","m5vvmkwxzr","NaN","<div style=""width:500px;"">
                            <p style=""font-size:50px; font-weight:bold;""
                            >negative</p>
                            <div style=""width:240px; margin: auto;"">
                                <img src=""images/gray_05.png"" style= ""width:200px""alt=""img"">
                            </div>
                        </div>","-100","","0","images/gray_05.png","","","","negative"
"","","","","","html-slider-response","46","153772","0.0-42.0","m5vvmkwxzr","NaN","<div style=""width:500px;"">
                            <p style=""font-size:50px; font-weight:bold;""
                            >negative</p>
                            <div style=""width:240px; margin: auto;"">
                                <img src=""images/gray_20.png"" style= ""width:200px""alt=""img"">
                            </div>
                        </div>","70","","0","images/gray_20.png","","","","negative"
"","","","","","html-slider-response","47","155321","0.0-43.0","m5vvmkwxzr","NaN","<div style=""width:500px;"">
                            <p style=""font-size:50px; font-weight:bold;""
                            >negative</p>
                            <div style=""width:240px; margin: auto;"">
                                <img src=""images/gray_06.png"" style= ""width:200px""alt=""img"">
                            </div>
                        </div>","-111","","0","images/gray_06.png","","","","negative"
"","","","","","html-slider-response","48","157721","0.0-44.0","m5vvmkwxzr","NaN","<div style=""width:500px;"">
                            <p style=""font-size:50px; font-weight:bold;""
                            >negative</p>
                            <div style=""width:240px; margin: auto;"">
                                <img src=""images/gray_13.png"" style= ""width:200px""alt=""img"">
                            </div>
                        </div>","112","","0","images/gray_13.png","","","","negative"
"","","","","","html-slider-response","49","159689","0.0-45.0","m5vvmkwxzr","NaN","<div style=""width:500px;"">
                            <p style=""font-size:50px; font-weight:bold;""
                            >negative</p>
                            <div style=""width:240px; margin: auto;"">
                                <img src=""images/gray_36.png"" style= ""width:200px""alt=""img"">
                            </div>
                        </div>","-90","","0","images/gray_36.png","","","","negative"
"","","","","","html-slider-response","50","162718","0.0-46.0","m5vvmkwxzr","NaN","<div style=""width:500px;"">
                            <p style=""font-size:50px; font-weight:bold;""
                            >negative</p>
                            <div style=""width:240px; margin: auto;"">
                                <img src=""images/gray_21.png"" style= ""width:200px""alt=""img"">
                            </div>
                        </div>","109","","0","images/gray_21.png","","","","negative"
"","","","","","html-slider-response","51","164559","0.0-47.0","m5vvmkwxzr","NaN","<div style=""width:500px;"">
                            <p style=""font-size:50px; font-weight:bold;""
                            >negative</p>
                            <div style=""width:240px; margin: auto;"">
                                <img src=""images/gray_12.png"" style= ""width:200px""alt=""img"">
                            </div>
                        </div>","-166","","0","images/gray_12.png","","","","negative"
"","","","","","html-slider-response","52","166819","0.0-48.0","m5vvmkwxzr","NaN","<div style=""width:500px;"">
                            <p style=""font-size:50px; font-weight:bold;""
                            >negative</p>
                            <div style=""width:240px; margin: auto;"">
                                <img src=""images/gray_03.png"" style= ""width:200px""alt=""img"">
                            </div>
                        </div>","175","","0","images/gray_03.png","","","","negative"
"","","","","","html-slider-response","53","168835","0.0-49.0","m5vvmkwxzr","NaN","<div style=""width:500px;"">
                            <p style=""font-size:50px; font-weight:bold;""
                            >negative</p>
                            <div style=""width:240px; margin: auto;"">
                                <img src=""images/gray_24.png"" style= ""width:200px""alt=""img"">
                            </div>
                        </div>","-80","","0","images/gray_24.png","","","","negative"
"","","","","","html-slider-response","54","170936","0.0-50.0","m5vvmkwxzr","NaN","<div style=""width:500px;"">
                            <p style=""font-size:50px; font-weight:bold;""
                            >negative</p>
                            <div style=""width:240px; margin: auto;"">
                                <img src=""images/gray_41.png"" style= ""width:200px""alt=""img"">
                            </div>
                        </div>","53","","0","images/gray_41.png","","","","negative"
"","","","","","html-slider-response","55","172513","0.0-51.0","m5vvmkwxzr","NaN","<div style=""width:500px;"">
                            <p style=""font-size:50px; font-weight:bold;""
                            >negative</p>
                            <div style=""width:240px; margin: auto;"">
                                <img src=""images/gray_18.png"" style= ""width:200px""alt=""img"">
                            </div>
                        </div>","49","","0","images/gray_18.png","","","","negative"
"","","","","","html-slider-response","56","174082","0.0-52.0","m5vvmkwxzr","NaN","<div style=""width:500px;"">
                            <p style=""font-size:50px; font-weight:bold;""
                            >negative</p>
                            <div style=""width:240px; margin: auto;"">
                                <img src=""images/gray_29.png"" style= ""width:200px""alt=""img"">
                            </div>
                        </div>","-113","","0","images/gray_29.png","","","","negative"
"","","","","","html-slider-response","57","175714","0.0-53.0","m5vvmkwxzr","NaN","<div style=""width:500px;"">
                            <p style=""font-size:50px; font-weight:bold;""
                            >negative</p>
                            <div style=""width:240px; margin: auto;"">
                                <img src=""images/gray_23.png"" style= ""width:200px""alt=""img"">
                            </div>
                        </div>","39","","0","images/gray_23.png","","","","negative"
"","","","","","html-slider-response","58","177551","0.0-54.0","m5vvmkwxzr","NaN","<div style=""width:500px;"">
                            <p style=""font-size:50px; font-weight:bold;""
                            >negative</p>
                            <div style=""width:240px; margin: auto;"">
                                <img src=""images/gray_19.png"" style= ""width:200px""alt=""img"">
                            </div>
                        </div>","200","","0","images/gray_19.png","","","","negative"
"","","","","","html-slider-response","59","179408","0.0-55.0","m5vvmkwxzr","NaN","<div style=""width:500px;"">
                            <p style=""font-size:50px; font-weight:bold;""
                            >negative</p>
                            <div style=""width:240px; margin: auto;"">
                                <img src=""images/gray_14.png"" style= ""width:200px""alt=""img"">
                            </div>
                        </div>","121","","0","images/gray_14.png","","","","negative"
"","","","","","html-slider-response","60","182234","0.0-56.0","m5vvmkwxzr","NaN","<div style=""width:500px;"">
                            <p style=""font-size:50px; font-weight:bold;""
                            >negative</p>
                            <div style=""width:240px; margin: auto;"">
                                <img src=""images/gray_08.png"" style= ""width:200px""alt=""img"">
                            </div>
                        </div>","-74","","0","images/gray_08.png","","","","negative"
"","","","","","html-slider-response","61","184228","0.0-57.0","m5vvmkwxzr","NaN","<div style=""width:500px;"">
                            <p style=""font-size:50px; font-weight:bold;""
                            >negative</p>
                            <div style=""width:240px; margin: auto;"">
                                <img src=""images/gray_11.png"" style= ""width:200px""alt=""img"">
                            </div>
                        </div>","128","","0","images/gray_11.png","","","","negative"
"","","","","","html-button-response","62","187657","0.0-58.0","m5vvmkwxzr","2924","<p>Great Job! You've finished block 1.<br></br> You have 7 block(s) left to go.<br></br></p>","0","","","","","","",""
"","","","","","html-button-response","63","189903","0.0-59.0","m5vvmkwxzr","2245","<p>In this block of trials, you will be asked to rate how much you associate each map with:</p > <p style = 'font-size:150%; font-weight: bold'>serious</p><br></br>","0","","","","","","",""
"","","","","","html-slider-response","64","191658","0.0-60.0","m5vvmkwxzr","NaN","<div style=""width:500px;"">
                            <p style=""font-size:50px; font-weight:bold;""
                            >serious</p>
                            <div style=""width:240px; margin: auto;"">
                                <img src=""images/gray_09.png"" style= ""width:200px""alt=""img"">
                            </div>
                        </div>","30","","0","images/gray_09.png","","","","serious"
"","","","","","html-slider-response","65","192944","0.0-61.0","m5vvmkwxzr","NaN","<div style=""width:500px;"">
                            <p style=""font-size:50px; font-weight:bold;""
                            >serious</p>
                            <div style=""width:240px; margin: auto;"">
                                <img src=""images/gray_40.png"" style= ""width:200px""alt=""img"">
                            </div>
                        </div>","-58","","0","images/gray_40.png","","","","serious"
"","","","","","html-slider-response","66","194368","0.0-62.0","m5vvmkwxzr","NaN","<div style=""width:500px;"">
                            <p style=""font-size:50px; font-weight:bold;""
                            >serious</p>
                            <div style=""width:240px; margin: auto;"">
                                <img src=""images/gray_33.png"" style= ""width:200px""alt=""img"">
                            </div>
                        </div>","-130","","0","images/gray_33.png","","","","serious"
"","","","","","html-slider-response","67","195665","0.0-63.0","m5vvmkwxzr","NaN","<div style=""width:500px;"">
                            <p style=""font-size:50px; font-weight:bold;""
                            >serious</p>
                            <div style=""width:240px; margin: auto;"">
                                <img src=""images/gray_34.png"" style= ""width:200px""alt=""img"">
                            </div>
                        </div>","74","","0","images/gray_34.png","","","","serious"
"","","","","","html-slider-response","68","196892","0.0-64.0","m5vvmkwxzr","NaN","<div style=""width:500px;"">
                            <p style=""font-size:50px; font-weight:bold;""
                            >serious</p>
                            <div style=""width:240px; margin: auto;"">
                                <img src=""images/gray_26.png"" style= ""width:200px""alt=""img"">
                            </div>
                        </div>","-118","","0","images/gray_26.png","","","","serious"
"","","","","","html-slider-response","69","198861","0.0-65.0","m5vvmkwxzr","NaN","<div style=""width:500px;"">
                            <p style=""font-size:50px; font-weight:bold;""
                            >serious</p>
                            <div style=""width:240px; margin: auto;"">
                                <img src=""images/gray_03.png"" style= ""width:200px""alt=""img"">
                            </div>
                        </div>","22","","0","images/gray_03.png","","","","serious"
"","","","","","html-slider-response","70","200647","0.0-66.0","m5vvmkwxzr","NaN","<div style=""width:500px;"">
                            <p style=""font-size:50px; font-weight:bold;""
                            >serious</p>
                            <div style=""width:240px; margin: auto;"">
                                <img src=""images/gray_16.png"" style= ""width:200px""alt=""img"">
                            </div>
                        </div>","-98","","0","images/gray_16.png","","","","serious"
"","","","","","html-slider-response","71","202328","0.0-67.0","m5vvmkwxzr","NaN","<div style=""width:500px;"">
                            <p style=""font-size:50px; font-weight:bold;""
                            >serious</p>
                            <div style=""width:240px; margin: auto;"">
                                <img src=""images/gray_29.png"" style= ""width:200px""alt=""img"">
                            </div>
                        </div>","62","","0","images/gray_29.png","","","","serious"
"","","","","","html-slider-response","72","204010","0.0-68.0","m5vvmkwxzr","NaN","<div style=""width:500px;"">
                            <p style=""font-size:50px; font-weight:bold;""
                            >serious</p>
                            <div style=""width:240px; margin: auto;"">
                                <img src=""images/gray_27.png"" style= ""width:200px""alt=""img"">
                            </div>
                        </div>","-138","","0","images/gray_27.png","","","","serious"
"","","","","","html-slider-response","73","205531","0.0-69.0","m5vvmkwxzr","NaN","<div style=""width:500px;"">
                            <p style=""font-size:50px; font-weight:bold;""
                            >serious</p>
                            <div style=""width:240px; margin: auto;"">
                                <img src=""images/gray_11.png"" style= ""width:200px""alt=""img"">
                            </div>
                        </div>","200","","0","images/gray_11.png","","","","serious"
"","","","","","html-slider-response","74","207163","0.0-70.0","m5vvmkwxzr","NaN","<div style=""width:500px;"">
                            <p style=""font-size:50px; font-weight:bold;""
                            >serious</p>
                            <div style=""width:240px; margin: auto;"">
                                <img src=""images/gray_31.png"" style= ""width:200px""alt=""img"">
                            </div>
                        </div>","-185","","0","images/gray_31.png","","","","serious"
"","","","","","html-slider-response","75","208635","0.0-71.0","m5vvmkwxzr","NaN","<div style=""width:500px;"">
                            <p style=""font-size:50px; font-weight:bold;""
                            >serious</p>
                            <div style=""width:240px; margin: auto;"">
                                <img src=""images/gray_25.png"" style= ""width:200px""alt=""img"">
                            </div>
                        </div>","169","","0","images/gray_25.png","","","","serious"
"","","","","","html-slider-response","76","210100","0.0-72.0","m5vvmkwxzr","NaN","<div style=""width:500px;"">
                            <p style=""font-size:50px; font-weight:bold;""
                            >serious</p>
                            <div style=""width:240px; margin: auto;"">
                                <img src=""images/gray_13.png"" style= ""width:200px""alt=""img"">
                            </div>
                        </div>","-64","","0","images/gray_13.png","","","","serious"
"","","","","","html-slider-response","77","212046","0.0-73.0","m5vvmkwxzr","NaN","<div style=""width:500px;"">
                            <p style=""font-size:50px; font-weight:bold;""
                            >serious</p>
                            <div style=""width:240px; margin: auto;"">
                                <img src=""images/gray_14.png"" style= ""width:200px""alt=""img"">
                            </div>
                        </div>","135","","0","images/gray_14.png","","","","serious"
"","","","","","html-slider-response","78","213834","0.0-74.0","m5vvmkwxzr","NaN","<div style=""width:500px;"">
                            <p style=""font-size:50px; font-weight:bold;""
                            >serious</p>
                            <div style=""width:240px; margin: auto;"">
                                <img src=""images/gray_39.png"" style= ""width:200px""alt=""img"">
                            </div>
                        </div>","78","","0","images/gray_39.png","","","","serious"
"","","","","","html-slider-response","79","215174","0.0-75.0","m5vvmkwxzr","NaN","<div style=""width:500px;"">
                            <p style=""font-size:50px; font-weight:bold;""
                            >serious</p>
                            <div style=""width:240px; margin: auto;"">
                                <img src=""images/gray_43.png"" style= ""width:200px""alt=""img"">
                            </div>
                        </div>","-61","","0","images/gray_43.png","","","","serious"
"","","","","","html-slider-response","80","216656","0.0-76.0","m5vvmkwxzr","NaN","<div style=""width:500px;"">
                            <p style=""font-size:50px; font-weight:bold;""
                            >serious</p>
                            <div style=""width:240px; margin: auto;"">
                                <img src=""images/gray_44.png"" style= ""width:200px""alt=""img"">
                            </div>
                        </div>","128","","0","images/gray_44.png","","","","serious"
"","","","","","html-slider-response","81","218297","0.0-77.0","m5vvmkwxzr","NaN","<div style=""width:500px;"">
                            <p style=""font-size:50px; font-weight:bold;""
                            >serious</p>
                            <div style=""width:240px; margin: auto;"">
                                <img src=""images/gray_42.png"" style= ""width:200px""alt=""img"">
                            </div>
                        </div>","-112","","0","images/gray_42.png","","","","serious"
"","","","","","html-slider-response","82","219751","0.0-78.0","m5vvmkwxzr","NaN","<div style=""width:500px;"">
                            <p style=""font-size:50px; font-weight:bold;""
                            >serious</p>
                            <div style=""width:240px; margin: auto;"">
                                <img src=""images/gray_07.png"" style= ""width:200px""alt=""img"">
                            </div>
                        </div>","-103","","0","images/gray_07.png","","","","serious"
"","","","","","html-slider-response","83","221193","0.0-79.0","m5vvmkwxzr","NaN","<div style=""width:500px;"">
                            <p style=""font-size:50px; font-weight:bold;""
                            >serious</p>
                            <div style=""width:240px; margin: auto;"">
                                <img src=""images/gray_12.png"" style= ""width:200px""alt=""img"">
                            </div>
                        </div>","51","","0","images/gray_12.png","","","","serious"
"","","","","","html-slider-response","84","222406","0.0-80.0","m5vvmkwxzr","NaN","<div style=""width:500px;"">
                            <p style=""font-size:50px; font-weight:bold;""
                            >serious</p>
                            <div style=""width:240px; margin: auto;"">
                                <img src=""images/gray_22.png"" style= ""width:200px""alt=""img"">
                            </div>
                        </div>","-35","","0","images/gray_22.png","","","","serious"
"","","","","","html-slider-response","85","223851","0.0-81.0","m5vvmkwxzr","NaN","<div style=""width:500px;"">
                            <p style=""font-size:50px; font-weight:bold;""
                            >serious</p>
                            <div style=""width:240px; margin: auto;"">
                                <img src=""images/gray_24.png"" style= ""width:200px""alt=""img"">
                            </div>
                        </div>","61","","0","images/gray_24.png","","","","serious"
"","","","","","html-slider-response","86","225415","0.0-82.0","m5vvmkwxzr","NaN","<div style=""width:500px;"">
                            <p style=""font-size:50px; font-weight:bold;""
                            >serious</p>
                            <div style=""width:240px; margin: auto;"">
                                <img src=""images/gray_20.png"" style= ""width:200px""alt=""img"">
                            </div>
                        </div>","-144","","0","images/gray_20.png","","","","serious"
"","","","","","html-slider-response","87","227040","0.0-83.0","m5vvmkwxzr","NaN","<div style=""width:500px;"">
                            <p style=""font-size:50px; font-weight:bold;""
                            >serious</p>
                            <div style=""width:240px; margin: auto;"">
                                <img src=""images/gray_23.png"" style= ""width:200px""alt=""img"">
                            </div>
                        </div>","52","","0","images/gray_23.png","","","","serious"
"","","","","","html-slider-response","88","228749","0.0-84.0","m5vvmkwxzr","NaN","<div style=""width:500px;"">
                            <p style=""font-size:50px; font-weight:bold;""
                            >serious</p>
                            <div style=""width:240px; margin: auto;"">
                                <img src=""images/gray_21.png"" style= ""width:200px""alt=""img"">
                            </div>
                        </div>","183","","0","images/gray_21.png","","","","serious"
"","","","","","html-slider-response","89","230276","0.0-85.0","m5vvmkwxzr","NaN","<div style=""width:500px;"">
                            <p style=""font-size:50px; font-weight:bold;""
                            >serious</p>
                            <div style=""width:240px; margin: auto;"">
                                <img src=""images/gray_17.png"" style= ""width:200px""alt=""img"">
                            </div>
                        </div>","-110","","0","images/gray_17.png","","","","serious"
"","","","","","html-slider-response","90","231854","0.0-86.0","m5vvmkwxzr","NaN","<div style=""width:500px;"">
                            <p style=""font-size:50px; font-weight:bold;""
                            >serious</p>
                            <div style=""width:240px; margin: auto;"">
                                <img src=""images/gray_36.png"" style= ""width:200px""alt=""img"">
                            </div>
                        </div>","200","","0","images/gray_36.png","","","","serious"
"","","","","","html-slider-response","91","233243","0.0-87.0","m5vvmkwxzr","NaN","<div style=""width:500px;"">
                            <p style=""font-size:50px; font-weight:bold;""
                            >serious</p>
                            <div style=""width:240px; margin: auto;"">
                                <img src=""images/gray_08.png"" style= ""width:200px""alt=""img"">
                            </div>
                        </div>","-26","","0","images/gray_08.png","","","","serious"
"","","","","","html-slider-response","92","234797","0.0-88.0","m5vvmkwxzr","NaN","<div style=""width:500px;"">
                            <p style=""font-size:50px; font-weight:bold;""
                            >serious</p>
                            <div style=""width:240px; margin: auto;"">
                                <img src=""images/gray_02.png"" style= ""width:200px""alt=""img"">
                            </div>
                        </div>","200","","0","images/gray_02.png","","","","serious"
"","","","","","html-slider-response","93","239068","0.0-89.0","m5vvmkwxzr","NaN","<div style=""width:500px;"">
                            <p style=""font-size:50px; font-weight:bold;""
                            >serious</p>
                            <div style=""width:240px; margin: auto;"">
                                <img src=""images/gray_28.png"" style= ""width:200px""alt=""img"">
                            </div>
                        </div>","-164","","0","images/gray_28.png","","","","serious"
"","","","","","html-slider-response","94","240791","0.0-90.0","m5vvmkwxzr","NaN","<div style=""width:500px;"">
                            <p style=""font-size:50px; font-weight:bold;""
                            >serious</p>
                            <div style=""width:240px; margin: auto;"">
                                <img src=""images/gray_18.png"" style= ""width:200px""alt=""img"">
                            </div>
                        </div>","43","","0","images/gray_18.png","","","","serious"
"","","","","","html-slider-response","95","242676","0.0-91.0","m5vvmkwxzr","NaN","<div style=""width:500px;"">
                            <p style=""font-size:50px; font-weight:bold;""
                            >serious</p>
                            <div style=""width:240px; margin: auto;"">
                                <img src=""images/gray_37.png"" style= ""width:200px""alt=""img"">
                            </div>
                        </div>","-31","","0","images/gray_37.png","","","","serious"
"","","","","","html-slider-response","96","244475","0.0-92.0","m5vvmkwxzr","NaN","<div style=""width:500px;"">
                            <p style=""font-size:50px; font-weight:bold;""
                            >serious</p>
                            <div style=""width:240px; margin: auto;"">
                                <img src=""images/gray_32.png"" style= ""width:200px""alt=""img"">
                            </div>
                        </div>","62","","0","images/gray_32.png","","","","serious"
"","","","","","html-slider-response","97","246156","0.0-93.0","m5vvmkwxzr","NaN","<div style=""width:500px;"">
                            <p style=""font-size:50px; font-weight:bold;""
                            >serious</p>
                            <div style=""width:240px; margin: auto;"">
                                <img src=""images/gray_15.png"" style= ""width:200px""alt=""img"">
                            </div>
                        </div>","46","","0","images/gray_15.png","","","","serious"
"","","","","","html-slider-response","98","247642","0.0-94.0","m5vvmkwxzr","NaN","<div style=""width:500px;"">
                            <p style=""font-size:50px; font-weight:bold;""
                            >serious</p>
                            <div style=""width:240px; margin: auto;"">
                                <img src=""images/gray_06.png"" style= ""width:200px""alt=""img"">
                            </div>
                        </div>","-74","","0","images/gray_06.png","","","","serious"
"","","","","","html-slider-response","99","249196","0.0-95.0","m5vvmkwxzr","NaN","<div style=""width:500px;"">
                            <p style=""font-size:50px; font-weight:bold;""
                            >serious</p>
                            <div style=""width:240px; margin: auto;"">
                                <img src=""images/gray_04.png"" style= ""width:200px""alt=""img"">
                            </div>
                        </div>","-148","","0","images/gray_04.png","","","","serious"
"","","","","","html-slider-response","100","250940","0.0-96.0","m5vvmkwxzr","NaN","<div style=""width:500px;"">
                            <p style=""font-size:50px; font-weight:bold;""
                            >serious</p>
                            <div style=""width:240px; margin: auto;"">
                                <img src=""images/gray_05.png"" style= ""width:200px""alt=""img"">
                            </div>
                        </div>","102","","0","images/gray_05.png","","","","serious"
"","","","","","html-slider-response","101","252342","0.0-97.0","m5vvmkwxzr","NaN","<div style=""width:500px;"">
                            <p style=""font-size:50px; font-weight:bold;""
                            >serious</p>
                            <div style=""width:240px; margin: auto;"">
                                <img src=""images/gray_38.png"" style= ""width:200px""alt=""img"">
                            </div>
                        </div>","151","","0","images/gray_38.png","","","","serious"
"","","","","","html-slider-response","102","253877","0.0-98.0","m5vvmkwxzr","NaN","<div style=""width:500px;"">
                            <p style=""font-size:50px; font-weight:bold;""
                            >serious</p>
                            <div style=""width:240px; margin: auto;"">
                                <img src=""images/gray_01.png"" style= ""width:200px""alt=""img"">
                            </div>
                        </div>","-165","","0","images/gray_01.png","","","","serious"
"","","","","","html-slider-response","103","255455","0.0-99.0","m5vvmkwxzr","NaN","<div style=""width:500px;"">
                            <p style=""font-size:50px; font-weight:bold;""
                            >serious</p>
                            <div style=""width:240px; margin: auto;"">
                                <img src=""images/gray_30.png"" style= ""width:200px""alt=""img"">
                            </div>
                        </div>","-179","","0","images/gray_30.png","","","","serious"
"","","","","","html-slider-response","104","257099","0.0-100.0","m5vvmkwxzr","NaN","<div style=""width:500px;"">
                            <p style=""font-size:50px; font-weight:bold;""
                            >serious</p>
                            <div style=""width:240px; margin: auto;"">
                                <img src=""images/gray_35.png"" style= ""width:200px""alt=""img"">
                            </div>
                        </div>","-39","","0","images/gray_35.png","","","","serious"
"","","","","","html-slider-response","105","258859","0.0-101.0","m5vvmkwxzr","NaN","<div style=""width:500px;"">
                            <p style=""font-size:50px; font-weight:bold;""
                            >serious</p>
                            <div style=""width:240px; margin: auto;"">
                                <img src=""images/gray_10.png"" style= ""width:200px""alt=""img"">
                            </div>
                        </div>","192","","0","images/gray_10.png","","","","serious"
"","","","","","html-slider-response","106","260162","0.0-102.0","m5vvmkwxzr","NaN","<div style=""width:500px;"">
                            <p style=""font-size:50px; font-weight:bold;""
                            >serious</p>
                            <div style=""width:240px; margin: auto;"">
                                <img src=""images/gray_19.png"" style= ""width:200px""alt=""img"">
                            </div>
                        </div>","-10","","0","images/gray_19.png","","","","serious"
"","","","","","html-slider-response","107","261495","0.0-103.0","m5vvmkwxzr","NaN","<div style=""width:500px;"">
                            <p style=""font-size:50px; font-weight:bold;""
                            >serious</p>
                            <div style=""width:240px; margin: auto;"">
                                <img src=""images/gray_41.png"" style= ""width:200px""alt=""img"">
                            </div>
                        </div>","26","","0","images/gray_41.png","","","","serious"
"","","","","","html-button-response","108","263074","0.0-104.0","m5vvmkwxzr","1077","<p>Great Job! You've finished block 2.<br></br> You have 6 block(s) left to go.<br></br></p>","0","","","","","","",""
"","","","","","html-button-response","109","264428","0.0-105.0","m5vvmkwxzr","1352","<p>In this block of trials, you will be asked to rate how much you associate each map with:</p > <p style = 'font-size:150%; font-weight: bold'>playful</p><br></br>","0","","","","","","",""
"","","","","","html-slider-response","110","266211","0.0-106.0","m5vvmkwxzr","NaN","<div style=""width:500px;"">
                            <p style=""font-size:50px; font-weight:bold;""
                            >playful</p>
                            <div style=""width:240px; margin: auto;"">
                                <img src=""images/gray_01.png"" style= ""width:200px""alt=""img"">
                            </div>
                        </div>","-62","","0","images/gray_01.png","","","","playful"
"","","","","","html-slider-response","111","267684","0.0-107.0","m5vvmkwxzr","NaN","<div style=""width:500px;"">
                            <p style=""font-size:50px; font-weight:bold;""
                            >playful</p>
                            <div style=""width:240px; margin: auto;"">
                                <img src=""images/gray_12.png"" style= ""width:200px""alt=""img"">
                            </div>
                        </div>","-200","","0","images/gray_12.png","","","","playful"
"","","","","","html-slider-response","112","270321","0.0-108.0","m5vvmkwxzr","NaN","<div style=""width:500px;"">
                            <p style=""font-size:50px; font-weight:bold;""
                            >playful</p>
                            <div style=""width:240px; margin: auto;"">
                                <img src=""images/gray_34.png"" style= ""width:200px""alt=""img"">
                            </div>
                        </div>","-90","","0","images/gray_34.png","","","","playful"
"","","","","","html-slider-response","113","271723","0.0-109.0","m5vvmkwxzr","NaN","<div style=""width:500px;"">
                            <p style=""font-size:50px; font-weight:bold;""
                            >playful</p>
                            <div style=""width:240px; margin: auto;"">
                                <img src=""images/gray_38.png"" style= ""width:200px""alt=""img"">
                            </div>
                        </div>","-40","","0","images/gray_38.png","","","","playful"
"","","","","","html-slider-response","114","273229","0.0-110.0","m5vvmkwxzr","NaN","<div style=""width:500px;"">
                            <p style=""font-size:50px; font-weight:bold;""
                            >playful</p>
                            <div style=""width:240px; margin: auto;"">
                                <img src=""images/gray_25.png"" style= ""width:200px""alt=""img"">
                            </div>
                        </div>","31","","0","images/gray_25.png","","","","playful"
"","","","","","html-slider-response","115","274590","0.0-111.0","m5vvmkwxzr","NaN","<div style=""width:500px;"">
                            <p style=""font-size:50px; font-weight:bold;""
                            >playful</p>
                            <div style=""width:240px; margin: auto;"">
                                <img src=""images/gray_18.png"" style= ""width:200px""alt=""img"">
                            </div>
                        </div>","-30","","0","images/gray_18.png","","","","playful"
"","","","","","html-slider-response","116","275944","0.0-112.0","m5vvmkwxzr","NaN","<div style=""width:500px;"">
                            <p style=""font-size:50px; font-weight:bold;""
                            >playful</p>
                            <div style=""width:240px; margin: auto;"">
                                <img src=""images/gray_07.png"" style= ""width:200px""alt=""img"">
                            </div>
                        </div>","67","","0","images/gray_07.png","","","","playful"
"","","","","","html-slider-response","117","277326","0.0-113.0","m5vvmkwxzr","NaN","<div style=""width:500px;"">
                            <p style=""font-size:50px; font-weight:bold;""
                            >playful</p>
                            <div style=""width:240px; margin: auto;"">
                                <img src=""images/gray_27.png"" style= ""width:200px""alt=""img"">
                            </div>
                        </div>","-68","","0","images/gray_27.png","","","","playful"
"","","","","","html-slider-response","118","278713","0.0-114.0","m5vvmkwxzr","NaN","<div style=""width:500px;"">
                            <p style=""font-size:50px; font-weight:bold;""
                            >playful</p>
                            <div style=""width:240px; margin: auto;"">
                                <img src=""images/gray_30.png"" style= ""width:200px""alt=""img"">
                            </div>
                        </div>","110","","0","images/gray_30.png","","","","playful"
"","","","","","html-slider-response","119","280184","0.0-115.0","m5vvmkwxzr","NaN","<div style=""width:500px;"">
                            <p style=""font-size:50px; font-weight:bold;""
                            >playful</p>
                            <div style=""width:240px; margin: auto;"">
                                <img src=""images/gray_09.png"" style= ""width:200px""alt=""img"">
                            </div>
                        </div>","-104","","0","images/gray_09.png","","","","playful"
"","","","","","html-slider-response","120","281561","0.0-116.0","m5vvmkwxzr","NaN","<div style=""width:500px;"">
                            <p style=""font-size:50px; font-weight:bold;""
                            >playful</p>
                            <div style=""width:240px; margin: auto;"">
                                <img src=""images/gray_43.png"" style= ""width:200px""alt=""img"">
                            </div>
                        </div>","49","","0","images/gray_43.png","","","","playful"
"","","","","","html-slider-response","121","282859","0.0-117.0","m5vvmkwxzr","NaN","<div style=""width:500px;"">
                            <p style=""font-size:50px; font-weight:bold;""
                            >playful</p>
                            <div style=""width:240px; margin: auto;"">
                                <img src=""images/gray_29.png"" style= ""width:200px""alt=""img"">
                            </div>
                        </div>","-63","","0","images/gray_29.png","","","","playful"
"","","","","","html-slider-response","122","283876","0.0-118.0","m5vvmkwxzr","NaN","<div style=""width:500px;"">
                            <p style=""font-size:50px; font-weight:bold;""
                            >playful</p>
                            <div style=""width:240px; margin: auto;"">
                                <img src=""images/gray_36.png"" style= ""width:200px""alt=""img"">
                            </div>
                        </div>","-42","","0","images/gray_36.png","","","","playful"
"","","","","","html-slider-response","123","284866","0.0-119.0","m5vvmkwxzr","NaN","<div style=""width:500px;"">
                            <p style=""font-size:50px; font-weight:bold;""
                            >playful</p>
                            <div style=""width:240px; margin: auto;"">
                                <img src=""images/gray_11.png"" style= ""width:200px""alt=""img"">
                            </div>
                        </div>","70","","0","images/gray_11.png","","","","playful"
"","","","","","html-slider-response","124","286122","0.0-120.0","m5vvmkwxzr","NaN","<div style=""width:500px;"">
                            <p style=""font-size:50px; font-weight:bold;""
                            >playful</p>
                            <div style=""width:240px; margin: auto;"">
                                <img src=""images/gray_22.png"" style= ""width:200px""alt=""img"">
                            </div>
                        </div>","-104","","0","images/gray_22.png","","","","playful"
"","","","","","html-slider-response","125","287254","0.0-121.0","m5vvmkwxzr","NaN","<div style=""width:500px;"">
                            <p style=""font-size:50px; font-weight:bold;""
                            >playful</p>
                            <div style=""width:240px; margin: auto;"">
                                <img src=""images/gray_28.png"" style= ""width:200px""alt=""img"">
                            </div>
                        </div>","83","","0","images/gray_28.png","","","","playful"
"","","","","","html-slider-response","126","288437","0.0-122.0","m5vvmkwxzr","NaN","<div style=""width:500px;"">
                            <p style=""font-size:50px; font-weight:bold;""
                            >playful</p>
                            <div style=""width:240px; margin: auto;"">
                                <img src=""images/gray_15.png"" style= ""width:200px""alt=""img"">
                            </div>
                        </div>","83","","0","images/gray_15.png","","","","playful"
"","","","","","html-slider-response","127","289826","0.0-123.0","m5vvmkwxzr","NaN","<div style=""width:500px;"">
                            <p style=""font-size:50px; font-weight:bold;""
                            >playful</p>
                            <div style=""width:240px; margin: auto;"">
                                <img src=""images/gray_40.png"" style= ""width:200px""alt=""img"">
                            </div>
                        </div>","99","","0","images/gray_40.png","","","","playful"
"","","","","","html-slider-response","128","290900","0.0-124.0","m5vvmkwxzr","NaN","<div style=""width:500px;"">
                            <p style=""font-size:50px; font-weight:bold;""
                            >playful</p>
                            <div style=""width:240px; margin: auto;"">
                                <img src=""images/gray_31.png"" style= ""width:200px""alt=""img"">
                            </div>
                        </div>","120","","0","images/gray_31.png","","","","playful"
"","","","","","html-slider-response","129","291985","0.0-125.0","m5vvmkwxzr","NaN","<div style=""width:500px;"">
                            <p style=""font-size:50px; font-weight:bold;""
                            >playful</p>
                            <div style=""width:240px; margin: auto;"">
                                <img src=""images/gray_26.png"" style= ""width:200px""alt=""img"">
                            </div>
                        </div>","106","","0","images/gray_26.png","","","","playful"
"","","","","","html-slider-response","130","293000","0.0-126.0","m5vvmkwxzr","NaN","<div style=""width:500px;"">
                            <p style=""font-size:50px; font-weight:bold;""
                            >playful</p>
                            <div style=""width:240px; margin: auto;"">
                                <img src=""images/gray_02.png"" style= ""width:200px""alt=""img"">
                            </div>
                        </div>","-82","","0","images/gray_02.png","","","","playful"
"","","","","","html-slider-response","131","293964","0.0-127.0","m5vvmkwxzr","NaN","<div style=""width:500px;"">
                            <p style=""font-size:50px; font-weight:bold;""
                            >playful</p>
                            <div style=""width:240px; margin: auto;"">
                                <img src=""images/gray_44.png"" style= ""width:200px""alt=""img"">
                            </div>
                        </div>","-116","","0","images/gray_44.png","","","","playful"
"","","","","","html-slider-response","132","295087","0.0-128.0","m5vvmkwxzr","NaN","<div style=""width:500px;"">
                            <p style=""font-size:50px; font-weight:bold;""
                            >playful</p>
                            <div style=""width:240px; margin: auto;"">
                                <img src=""images/gray_33.png"" style= ""width:200px""alt=""img"">
                            </div>
                        </div>","-138","","0","images/gray_33.png","","","","playful"
"","","","","","html-slider-response","133","296111","0.0-129.0","m5vvmkwxzr","NaN","<div style=""width:500px;"">
                            <p style=""font-size:50px; font-weight:bold;""
                            >playful</p>
                            <div style=""width:240px; margin: auto;"">
                                <img src=""images/gray_23.png"" style= ""width:200px""alt=""img"">
                            </div>
                        </div>","87","","0","images/gray_23.png","","","","playful"
"","","","","","html-slider-response","134","297172","0.0-130.0","m5vvmkwxzr","NaN","<div style=""width:500px;"">
                            <p style=""font-size:50px; font-weight:bold;""
                            >playful</p>
                            <div style=""width:240px; margin: auto;"">
                                <img src=""images/gray_37.png"" style= ""width:200px""alt=""img"">
                            </div>
                        </div>","-89","","0","images/gray_37.png","","","","playful"
"","","","","","html-slider-response","135","298358","0.0-131.0","m5vvmkwxzr","NaN","<div style=""width:500px;"">
                            <p style=""font-size:50px; font-weight:bold;""
                            >playful</p>
                            <div style=""width:240px; margin: auto;"">
                                <img src=""images/gray_04.png"" style= ""width:200px""alt=""img"">
                            </div>
                        </div>","28","","0","images/gray_04.png","","","","playful"
"","","","","","html-slider-response","136","300569","0.0-132.0","m5vvmkwxzr","NaN","<div style=""width:500px;"">
                            <p style=""font-size:50px; font-weight:bold;""
                            >playful</p>
                            <div style=""width:240px; margin: auto;"">
                                <img src=""images/gray_13.png"" style= ""width:200px""alt=""img"">
                            </div>
                        </div>","-33","","0","images/gray_13.png","","","","playful"
"","","","","","html-slider-response","137","301839","0.0-133.0","m5vvmkwxzr","NaN","<div style=""width:500px;"">
                            <p style=""font-size:50px; font-weight:bold;""
                            >playful</p>
                            <div style=""width:240px; margin: auto;"">
                                <img src=""images/gray_41.png"" style= ""width:200px""alt=""img"">
                            </div>
                        </div>","-134","","0","images/gray_41.png","","","","playful"
"","","","","","html-slider-response","138","303215","0.0-134.0","m5vvmkwxzr","NaN","<div style=""width:500px;"">
                            <p style=""font-size:50px; font-weight:bold;""
                            >playful</p>
                            <div style=""width:240px; margin: auto;"">
                                <img src=""images/gray_39.png"" style= ""width:200px""alt=""img"">
                            </div>
                        </div>","142","","0","images/gray_39.png","","","","playful"
"","","","","","html-slider-response","139","304232","0.0-135.0","m5vvmkwxzr","NaN","<div style=""width:500px;"">
                            <p style=""font-size:50px; font-weight:bold;""
                            >playful</p>
                            <div style=""width:240px; margin: auto;"">
                                <img src=""images/gray_05.png"" style= ""width:200px""alt=""img"">
                            </div>
                        </div>","120","","0","images/gray_05.png","","","","playful"
"","","","","","html-slider-response","140","305348","0.0-136.0","m5vvmkwxzr","NaN","<div style=""width:500px;"">
                            <p style=""font-size:50px; font-weight:bold;""
                            >playful</p>
                            <div style=""width:240px; margin: auto;"">
                                <img src=""images/gray_06.png"" style= ""width:200px""alt=""img"">
                            </div>
                        </div>","88","","0","images/gray_06.png","","","","playful"
"","","","","","html-slider-response","141","306339","0.0-137.0","m5vvmkwxzr","NaN","<div style=""width:500px;"">
                            <p style=""font-size:50px; font-weight:bold;""
                            >playful</p>
                            <div style=""width:240px; margin: auto;"">
                                <img src=""images/gray_19.png"" style= ""width:200px""alt=""img"">
                            </div>
                        </div>","-93","","0","images/gray_19.png","","","","playful"
"","","","","","html-slider-response","142","307420","0.0-138.0","m5vvmkwxzr","NaN","<div style=""width:500px;"">
                            <p style=""font-size:50px; font-weight:bold;""
                            >playful</p>
                            <div style=""width:240px; margin: auto;"">
                                <img src=""images/gray_21.png"" style= ""width:200px""alt=""img"">
                            </div>
                        </div>","-123","","0","images/gray_21.png","","","","playful"
"","","","","","html-slider-response","143","308473","0.0-139.0","m5vvmkwxzr","NaN","<div style=""width:500px;"">
                            <p style=""font-size:50px; font-weight:bold;""
                            >playful</p>
                            <div style=""width:240px; margin: auto;"">
                                <img src=""images/gray_10.png"" style= ""width:200px""alt=""img"">
                            </div>
                        </div>","-152","","0","images/gray_10.png","","","","playful"
"","","","","","html-slider-response","144","309492","0.0-140.0","m5vvmkwxzr","NaN","<div style=""width:500px;"">
                            <p style=""font-size:50px; font-weight:bold;""
                            >playful</p>
                            <div style=""width:240px; margin: auto;"">
                                <img src=""images/gray_17.png"" style= ""width:200px""alt=""img"">
                            </div>
                        </div>","-106","","0","images/gray_17.png","","","","playful"
"","","","","","html-slider-response","145","310593","0.0-141.0","m5vvmkwxzr","NaN","<div style=""width:500px;"">
                            <p style=""font-size:50px; font-weight:bold;""
                            >playful</p>
                            <div style=""width:240px; margin: auto;"">
                                <img src=""images/gray_08.png"" style= ""width:200px""alt=""img"">
                            </div>
                        </div>","-125","","0","images/gray_08.png","","","","playful"
"","","","","","html-slider-response","146","311626","0.0-142.0","m5vvmkwxzr","NaN","<div style=""width:500px;"">
                            <p style=""font-size:50px; font-weight:bold;""
                            >playful</p>
                            <div style=""width:240px; margin: auto;"">
                                <img src=""images/gray_20.png"" style= ""width:200px""alt=""img"">
                            </div>
                        </div>","-108","","0","images/gray_20.png","","","","playful"
"","","","","","html-slider-response","147","312518","0.0-143.0","m5vvmkwxzr","NaN","<div style=""width:500px;"">
                            <p style=""font-size:50px; font-weight:bold;""
                            >playful</p>
                            <div style=""width:240px; margin: auto;"">
                                <img src=""images/gray_32.png"" style= ""width:200px""alt=""img"">
                            </div>
                        </div>","-87","","0","images/gray_32.png","","","","playful"
"","","","","","html-slider-response","148","313706","0.0-144.0","m5vvmkwxzr","NaN","<div style=""width:500px;"">
                            <p style=""font-size:50px; font-weight:bold;""
                            >playful</p>
                            <div style=""width:240px; margin: auto;"">
                                <img src=""images/gray_35.png"" style= ""width:200px""alt=""img"">
                            </div>
                        </div>","121","","0","images/gray_35.png","","","","playful"
"","","","","","html-slider-response","149","314875","0.0-145.0","m5vvmkwxzr","NaN","<div style=""width:500px;"">
                            <p style=""font-size:50px; font-weight:bold;""
                            >playful</p>
                            <div style=""width:240px; margin: auto;"">
                                <img src=""images/gray_16.png"" style= ""width:200px""alt=""img"">
                            </div>
                        </div>","96","","0","images/gray_16.png","","","","playful"
"","","","","","html-slider-response","150","316130","0.0-146.0","m5vvmkwxzr","NaN","<div style=""width:500px;"">
                            <p style=""font-size:50px; font-weight:bold;""
                            >playful</p>
                            <div style=""width:240px; margin: auto;"">
                                <img src=""images/gray_14.png"" style= ""width:200px""alt=""img"">
                            </div>
                        </div>","-141","","0","images/gray_14.png","","","","playful"
"","","","","","html-slider-response","151","317198","0.0-147.0","m5vvmkwxzr","NaN","<div style=""width:500px;"">
                            <p style=""font-size:50px; font-weight:bold;""
                            >playful</p>
                            <div style=""width:240px; margin: auto;"">
                                <img src=""images/gray_03.png"" style= ""width:200px""alt=""img"">
                            </div>
                        </div>","-157","","0","images/gray_03.png","","","","playful"
"","","","","","html-slider-response","152","318259","0.0-148.0","m5vvmkwxzr","NaN","<div style=""width:500px;"">
                            <p style=""font-size:50px; font-weight:bold;""
                            >playful</p>
                            <div style=""width:240px; margin: auto;"">
                                <img src=""images/gray_24.png"" style= ""width:200px""alt=""img"">
                            </div>
                        </div>","-122","","0","images/gray_24.png","","","","playful"
"","","","","","html-slider-response","153","319381","0.0-149.0","m5vvmkwxzr","NaN","<div style=""width:500px;"">
                            <p style=""font-size:50px; font-weight:bold;""
                            >playful</p>
                            <div style=""width:240px; margin: auto;"">
                                <img src=""images/gray_42.png"" style= ""width:200px""alt=""img"">
                            </div>
                        </div>","-93","","0","images/gray_42.png","","","","playful"
"","","","","","html-button-response","154","321038","0.0-150.0","m5vvmkwxzr","1149","<p>Great Job! You've finished block 3.<br></br> You have 5 block(s) left to go.<br></br></p>","0","","","","","","",""
"","","","","","html-button-response","155","322029","0.0-151.0","m5vvmkwxzr","990","<p>In this block of trials, you will be asked to rate how much you associate each map with:</p > <p style = 'font-size:150%; font-weight: bold'>exciting</p><br></br>","0","","","","","","",""
"","","","","","html-slider-response","156","323310","0.0-152.0","m5vvmkwxzr","NaN","<div style=""width:500px;"">
                            <p style=""font-size:50px; font-weight:bold;""
                            >exciting</p>
                            <div style=""width:240px; margin: auto;"">
                                <img src=""images/gray_13.png"" style= ""width:200px""alt=""img"">
                            </div>
                        </div>","28","","0","images/gray_13.png","","","","exciting"
"","","","","","html-slider-response","157","324118","0.0-153.0","m5vvmkwxzr","NaN","<div style=""width:500px;"">
                            <p style=""font-size:50px; font-weight:bold;""
                            >exciting</p>
                            <div style=""width:240px; margin: auto;"">
                                <img src=""images/gray_37.png"" style= ""width:200px""alt=""img"">
                            </div>
                        </div>","46","","0","images/gray_37.png","","","","exciting"
"","","","","","html-slider-response","158","324942","0.0-154.0","m5vvmkwxzr","NaN","<div style=""width:500px;"">
                            <p style=""font-size:50px; font-weight:bold;""
                            >exciting</p>
                            <div style=""width:240px; margin: auto;"">
                                <img src=""images/gray_30.png"" style= ""width:200px""alt=""img"">
                            </div>
                        </div>","26","","0","images/gray_30.png","","","","exciting"
"","","","","","html-slider-response","159","325834","0.0-155.0","m5vvmkwxzr","NaN","<div style=""width:500px;"">
                            <p style=""font-size:50px; font-weight:bold;""
                            >exciting</p>
                            <div style=""width:240px; margin: auto;"">
                                <img src=""images/gray_23.png"" style= ""width:200px""alt=""img"">
                            </div>
                        </div>","-66","","0","images/gray_23.png","","","","exciting"
"","","","","","html-slider-response","160","326539","0.0-156.0","m5vvmkwxzr","NaN","<div style=""width:500px;"">
                            <p style=""font-size:50px; font-weight:bold;""
                            >exciting</p>
                            <div style=""width:240px; margin: auto;"">
                                <img src=""images/gray_43.png"" style= ""width:200px""alt=""img"">
                            </div>
                        </div>","-109","","0","images/gray_43.png","","","","exciting"
"","","","","","html-slider-response","161","327383","0.0-157.0","m5vvmkwxzr","NaN","<div style=""width:500px;"">
                            <p style=""font-size:50px; font-weight:bold;""
                            >exciting</p>
                            <div style=""width:240px; margin: auto;"">
                                <img src=""images/gray_44.png"" style= ""width:200px""alt=""img"">
                            </div>
                        </div>","-46","","0","images/gray_44.png","","","","exciting"
"","","","","","html-slider-response","162","328381","0.0-158.0","m5vvmkwxzr","NaN","<div style=""width:500px;"">
                            <p style=""font-size:50px; font-weight:bold;""
                            >exciting</p>
                            <div style=""width:240px; margin: auto;"">
                                <img src=""images/gray_04.png"" style= ""width:200px""alt=""img"">
                            </div>
                        </div>","27","","0","images/gray_04.png","","","","exciting"
"","","","","","html-slider-response","163","329148","0.0-159.0","m5vvmkwxzr","NaN","<div style=""width:500px;"">
                            <p style=""font-size:50px; font-weight:bold;""
                            >exciting</p>
                            <div style=""width:240px; margin: auto;"">
                                <img src=""images/gray_19.png"" style= ""width:200px""alt=""img"">
                            </div>
                        </div>","48","","0","images/gray_19.png","","","","exciting"
"","","","","","html-slider-response","164","330062","0.0-160.0","m5vvmkwxzr","NaN","<div style=""width:500px;"">
                            <p style=""font-size:50px; font-weight:bold;""
                            >exciting</p>
                            <div style=""width:240px; margin: auto;"">
                                <img src=""images/gray_27.png"" style= ""width:200px""alt=""img"">
                            </div>
                        </div>","71","","0","images/gray_27.png","","","","exciting"
"","","","","","html-slider-response","165","331325","0.0-161.0","m5vvmkwxzr","NaN","<div style=""width:500px;"">
                            <p style=""font-size:50px; font-weight:bold;""
                            >exciting</p>
                            <div style=""width:240px; margin: auto;"">
                                <img src=""images/gray_10.png"" style= ""width:200px""alt=""img"">
                            </div>
                        </div>","-46","","0","images/gray_10.png","","","","exciting"
"","","","","","html-slider-response","166","332308","0.0-162.0","m5vvmkwxzr","NaN","<div style=""width:500px;"">
                            <p style=""font-size:50px; font-weight:bold;""
                            >exciting</p>
                            <div style=""width:240px; margin: auto;"">
                                <img src=""images/gray_24.png"" style= ""width:200px""alt=""img"">
                            </div>
                        </div>","-145","","0","images/gray_24.png","","","","exciting"
"","","","","","html-slider-response","167","333131","0.0-163.0","m5vvmkwxzr","NaN","<div style=""width:500px;"">
                            <p style=""font-size:50px; font-weight:bold;""
                            >exciting</p>
                            <div style=""width:240px; margin: auto;"">
                                <img src=""images/gray_06.png"" style= ""width:200px""alt=""img"">
                            </div>
                        </div>","-166","","0","images/gray_06.png","","","","exciting"
"","","","","","html-slider-response","168","334023","0.0-164.0","m5vvmkwxzr","NaN","<div style=""width:500px;"">
                            <p style=""font-size:50px; font-weight:bold;""
                            >exciting</p>
                            <div style=""width:240px; margin: auto;"">
                                <img src=""images/gray_15.png"" style= ""width:200px""alt=""img"">
                            </div>
                        </div>","-141","","0","images/gray_15.png","","","","exciting"
"","","","","","html-slider-response","169","334918","0.0-165.0","m5vvmkwxzr","NaN","<div style=""width:500px;"">
                            <p style=""font-size:50px; font-weight:bold;""
                            >exciting</p>
                            <div style=""width:240px; margin: auto;"">
                                <img src=""images/gray_32.png"" style= ""width:200px""alt=""img"">
                            </div>
                        </div>","-83","","0","images/gray_32.png","","","","exciting"
"","","","","","html-slider-response","170","335698","0.0-166.0","m5vvmkwxzr","NaN","<div style=""width:500px;"">
                            <p style=""font-size:50px; font-weight:bold;""
                            >exciting</p>
                            <div style=""width:240px; margin: auto;"">
                                <img src=""images/gray_18.png"" style= ""width:200px""alt=""img"">
                            </div>
                        </div>","-9","","0","images/gray_18.png","","","","exciting"
"","","","","","html-slider-response","171","336417","0.0-167.0","m5vvmkwxzr","NaN","<div style=""width:500px;"">
                            <p style=""font-size:50px; font-weight:bold;""
                            >exciting</p>
                            <div style=""width:240px; margin: auto;"">
                                <img src=""images/gray_28.png"" style= ""width:200px""alt=""img"">
                            </div>
                        </div>","39","","0","images/gray_28.png","","","","exciting"
"","","","","","html-slider-response","172","337506","0.0-168.0","m5vvmkwxzr","NaN","<div style=""width:500px;"">
                            <p style=""font-size:50px; font-weight:bold;""
                            >exciting</p>
                            <div style=""width:240px; margin: auto;"">
                                <img src=""images/gray_03.png"" style= ""width:200px""alt=""img"">
                            </div>
                        </div>","93","","0","images/gray_03.png","","","","exciting"
"","","","","","html-slider-response","173","338676","0.0-169.0","m5vvmkwxzr","NaN","<div style=""width:500px;"">
                            <p style=""font-size:50px; font-weight:bold;""
                            >exciting</p>
                            <div style=""width:240px; margin: auto;"">
                                <img src=""images/gray_42.png"" style= ""width:200px""alt=""img"">
                            </div>
                        </div>","-109","","0","images/gray_42.png","","","","exciting"
"","","","","","html-slider-response","174","339736","0.0-170.0","m5vvmkwxzr","NaN","<div style=""width:500px;"">
                            <p style=""font-size:50px; font-weight:bold;""
                            >exciting</p>
                            <div style=""width:240px; margin: auto;"">
                                <img src=""images/gray_34.png"" style= ""width:200px""alt=""img"">
                            </div>
                        </div>","-134","","0","images/gray_34.png","","","","exciting"
"","","","","","html-slider-response","175","340712","0.0-171.0","m5vvmkwxzr","NaN","<div style=""width:500px;"">
                            <p style=""font-size:50px; font-weight:bold;""
                            >exciting</p>
                            <div style=""width:240px; margin: auto;"">
                                <img src=""images/gray_39.png"" style= ""width:200px""alt=""img"">
                            </div>
                        </div>","-99","","0","images/gray_39.png","","","","exciting"
"","","","","","html-slider-response","176","341703","0.0-172.0","m5vvmkwxzr","NaN","<div style=""width:500px;"">
                            <p style=""font-size:50px; font-weight:bold;""
                            >exciting</p>
                            <div style=""width:240px; margin: auto;"">
                                <img src=""images/gray_21.png"" style= ""width:200px""alt=""img"">
                            </div>
                        </div>","-66","","0","images/gray_21.png","","","","exciting"
"","","","","","html-slider-response","177","342702","0.0-173.0","m5vvmkwxzr","NaN","<div style=""width:500px;"">
                            <p style=""font-size:50px; font-weight:bold;""
                            >exciting</p>
                            <div style=""width:240px; margin: auto;"">
                                <img src=""images/gray_20.png"" style= ""width:200px""alt=""img"">
                            </div>
                        </div>","-10","","0","images/gray_20.png","","","","exciting"
"","","","","","html-slider-response","178","343700","0.0-174.0","m5vvmkwxzr","NaN","<div style=""width:500px;"">
                            <p style=""font-size:50px; font-weight:bold;""
                            >exciting</p>
                            <div style=""width:240px; margin: auto;"">
                                <img src=""images/gray_36.png"" style= ""width:200px""alt=""img"">
                            </div>
                        </div>","54","","0","images/gray_36.png","","","","exciting"
"","","","","","html-slider-response","179","344592","0.0-175.0","m5vvmkwxzr","NaN","<div style=""width:500px;"">
                            <p style=""font-size:50px; font-weight:bold;""
                            >exciting</p>
                            <div style=""width:240px; margin: auto;"">
                                <img src=""images/gray_26.png"" style= ""width:200px""alt=""img"">
                            </div>
                        </div>","87","","0","images/gray_26.png","","","","exciting"
"","","","","","html-slider-response","180","345492","0.0-176.0","m5vvmkwxzr","NaN","<div style=""width:500px;"">
                            <p style=""font-size:50px; font-weight:bold;""
                            >exciting</p>
                            <div style=""width:240px; margin: auto;"">
                                <img src=""images/gray_08.png"" style= ""width:200px""alt=""img"">
                            </div>
                        </div>","116","","0","images/gray_08.png","","","","exciting"
"","","","","","html-slider-response","181","346419","0.0-177.0","m5vvmkwxzr","NaN","<div style=""width:500px;"">
                            <p style=""font-size:50px; font-weight:bold;""
                            >exciting</p>
                            <div style=""width:240px; margin: auto;"">
                                <img src=""images/gray_09.png"" style= ""width:200px""alt=""img"">
                            </div>
                        </div>","144","","0","images/gray_09.png","","","","exciting"
"","","","","","html-slider-response","182","347305","0.0-178.0","m5vvmkwxzr","NaN","<div style=""width:500px;"">
                            <p style=""font-size:50px; font-weight:bold;""
                            >exciting</p>
                            <div style=""width:240px; margin: auto;"">
                                <img src=""images/gray_29.png"" style= ""width:200px""alt=""img"">
                            </div>
                        </div>","101","","0","images/gray_29.png","","","","exciting"
"","","","","","html-slider-response","183","348156","0.0-179.0","m5vvmkwxzr","NaN","<div style=""width:500px;"">
                            <p style=""font-size:50px; font-weight:bold;""
                            >exciting</p>
                            <div style=""width:240px; margin: auto;"">
                                <img src=""images/gray_11.png"" style= ""width:200px""alt=""img"">
                            </div>
                        </div>","-99","","0","images/gray_11.png","","","","exciting"
"","","","","","html-slider-response","184","349105","0.0-180.0","m5vvmkwxzr","NaN","<div style=""width:500px;"">
                            <p style=""font-size:50px; font-weight:bold;""
                            >exciting</p>
                            <div style=""width:240px; margin: auto;"">
                                <img src=""images/gray_17.png"" style= ""width:200px""alt=""img"">
                            </div>
                        </div>","-128","","0","images/gray_17.png","","","","exciting"
"","","","","","html-slider-response","185","350032","0.0-181.0","m5vvmkwxzr","NaN","<div style=""width:500px;"">
                            <p style=""font-size:50px; font-weight:bold;""
                            >exciting</p>
                            <div style=""width:240px; margin: auto;"">
                                <img src=""images/gray_35.png"" style= ""width:200px""alt=""img"">
                            </div>
                        </div>","-150","","0","images/gray_35.png","","","","exciting"
"","","","","","html-slider-response","186","350961","0.0-182.0","m5vvmkwxzr","NaN","<div style=""width:500px;"">
                            <p style=""font-size:50px; font-weight:bold;""
                            >exciting</p>
                            <div style=""width:240px; margin: auto;"">
                                <img src=""images/gray_02.png"" style= ""width:200px""alt=""img"">
                            </div>
                        </div>","-134","","0","images/gray_02.png","","","","exciting"
"","","","","","html-slider-response","187","352251","0.0-183.0","m5vvmkwxzr","NaN","<div style=""width:500px;"">
                            <p style=""font-size:50px; font-weight:bold;""
                            >exciting</p>
                            <div style=""width:240px; margin: auto;"">
                                <img src=""images/gray_25.png"" style= ""width:200px""alt=""img"">
                            </div>
                        </div>","-162","","0","images/gray_25.png","","","","exciting"
"","","","","","html-slider-response","188","353449","0.0-184.0","m5vvmkwxzr","NaN","<div style=""width:500px;"">
                            <p style=""font-size:50px; font-weight:bold;""
                            >exciting</p>
                            <div style=""width:240px; margin: auto;"">
                                <img src=""images/gray_38.png"" style= ""width:200px""alt=""img"">
                            </div>
                        </div>","96","","0","images/gray_38.png","","","","exciting"
"","","","","","html-slider-response","189","354475","0.0-185.0","m5vvmkwxzr","NaN","<div style=""width:500px;"">
                            <p style=""font-size:50px; font-weight:bold;""
                            >exciting</p>
                            <div style=""width:240px; margin: auto;"">
                                <img src=""images/gray_05.png"" style= ""width:200px""alt=""img"">
                            </div>
                        </div>","127","","0","images/gray_05.png","","","","exciting"
"","","","","","html-slider-response","190","355626","0.0-186.0","m5vvmkwxzr","NaN","<div style=""width:500px;"">
                            <p style=""font-size:50px; font-weight:bold;""
                            >exciting</p>
                            <div style=""width:240px; margin: auto;"">
                                <img src=""images/gray_07.png"" style= ""width:200px""alt=""img"">
                            </div>
                        </div>","155","","0","images/gray_07.png","","","","exciting"
"","","","","","html-slider-response","191","356603","0.0-187.0","m5vvmkwxzr","NaN","<div style=""width:500px;"">
                            <p style=""font-size:50px; font-weight:bold;""
                            >exciting</p>
                            <div style=""width:240px; margin: auto;"">
                                <img src=""images/gray_41.png"" style= ""width:200px""alt=""img"">
                            </div>
                        </div>","126","","0","images/gray_41.png","","","","exciting"
"","","","","","html-slider-response","192","357649","0.0-188.0","m5vvmkwxzr","NaN","<div style=""width:500px;"">
                            <p style=""font-size:50px; font-weight:bold;""
                            >exciting</p>
                            <div style=""width:240px; margin: auto;"">
                                <img src=""images/gray_22.png"" style= ""width:200px""alt=""img"">
                            </div>
                        </div>","-46","","0","images/gray_22.png","","","","exciting"
"","","","","","html-slider-response","193","358753","0.0-189.0","m5vvmkwxzr","NaN","<div style=""width:500px;"">
                            <p style=""font-size:50px; font-weight:bold;""
                            >exciting</p>
                            <div style=""width:240px; margin: auto;"">
                                <img src=""images/gray_16.png"" style= ""width:200px""alt=""img"">
                            </div>
                        </div>","49","","0","images/gray_16.png","","","","exciting"
"","","","","","html-slider-response","194","359944","0.0-190.0","m5vvmkwxzr","NaN","<div style=""width:500px;"">
                            <p style=""font-size:50px; font-weight:bold;""
                            >exciting</p>
                            <div style=""width:240px; margin: auto;"">
                                <img src=""images/gray_01.png"" style= ""width:200px""alt=""img"">
                            </div>
                        </div>","126","","0","images/gray_01.png","","","","exciting"
"","","","","","html-slider-response","195","361012","0.0-191.0","m5vvmkwxzr","NaN","<div style=""width:500px;"">
                            <p style=""font-size:50px; font-weight:bold;""
                            >exciting</p>
                            <div style=""width:240px; margin: auto;"">
                                <img src=""images/gray_12.png"" style= ""width:200px""alt=""img"">
                            </div>
                        </div>","106","","0","images/gray_12.png","","","","exciting"
"","","","","","html-slider-response","196","362149","0.0-192.0","m5vvmkwxzr","NaN","<div style=""width:500px;"">
                            <p style=""font-size:50px; font-weight:bold;""
                            >exciting</p>
                            <div style=""width:240px; margin: auto;"">
                                <img src=""images/gray_33.png"" style= ""width:200px""alt=""img"">
                            </div>
                        </div>","90","","0","images/gray_33.png","","","","exciting"
"","","","","","html-slider-response","197","363097","0.0-193.0","m5vvmkwxzr","NaN","<div style=""width:500px;"">
                            <p style=""font-size:50px; font-weight:bold;""
                            >exciting</p>
                            <div style=""width:240px; margin: auto;"">
                                <img src=""images/gray_14.png"" style= ""width:200px""alt=""img"">
                            </div>
                        </div>","-90","","0","images/gray_14.png","","","","exciting"
"","","","","","html-slider-response","198","363914","0.0-194.0","m5vvmkwxzr","NaN","<div style=""width:500px;"">
                            <p style=""font-size:50px; font-weight:bold;""
                            >exciting</p>
                            <div style=""width:240px; margin: auto;"">
                                <img src=""images/gray_31.png"" style= ""width:200px""alt=""img"">
                            </div>
                        </div>","-131","","0","images/gray_31.png","","","","exciting"
