"success","timeout","failed_images","failed_audio","failed_video","trial_type","trial_index","time_elapsed","internal_node_id","subject_id","rt","stimulus","response","question_order","slider_start","image_path","practiceTrial","practiceTrialNum","correct","concept"
"true","false","[]","[]","[]","preload","0","1153","0.0-0.0","mhxcvlkw4m","","","","","","","","","",""
"","","","","","html-button-response","1","8534","0.0-1.0","mhxcvlkw4m","7379","Welcome to our experiment!<p>At the bottom of this screen, you will see a button that says ""Begin Experiment"".<br>Please only click that button when you are ready to complete the 25 minute experiment in one sitting.</p><p> Once you click that button, it will not be possible to restart the experiment.","0","","","","","","",""
"true","","","","","fullscreen","2","11451","0.0-2.0","mhxcvlkw4m","1914","","","","","","","","",""
"","","","","","survey-multi-select","3","77252","0.0-3.0","mhxcvlkw4m","65798","","{""Consent"":[""<strong>I consent</strong>""]}","[0]","","","","","",""
"","","","","","html-button-response","4","81538","0.0-4.0","mhxcvlkw4m","4283","Welcome! <p> This experiment involves two parts: demographic information, followed by the experimental task.<p> It will take about 25 minutes to complete both parts.","0","","","","","","",""
"","","","","","survey-text","5","98076","0.0-5.0","mhxcvlkw4m","16531","","{""Age"":""20"",""Gender"":""female"",""Race/ethnicity"":""white"",""Languages"":""english, spanish""}","","","","","","",""
"","","","","","html-slider-response","6","135512","0.0-6.0","mhxcvlkw4m","37434","
            <div style='text-align:left; font-size:20px; line-height:25px; width: 1200px;'>
                During this experiment you will be asked to rate how much you associate maps with    different concepts.<br> Below, you can see some examples of the maps you will be asked to rate. Next to the maps
    is the list of concepts.<br>You will be asked    to rate how much you associate each map with each concept on a scale from 'not at all' to 'very much' like the
    one below. <br><br>
    Now, please look at the list of concepts and maps. For each concept, think about the map you associate 'very
    much' with the concept.<br>     When you see that map during the experiment, please rate it near the 'very much' endpoint of the
    scale.<br>Now, please think about which map you associate 'not at all'     with each concept. When you see that map during the experiment, please rate it near the 'not at all' endpoint
    of the scale.<br>
    Please use the full range of the scale. That is, if a map is somewhat associated with the concept, you would
    click partway between the middle point and right side of the scale.    You will be asked to rate each map for a given concept before moving on to the next concept.<br><br>Press the
    'Continue' button for instructions on how to use the slider.    <br><br>
</div>

<div style=""width: 500px; margin: 0 auto;"">
    <div style=""text-align: left; width: 200px; float: left;"">
        <p style=""font-size:25px; line-height:18px;"">calm</p>
        <p style=""font-size:25px; line-height:18px;"">exciting</p>
        <p style=""font-size:25px;line-height:18px;"">positive</p>
        <p style=""font-size:25px;line-height:18px;"">negative</p>
        <p style=""font-size:25px;line-height:18px;"">serious</p>
        <p style=""font-size:25px;line-height:18px;"">playful</p>
        <p style=""font-size:25px;line-height:18px;"">trustworthy</p>
        <p style=""font-size:25px;line-height:18px;"">disturbing</p>
    </div>
    <div style=""width: 200px; float: right; padding-top:15px; padding-right:40px"">
        <br>
        <br>
        <img src=""maps_anchoring.png"" alt=""img"" style=""max-width:500px"">
    </div>
    <div style=""clear: both;""></div>
</div>
            ","null","","0","maps_anchoring.png","true","","",""
"","","","","","html-button-response","7","149539","0.0-7.0","mhxcvlkw4m","14025","<div style=""width:800px;""><p style=""text-align:left"">To move the slider, click and drag your cursor to the location of the scale where you would like to make your rating and then let go. When you let go of the slider, your response will be recorded and the next trial will begin. <br>
            We are interested in your initial impressions of each map for the given concept, so please go with your first intuition. <br>
            Before you begin the experiment, there will be four training trials for you to practice using the scale. <br>
             When you are ready to start the training trials, please click ""Continue"".</p><br></div>","0","","","","","","",""
"","","","","","html-slider-response","8","156237","0.0-8.0-0.0","mhxcvlkw4m","NaN","<div style=""width:500px;"">
                            <p style=""font-size:25px;"">Please move the slider all the way to the <br> right endpoint of the scale</p>

                            </div>
                        </div>","200","","0","","true","0","true",""
"","","","","","html-button-response","9","158134","0.0-8.0-1.0","mhxcvlkw4m","1393","<p align='center'><b>Good job!</b> Click on 'Continue' to proceed.</p>","0","","","","","","",""
"","","","","","html-slider-response","10","160322","0.0-9.0-0.0","mhxcvlkw4m","NaN","<div style=""width:500px;"">
                            <p style=""font-size:25px;"">Please move the slider all the way to the <br> left endpoint of the scale</p>

                            </div>
                        </div>","-200","","0","","true","1","true",""
"","","","","","html-button-response","11","161536","0.0-9.0-1.0","mhxcvlkw4m","711","<p align='center'><b>Good job!</b> Click on 'Continue' to proceed.</p>","0","","","","","","",""
"","","","","","html-slider-response","12","165306","0.0-10.0-0.0","mhxcvlkw4m","NaN","<div style=""width:500px;"">
                            <p style=""font-size:25px;"">Please move the slider halfway between the center and right endpoint of the scale</p>

                            </div>
                        </div>","108","","0","","true","2","true",""
"","","","","","html-button-response","13","166747","0.0-10.0-1.0","mhxcvlkw4m","938","<p align='center'><b>Good job!</b> Click on 'Continue' to proceed.</p>","0","","","","","","",""
"","","","","","html-slider-response","14","168619","0.0-11.0-0.0","mhxcvlkw4m","NaN","<div style=""width:500px;"">
                            <p style=""font-size:25px;"">Please move the slider halfway between the center and left endpoint of the scale</p>

                            </div>
                        </div>","-110","","0","","true","3","true",""
"","","","","","html-button-response","15","169987","0.0-11.0-1.0","mhxcvlkw4m","866","<p align='center'><b>Good job!</b> Click on 'Continue' to proceed.</p>","0","","","","","","",""
"","","","","","html-button-response","16","171757","0.0-12.0","mhxcvlkw4m","1769","<p>Great job! You've completed the practice trials. Now you will begin the main task.</p>","0","","","","","","",""
"","","","","","html-button-response","17","175434","0.0-13.0","mhxcvlkw4m","3676","<p>In this block of trials, you will be asked to rate how much you associate each map with:</p > <p style = 'font-size:150%; font-weight: bold'>positive</p><br></br>","0","","","","","","",""
"","","","","","html-slider-response","18","181664","0.0-14.0","mhxcvlkw4m","NaN","<div style=""width:500px;"">
                            <p style=""font-size:50px; font-weight:bold;""
                            >positive</p>
                            <div style=""width:240px; margin: auto;"">
                                <img src=""images/gray_42.png"" style= ""width:200px""alt=""img"">
                            </div>
                        </div>","47","","0","images/gray_42.png","","","","positive"
"","","","","","html-slider-response","19","190584","0.0-15.0","mhxcvlkw4m","NaN","<div style=""width:500px;"">
                            <p style=""font-size:50px; font-weight:bold;""
                            >positive</p>
                            <div style=""width:240px; margin: auto;"">
                                <img src=""images/gray_17.png"" style= ""width:200px""alt=""img"">
                            </div>
                        </div>","-45","","0","images/gray_17.png","","","","positive"
"","","","","","html-slider-response","20","193522","0.0-16.0","mhxcvlkw4m","NaN","<div style=""width:500px;"">
                            <p style=""font-size:50px; font-weight:bold;""
                            >positive</p>
                            <div style=""width:240px; margin: auto;"">
                                <img src=""images/gray_25.png"" style= ""width:200px""alt=""img"">
                            </div>
                        </div>","-76","","0","images/gray_25.png","","","","positive"
"","","","","","html-slider-response","21","198510","0.0-17.0","mhxcvlkw4m","NaN","<div style=""width:500px;"">
                            <p style=""font-size:50px; font-weight:bold;""
                            >positive</p>
                            <div style=""width:240px; margin: auto;"">
                                <img src=""images/gray_29.png"" style= ""width:200px""alt=""img"">
                            </div>
                        </div>","80","","0","images/gray_29.png","","","","positive"
"","","","","","html-slider-response","22","201582","0.0-18.0","mhxcvlkw4m","NaN","<div style=""width:500px;"">
                            <p style=""font-size:50px; font-weight:bold;""
                            >positive</p>
                            <div style=""width:240px; margin: auto;"">
                                <img src=""images/gray_12.png"" style= ""width:200px""alt=""img"">
                            </div>
                        </div>","27","","0","images/gray_12.png","","","","positive"
"","","","","","html-slider-response","23","204105","0.0-19.0","mhxcvlkw4m","NaN","<div style=""width:500px;"">
                            <p style=""font-size:50px; font-weight:bold;""
                            >positive</p>
                            <div style=""width:240px; margin: auto;"">
                                <img src=""images/gray_02.png"" style= ""width:200px""alt=""img"">
                            </div>
                        </div>","-36","","0","images/gray_02.png","","","","positive"
"","","","","","html-slider-response","24","207117","0.0-20.0","mhxcvlkw4m","NaN","<div style=""width:500px;"">
                            <p style=""font-size:50px; font-weight:bold;""
                            >positive</p>
                            <div style=""width:240px; margin: auto;"">
                                <img src=""images/gray_15.png"" style= ""width:200px""alt=""img"">
                            </div>
                        </div>","26","","0","images/gray_15.png","","","","positive"
"","","","","","html-slider-response","25","210503","0.0-21.0","mhxcvlkw4m","NaN","<div style=""width:500px;"">
                            <p style=""font-size:50px; font-weight:bold;""
                            >positive</p>
                            <div style=""width:240px; margin: auto;"">
                                <img src=""images/gray_31.png"" style= ""width:200px""alt=""img"">
                            </div>
                        </div>","53","","0","images/gray_31.png","","","","positive"
"","","","","","html-slider-response","26","213434","0.0-22.0","mhxcvlkw4m","NaN","<div style=""width:500px;"">
                            <p style=""font-size:50px; font-weight:bold;""
                            >positive</p>
                            <div style=""width:240px; margin: auto;"">
                                <img src=""images/gray_32.png"" style= ""width:200px""alt=""img"">
                            </div>
                        </div>","63","","0","images/gray_32.png","","","","positive"
"","","","","","html-slider-response","27","215925","0.0-23.0","mhxcvlkw4m","NaN","<div style=""width:500px;"">
                            <p style=""font-size:50px; font-weight:bold;""
                            >positive</p>
                            <div style=""width:240px; margin: auto;"">
                                <img src=""images/gray_19.png"" style= ""width:200px""alt=""img"">
                            </div>
                        </div>","97","","0","images/gray_19.png","","","","positive"
"","","","","","html-slider-response","28","218597","0.0-24.0","mhxcvlkw4m","NaN","<div style=""width:500px;"">
                            <p style=""font-size:50px; font-weight:bold;""
                            >positive</p>
                            <div style=""width:240px; margin: auto;"">
                                <img src=""images/gray_26.png"" style= ""width:200px""alt=""img"">
                            </div>
                        </div>","-46","","0","images/gray_26.png","","","","positive"
"","","","","","html-slider-response","29","221650","0.0-25.0","mhxcvlkw4m","NaN","<div style=""width:500px;"">
                            <p style=""font-size:50px; font-weight:bold;""
                            >positive</p>
                            <div style=""width:240px; margin: auto;"">
                                <img src=""images/gray_33.png"" style= ""width:200px""alt=""img"">
                            </div>
                        </div>","-62","","0","images/gray_33.png","","","","positive"
"","","","","","html-slider-response","30","224662","0.0-26.0","mhxcvlkw4m","NaN","<div style=""width:500px;"">
                            <p style=""font-size:50px; font-weight:bold;""
                            >positive</p>
                            <div style=""width:240px; margin: auto;"">
                                <img src=""images/gray_07.png"" style= ""width:200px""alt=""img"">
                            </div>
                        </div>","30","","0","images/gray_07.png","","","","positive"
"","","","","","html-slider-response","31","228640","0.0-27.0","mhxcvlkw4m","NaN","<div style=""width:500px;"">
                            <p style=""font-size:50px; font-weight:bold;""
                            >positive</p>
                            <div style=""width:240px; margin: auto;"">
                                <img src=""images/gray_20.png"" style= ""width:200px""alt=""img"">
                            </div>
                        </div>","-64","","0","images/gray_20.png","","","","positive"
"","","","","","html-slider-response","32","232068","0.0-28.0","mhxcvlkw4m","NaN","<div style=""width:500px;"">
                            <p style=""font-size:50px; font-weight:bold;""
                            >positive</p>
                            <div style=""width:240px; margin: auto;"">
                                <img src=""images/gray_14.png"" style= ""width:200px""alt=""img"">
                            </div>
                        </div>","54","","0","images/gray_14.png","","","","positive"
"","","","","","html-slider-response","33","236037","0.0-29.0","mhxcvlkw4m","NaN","<div style=""width:500px;"">
                            <p style=""font-size:50px; font-weight:bold;""
                            >positive</p>
                            <div style=""width:240px; margin: auto;"">
                                <img src=""images/gray_04.png"" style= ""width:200px""alt=""img"">
                            </div>
                        </div>","-54","","0","images/gray_04.png","","","","positive"
"","","","","","html-slider-response","34","238628","0.0-30.0","mhxcvlkw4m","NaN","<div style=""width:500px;"">
                            <p style=""font-size:50px; font-weight:bold;""
                            >positive</p>
                            <div style=""width:240px; margin: auto;"">
                                <img src=""images/gray_24.png"" style= ""width:200px""alt=""img"">
                            </div>
                        </div>","-81","","0","images/gray_24.png","","","","positive"
"","","","","","html-slider-response","35","241541","0.0-31.0","mhxcvlkw4m","NaN","<div style=""width:500px;"">
                            <p style=""font-size:50px; font-weight:bold;""
                            >positive</p>
                            <div style=""width:240px; margin: auto;"">
                                <img src=""images/gray_35.png"" style= ""width:200px""alt=""img"">
                            </div>
                        </div>","53","","0","images/gray_35.png","","","","positive"
"","","","","","html-slider-response","36","243761","0.0-32.0","mhxcvlkw4m","NaN","<div style=""width:500px;"">
                            <p style=""font-size:50px; font-weight:bold;""
                            >positive</p>
                            <div style=""width:240px; margin: auto;"">
                                <img src=""images/gray_11.png"" style= ""width:200px""alt=""img"">
                            </div>
                        </div>","-73","","0","images/gray_11.png","","","","positive"
"","","","","","html-slider-response","37","246333","0.0-33.0","mhxcvlkw4m","NaN","<div style=""width:500px;"">
                            <p style=""font-size:50px; font-weight:bold;""
                            >positive</p>
                            <div style=""width:240px; margin: auto;"">
                                <img src=""images/gray_10.png"" style= ""width:200px""alt=""img"">
                            </div>
                        </div>","-93","","0","images/gray_10.png","","","","positive"
"","","","","","html-slider-response","38","248605","0.0-34.0","mhxcvlkw4m","NaN","<div style=""width:500px;"">
                            <p style=""font-size:50px; font-weight:bold;""
                            >positive</p>
                            <div style=""width:240px; margin: auto;"">
                                <img src=""images/gray_06.png"" style= ""width:200px""alt=""img"">
                            </div>
                        </div>","-108","","0","images/gray_06.png","","","","positive"
"","","","","","html-slider-response","39","251187","0.0-35.0","mhxcvlkw4m","NaN","<div style=""width:500px;"">
                            <p style=""font-size:50px; font-weight:bold;""
                            >positive</p>
                            <div style=""width:240px; margin: auto;"">
                                <img src=""images/gray_28.png"" style= ""width:200px""alt=""img"">
                            </div>
                        </div>","-116","","0","images/gray_28.png","","","","positive"
"","","","","","html-slider-response","40","253528","0.0-36.0","mhxcvlkw4m","NaN","<div style=""width:500px;"">
                            <p style=""font-size:50px; font-weight:bold;""
                            >positive</p>
                            <div style=""width:240px; margin: auto;"">
                                <img src=""images/gray_03.png"" style= ""width:200px""alt=""img"">
                            </div>
                        </div>","-90","","0","images/gray_03.png","","","","positive"
"","","","","","html-slider-response","41","256319","0.0-37.0","mhxcvlkw4m","NaN","<div style=""width:500px;"">
                            <p style=""font-size:50px; font-weight:bold;""
                            >positive</p>
                            <div style=""width:240px; margin: auto;"">
                                <img src=""images/gray_30.png"" style= ""width:200px""alt=""img"">
                            </div>
                        </div>","-129","","0","images/gray_30.png","","","","positive"
"","","","","","html-slider-response","42","259128","0.0-38.0","mhxcvlkw4m","NaN","<div style=""width:500px;"">
                            <p style=""font-size:50px; font-weight:bold;""
                            >positive</p>
                            <div style=""width:240px; margin: auto;"">
                                <img src=""images/gray_36.png"" style= ""width:200px""alt=""img"">
                            </div>
                        </div>","-174","","0","images/gray_36.png","","","","positive"
"","","","","","html-slider-response","43","262457","0.0-39.0","mhxcvlkw4m","NaN","<div style=""width:500px;"">
                            <p style=""font-size:50px; font-weight:bold;""
                            >positive</p>
                            <div style=""width:240px; margin: auto;"">
                                <img src=""images/gray_40.png"" style= ""width:200px""alt=""img"">
                            </div>
                        </div>","37","","0","images/gray_40.png","","","","positive"
"","","","","","html-slider-response","44","265290","0.0-40.0","mhxcvlkw4m","NaN","<div style=""width:500px;"">
                            <p style=""font-size:50px; font-weight:bold;""
                            >positive</p>
                            <div style=""width:240px; margin: auto;"">
                                <img src=""images/gray_34.png"" style= ""width:200px""alt=""img"">
                            </div>
                        </div>","-89","","0","images/gray_34.png","","","","positive"
"","","","","","html-slider-response","45","269107","0.0-41.0","mhxcvlkw4m","NaN","<div style=""width:500px;"">
                            <p style=""font-size:50px; font-weight:bold;""
                            >positive</p>
                            <div style=""width:240px; margin: auto;"">
                                <img src=""images/gray_39.png"" style= ""width:200px""alt=""img"">
                            </div>
                        </div>","107","","0","images/gray_39.png","","","","positive"
"","","","","","html-slider-response","46","272020","0.0-42.0","mhxcvlkw4m","NaN","<div style=""width:500px;"">
                            <p style=""font-size:50px; font-weight:bold;""
                            >positive</p>
                            <div style=""width:240px; margin: auto;"">
                                <img src=""images/gray_13.png"" style= ""width:200px""alt=""img"">
                            </div>
                        </div>","-58","","0","images/gray_13.png","","","","positive"
"","","","","","html-slider-response","47","274198","0.0-43.0","mhxcvlkw4m","NaN","<div style=""width:500px;"">
                            <p style=""font-size:50px; font-weight:bold;""
                            >positive</p>
                            <div style=""width:240px; margin: auto;"">
                                <img src=""images/gray_05.png"" style= ""width:200px""alt=""img"">
                            </div>
                        </div>","62","","0","images/gray_05.png","","","","positive"
"","","","","","html-slider-response","48","279340","0.0-44.0","mhxcvlkw4m","NaN","<div style=""width:500px;"">
                            <p style=""font-size:50px; font-weight:bold;""
                            >positive</p>
                            <div style=""width:240px; margin: auto;"">
                                <img src=""images/gray_08.png"" style= ""width:200px""alt=""img"">
                            </div>
                        </div>","-150","","0","images/gray_08.png","","","","positive"
"","","","","","html-slider-response","49","283360","0.0-45.0","mhxcvlkw4m","NaN","<div style=""width:500px;"">
                            <p style=""font-size:50px; font-weight:bold;""
                            >positive</p>
                            <div style=""width:240px; margin: auto;"">
                                <img src=""images/gray_09.png"" style= ""width:200px""alt=""img"">
                            </div>
                        </div>","-30","","0","images/gray_09.png","","","","positive"
"","","","","","html-slider-response","50","289328","0.0-46.0","mhxcvlkw4m","NaN","<div style=""width:500px;"">
                            <p style=""font-size:50px; font-weight:bold;""
                            >positive</p>
                            <div style=""width:240px; margin: auto;"">
                                <img src=""images/gray_23.png"" style= ""width:200px""alt=""img"">
                            </div>
                        </div>","-114","","0","images/gray_23.png","","","","positive"
"","","","","","html-slider-response","51","291803","0.0-47.0","mhxcvlkw4m","NaN","<div style=""width:500px;"">
                            <p style=""font-size:50px; font-weight:bold;""
                            >positive</p>
                            <div style=""width:240px; margin: auto;"">
                                <img src=""images/gray_16.png"" style= ""width:200px""alt=""img"">
                            </div>
                        </div>","-122","","0","images/gray_16.png","","","","positive"
"","","","","","html-slider-response","52","294319","0.0-48.0","mhxcvlkw4m","NaN","<div style=""width:500px;"">
                            <p style=""font-size:50px; font-weight:bold;""
                            >positive</p>
                            <div style=""width:240px; margin: auto;"">
                                <img src=""images/gray_44.png"" style= ""width:200px""alt=""img"">
                            </div>
                        </div>","-122","","0","images/gray_44.png","","","","positive"
"","","","","","html-slider-response","53","297088","0.0-49.0","mhxcvlkw4m","NaN","<div style=""width:500px;"">
                            <p style=""font-size:50px; font-weight:bold;""
                            >positive</p>
                            <div style=""width:240px; margin: auto;"">
                                <img src=""images/gray_41.png"" style= ""width:200px""alt=""img"">
                            </div>
                        </div>","-78","","0","images/gray_41.png","","","","positive"
"","","","","","html-slider-response","54","299444","0.0-50.0","mhxcvlkw4m","NaN","<div style=""width:500px;"">
                            <p style=""font-size:50px; font-weight:bold;""
                            >positive</p>
                            <div style=""width:240px; margin: auto;"">
                                <img src=""images/gray_37.png"" style= ""width:200px""alt=""img"">
                            </div>
                        </div>","26","","0","images/gray_37.png","","","","positive"
"","","","","","html-slider-response","55","303340","0.0-51.0","mhxcvlkw4m","NaN","<div style=""width:500px;"">
                            <p style=""font-size:50px; font-weight:bold;""
                            >positive</p>
                            <div style=""width:240px; margin: auto;"">
                                <img src=""images/gray_38.png"" style= ""width:200px""alt=""img"">
                            </div>
                        </div>","-20","","0","images/gray_38.png","","","","positive"
"","","","","","html-slider-response","56","306719","0.0-52.0","mhxcvlkw4m","NaN","<div style=""width:500px;"">
                            <p style=""font-size:50px; font-weight:bold;""
                            >positive</p>
                            <div style=""width:240px; margin: auto;"">
                                <img src=""images/gray_01.png"" style= ""width:200px""alt=""img"">
                            </div>
                        </div>","-7","","0","images/gray_01.png","","","","positive"
"","","","","","html-slider-response","57","309446","0.0-53.0","mhxcvlkw4m","NaN","<div style=""width:500px;"">
                            <p style=""font-size:50px; font-weight:bold;""
                            >positive</p>
                            <div style=""width:240px; margin: auto;"">
                                <img src=""images/gray_22.png"" style= ""width:200px""alt=""img"">
                            </div>
                        </div>","28","","0","images/gray_22.png","","","","positive"
"","","","","","html-slider-response","58","312003","0.0-54.0","mhxcvlkw4m","NaN","<div style=""width:500px;"">
                            <p style=""font-size:50px; font-weight:bold;""
                            >positive</p>
                            <div style=""width:240px; margin: auto;"">
                                <img src=""images/gray_43.png"" style= ""width:200px""alt=""img"">
                            </div>
                        </div>","9","","0","images/gray_43.png","","","","positive"
"","","","","","html-slider-response","59","314099","0.0-55.0","mhxcvlkw4m","NaN","<div style=""width:500px;"">
                            <p style=""font-size:50px; font-weight:bold;""
                            >positive</p>
                            <div style=""width:240px; margin: auto;"">
                                <img src=""images/gray_18.png"" style= ""width:200px""alt=""img"">
                            </div>
                        </div>","27","","0","images/gray_18.png","","","","positive"
"","","","","","html-slider-response","60","316048","0.0-56.0","mhxcvlkw4m","NaN","<div style=""width:500px;"">
                            <p style=""font-size:50px; font-weight:bold;""
                            >positive</p>
                            <div style=""width:240px; margin: auto;"">
                                <img src=""images/gray_27.png"" style= ""width:200px""alt=""img"">
                            </div>
                        </div>","-66","","0","images/gray_27.png","","","","positive"
"","","","","","html-slider-response","61","319050","0.0-57.0","mhxcvlkw4m","NaN","<div style=""width:500px;"">
                            <p style=""font-size:50px; font-weight:bold;""
                            >positive</p>
                            <div style=""width:240px; margin: auto;"">
                                <img src=""images/gray_21.png"" style= ""width:200px""alt=""img"">
                            </div>
                        </div>","-159","","0","images/gray_21.png","","","","positive"
"","","","","","html-button-response","62","323099","0.0-58.0","mhxcvlkw4m","3547","<p>Great Job! You've finished block 1.<br></br> You have 7 block(s) left to go.<br></br></p>","0","","","","","","",""
"","","","","","html-button-response","63","324349","0.0-59.0","mhxcvlkw4m","1249","<p>In this block of trials, you will be asked to rate how much you associate each map with:</p > <p style = 'font-size:150%; font-weight: bold'>disturbing</p><br></br>","0","","","","","","",""
"","","","","","html-slider-response","64","327982","0.0-60.0","mhxcvlkw4m","NaN","<div style=""width:500px;"">
                            <p style=""font-size:50px; font-weight:bold;""
                            >disturbing</p>
                            <div style=""width:240px; margin: auto;"">
                                <img src=""images/gray_10.png"" style= ""width:200px""alt=""img"">
                            </div>
                        </div>","63","","0","images/gray_10.png","","","","disturbing"
"","","","","","html-slider-response","65","330586","0.0-61.0","mhxcvlkw4m","NaN","<div style=""width:500px;"">
                            <p style=""font-size:50px; font-weight:bold;""
                            >disturbing</p>
                            <div style=""width:240px; margin: auto;"">
                                <img src=""images/gray_12.png"" style= ""width:200px""alt=""img"">
                            </div>
                        </div>","103","","0","images/gray_12.png","","","","disturbing"
"","","","","","html-slider-response","66","333956","0.0-62.0","mhxcvlkw4m","NaN","<div style=""width:500px;"">
                            <p style=""font-size:50px; font-weight:bold;""
                            >disturbing</p>
                            <div style=""width:240px; margin: auto;"">
                                <img src=""images/gray_34.png"" style= ""width:200px""alt=""img"">
                            </div>
                        </div>","-10","","0","images/gray_34.png","","","","disturbing"
"","","","","","html-slider-response","67","336213","0.0-63.0","mhxcvlkw4m","NaN","<div style=""width:500px;"">
                            <p style=""font-size:50px; font-weight:bold;""
                            >disturbing</p>
                            <div style=""width:240px; margin: auto;"">
                                <img src=""images/gray_23.png"" style= ""width:200px""alt=""img"">
                            </div>
                        </div>","109","","0","images/gray_23.png","","","","disturbing"
"","","","","","html-slider-response","68","338884","0.0-64.0","mhxcvlkw4m","NaN","<div style=""width:500px;"">
                            <p style=""font-size:50px; font-weight:bold;""
                            >disturbing</p>
                            <div style=""width:240px; margin: auto;"">
                                <img src=""images/gray_25.png"" style= ""width:200px""alt=""img"">
                            </div>
                        </div>","11","","0","images/gray_25.png","","","","disturbing"
"","","","","","html-slider-response","69","342044","0.0-65.0","mhxcvlkw4m","NaN","<div style=""width:500px;"">
                            <p style=""font-size:50px; font-weight:bold;""
                            >disturbing</p>
                            <div style=""width:240px; margin: auto;"">
                                <img src=""images/gray_15.png"" style= ""width:200px""alt=""img"">
                            </div>
                        </div>","-14","","0","images/gray_15.png","","","","disturbing"
"","","","","","html-slider-response","70","344851","0.0-66.0","mhxcvlkw4m","NaN","<div style=""width:500px;"">
                            <p style=""font-size:50px; font-weight:bold;""
                            >disturbing</p>
                            <div style=""width:240px; margin: auto;"">
                                <img src=""images/gray_36.png"" style= ""width:200px""alt=""img"">
                            </div>
                        </div>","-69","","0","images/gray_36.png","","","","disturbing"
"","","","","","html-slider-response","71","347815","0.0-67.0","mhxcvlkw4m","NaN","<div style=""width:500px;"">
                            <p style=""font-size:50px; font-weight:bold;""
                            >disturbing</p>
                            <div style=""width:240px; margin: auto;"">
                                <img src=""images/gray_39.png"" style= ""width:200px""alt=""img"">
                            </div>
                        </div>","-83","","0","images/gray_39.png","","","","disturbing"
"","","","","","html-slider-response","72","350015","0.0-68.0","mhxcvlkw4m","NaN","<div style=""width:500px;"">
                            <p style=""font-size:50px; font-weight:bold;""
                            >disturbing</p>
                            <div style=""width:240px; margin: auto;"">
                                <img src=""images/gray_29.png"" style= ""width:200px""alt=""img"">
                            </div>
                        </div>","40","","0","images/gray_29.png","","","","disturbing"
"","","","","","html-slider-response","73","352094","0.0-69.0","mhxcvlkw4m","NaN","<div style=""width:500px;"">
                            <p style=""font-size:50px; font-weight:bold;""
                            >disturbing</p>
                            <div style=""width:240px; margin: auto;"">
                                <img src=""images/gray_06.png"" style= ""width:200px""alt=""img"">
                            </div>
                        </div>","90","","0","images/gray_06.png","","","","disturbing"
"","","","","","html-slider-response","74","354270","0.0-70.0","mhxcvlkw4m","NaN","<div style=""width:500px;"">
                            <p style=""font-size:50px; font-weight:bold;""
                            >disturbing</p>
                            <div style=""width:240px; margin: auto;"">
                                <img src=""images/gray_38.png"" style= ""width:200px""alt=""img"">
                            </div>
                        </div>","10","","0","images/gray_38.png","","","","disturbing"
"","","","","","html-slider-response","75","356405","0.0-71.0","mhxcvlkw4m","NaN","<div style=""width:500px;"">
                            <p style=""font-size:50px; font-weight:bold;""
                            >disturbing</p>
                            <div style=""width:240px; margin: auto;"">
                                <img src=""images/gray_02.png"" style= ""width:200px""alt=""img"">
                            </div>
                        </div>","65","","0","images/gray_02.png","","","","disturbing"
"","","","","","html-slider-response","76","359271","0.0-72.0","mhxcvlkw4m","NaN","<div style=""width:500px;"">
                            <p style=""font-size:50px; font-weight:bold;""
                            >disturbing</p>
                            <div style=""width:240px; margin: auto;"">
                                <img src=""images/gray_21.png"" style= ""width:200px""alt=""img"">
                            </div>
                        </div>","110","","0","images/gray_21.png","","","","disturbing"
"","","","","","html-slider-response","77","364175","0.0-73.0","mhxcvlkw4m","NaN","<div style=""width:500px;"">
                            <p style=""font-size:50px; font-weight:bold;""
                            >disturbing</p>
                            <div style=""width:240px; margin: auto;"">
                                <img src=""images/gray_11.png"" style= ""width:200px""alt=""img"">
                            </div>
                        </div>","17","","0","images/gray_11.png","","","","disturbing"
"","","","","","html-slider-response","78","366092","0.0-74.0","mhxcvlkw4m","NaN","<div style=""width:500px;"">
                            <p style=""font-size:50px; font-weight:bold;""
                            >disturbing</p>
                            <div style=""width:240px; margin: auto;"">
                                <img src=""images/gray_44.png"" style= ""width:200px""alt=""img"">
                            </div>
                        </div>","14","","0","images/gray_44.png","","","","disturbing"
"","","","","","html-slider-response","79","368293","0.0-75.0","mhxcvlkw4m","NaN","<div style=""width:500px;"">
                            <p style=""font-size:50px; font-weight:bold;""
                            >disturbing</p>
                            <div style=""width:240px; margin: auto;"">
                                <img src=""images/gray_17.png"" style= ""width:200px""alt=""img"">
                            </div>
                        </div>","-46","","0","images/gray_17.png","","","","disturbing"
"","","","","","html-slider-response","80","373443","0.0-76.0","mhxcvlkw4m","NaN","<div style=""width:500px;"">
                            <p style=""font-size:50px; font-weight:bold;""
                            >disturbing</p>
                            <div style=""width:240px; margin: auto;"">
                                <img src=""images/gray_33.png"" style= ""width:200px""alt=""img"">
                            </div>
                        </div>","-10","","0","images/gray_33.png","","","","disturbing"
"","","","","","html-slider-response","81","375860","0.0-77.0","mhxcvlkw4m","NaN","<div style=""width:500px;"">
                            <p style=""font-size:50px; font-weight:bold;""
                            >disturbing</p>
                            <div style=""width:240px; margin: auto;"">
                                <img src=""images/gray_42.png"" style= ""width:200px""alt=""img"">
                            </div>
                        </div>","49","","0","images/gray_42.png","","","","disturbing"
"","","","","","html-slider-response","82","377938","0.0-78.0","mhxcvlkw4m","NaN","<div style=""width:500px;"">
                            <p style=""font-size:50px; font-weight:bold;""
                            >disturbing</p>
                            <div style=""width:240px; margin: auto;"">
                                <img src=""images/gray_09.png"" style= ""width:200px""alt=""img"">
                            </div>
                        </div>","46","","0","images/gray_09.png","","","","disturbing"
"","","","","","html-slider-response","83","380114","0.0-79.0","mhxcvlkw4m","NaN","<div style=""width:500px;"">
                            <p style=""font-size:50px; font-weight:bold;""
                            >disturbing</p>
                            <div style=""width:240px; margin: auto;"">
                                <img src=""images/gray_40.png"" style= ""width:200px""alt=""img"">
                            </div>
                        </div>","101","","0","images/gray_40.png","","","","disturbing"
"","","","","","html-slider-response","84","382589","0.0-80.0","mhxcvlkw4m","NaN","<div style=""width:500px;"">
                            <p style=""font-size:50px; font-weight:bold;""
                            >disturbing</p>
                            <div style=""width:240px; margin: auto;"">
                                <img src=""images/gray_03.png"" style= ""width:200px""alt=""img"">
                            </div>
                        </div>","147","","0","images/gray_03.png","","","","disturbing"
"","","","","","html-slider-response","85","385440","0.0-81.0","mhxcvlkw4m","NaN","<div style=""width:500px;"">
                            <p style=""font-size:50px; font-weight:bold;""
                            >disturbing</p>
                            <div style=""width:240px; margin: auto;"">
                                <img src=""images/gray_19.png"" style= ""width:200px""alt=""img"">
                            </div>
                        </div>","25","","0","images/gray_19.png","","","","disturbing"
"","","","","","html-slider-response","86","387657","0.0-82.0","mhxcvlkw4m","NaN","<div style=""width:500px;"">
                            <p style=""font-size:50px; font-weight:bold;""
                            >disturbing</p>
                            <div style=""width:240px; margin: auto;"">
                                <img src=""images/gray_30.png"" style= ""width:200px""alt=""img"">
                            </div>
                        </div>","-22","","0","images/gray_30.png","","","","disturbing"
"","","","","","html-slider-response","87","389954","0.0-83.0","mhxcvlkw4m","NaN","<div style=""width:500px;"">
                            <p style=""font-size:50px; font-weight:bold;""
                            >disturbing</p>
                            <div style=""width:240px; margin: auto;"">
                                <img src=""images/gray_16.png"" style= ""width:200px""alt=""img"">
                            </div>
                        </div>","-54","","0","images/gray_16.png","","","","disturbing"
"","","","","","html-slider-response","88","392024","0.0-84.0","mhxcvlkw4m","NaN","<div style=""width:500px;"">
                            <p style=""font-size:50px; font-weight:bold;""
                            >disturbing</p>
                            <div style=""width:240px; margin: auto;"">
                                <img src=""images/gray_24.png"" style= ""width:200px""alt=""img"">
                            </div>
                        </div>","0","","0","images/gray_24.png","","","","disturbing"
"","","","","","html-slider-response","89","397912","0.0-85.0","mhxcvlkw4m","NaN","<div style=""width:500px;"">
                            <p style=""font-size:50px; font-weight:bold;""
                            >disturbing</p>
                            <div style=""width:240px; margin: auto;"">
                                <img src=""images/gray_43.png"" style= ""width:200px""alt=""img"">
                            </div>
                        </div>","-25","","0","images/gray_43.png","","","","disturbing"
"","","","","","html-slider-response","90","400364","0.0-86.0","mhxcvlkw4m","NaN","<div style=""width:500px;"">
                            <p style=""font-size:50px; font-weight:bold;""
                            >disturbing</p>
                            <div style=""width:240px; margin: auto;"">
                                <img src=""images/gray_22.png"" style= ""width:200px""alt=""img"">
                            </div>
                        </div>","-74","","0","images/gray_22.png","","","","disturbing"
"","","","","","html-slider-response","91","404567","0.0-87.0","mhxcvlkw4m","NaN","<div style=""width:500px;"">
                            <p style=""font-size:50px; font-weight:bold;""
                            >disturbing</p>
                            <div style=""width:240px; margin: auto;"">
                                <img src=""images/gray_01.png"" style= ""width:200px""alt=""img"">
                            </div>
                        </div>","-66","","0","images/gray_01.png","","","","disturbing"
"","","","","","html-slider-response","92","407466","0.0-88.0","mhxcvlkw4m","NaN","<div style=""width:500px;"">
                            <p style=""font-size:50px; font-weight:bold;""
                            >disturbing</p>
                            <div style=""width:240px; margin: auto;"">
                                <img src=""images/gray_37.png"" style= ""width:200px""alt=""img"">
                            </div>
                        </div>","74","","0","images/gray_37.png","","","","disturbing"
"","","","","","html-slider-response","93","409716","0.0-89.0","mhxcvlkw4m","NaN","<div style=""width:500px;"">
                            <p style=""font-size:50px; font-weight:bold;""
                            >disturbing</p>
                            <div style=""width:240px; margin: auto;"">
                                <img src=""images/gray_35.png"" style= ""width:200px""alt=""img"">
                            </div>
                        </div>","27","","0","images/gray_35.png","","","","disturbing"
"","","","","","html-slider-response","94","411795","0.0-90.0","mhxcvlkw4m","NaN","<div style=""width:500px;"">
                            <p style=""font-size:50px; font-weight:bold;""
                            >disturbing</p>
                            <div style=""width:240px; margin: auto;"">
                                <img src=""images/gray_20.png"" style= ""width:200px""alt=""img"">
                            </div>
                        </div>","-62","","0","images/gray_20.png","","","","disturbing"
"","","","","","html-slider-response","95","414012","0.0-91.0","mhxcvlkw4m","NaN","<div style=""width:500px;"">
                            <p style=""font-size:50px; font-weight:bold;""
                            >disturbing</p>
                            <div style=""width:240px; margin: auto;"">
                                <img src=""images/gray_18.png"" style= ""width:200px""alt=""img"">
                            </div>
                        </div>","-78","","0","images/gray_18.png","","","","disturbing"
"","","","","","html-slider-response","96","417196","0.0-92.0","mhxcvlkw4m","NaN","<div style=""width:500px;"">
                            <p style=""font-size:50px; font-weight:bold;""
                            >disturbing</p>
                            <div style=""width:240px; margin: auto;"">
                                <img src=""images/gray_04.png"" style= ""width:200px""alt=""img"">
                            </div>
                        </div>","-48","","0","images/gray_04.png","","","","disturbing"
"","","","","","html-slider-response","97","419718","0.0-93.0","mhxcvlkw4m","NaN","<div style=""width:500px;"">
                            <p style=""font-size:50px; font-weight:bold;""
                            >disturbing</p>
                            <div style=""width:240px; margin: auto;"">
                                <img src=""images/gray_13.png"" style= ""width:200px""alt=""img"">
                            </div>
                        </div>","-98","","0","images/gray_13.png","","","","disturbing"
"","","","","","html-slider-response","98","422519","0.0-94.0","mhxcvlkw4m","NaN","<div style=""width:500px;"">
                            <p style=""font-size:50px; font-weight:bold;""
                            >disturbing</p>
                            <div style=""width:240px; margin: auto;"">
                                <img src=""images/gray_07.png"" style= ""width:200px""alt=""img"">
                            </div>
                        </div>","20","","0","images/gray_07.png","","","","disturbing"
"","","","","","html-slider-response","99","424559","0.0-95.0","mhxcvlkw4m","NaN","<div style=""width:500px;"">
                            <p style=""font-size:50px; font-weight:bold;""
                            >disturbing</p>
                            <div style=""width:240px; margin: auto;"">
                                <img src=""images/gray_28.png"" style= ""width:200px""alt=""img"">
                            </div>
                        </div>","98","","0","images/gray_28.png","","","","disturbing"
"","","","","","html-slider-response","100","427943","0.0-96.0","mhxcvlkw4m","NaN","<div style=""width:500px;"">
                            <p style=""font-size:50px; font-weight:bold;""
                            >disturbing</p>
                            <div style=""width:240px; margin: auto;"">
                                <img src=""images/gray_31.png"" style= ""width:200px""alt=""img"">
                            </div>
                        </div>","13","","0","images/gray_31.png","","","","disturbing"
"","","","","","html-slider-response","101","429941","0.0-97.0","mhxcvlkw4m","NaN","<div style=""width:500px;"">
                            <p style=""font-size:50px; font-weight:bold;""
                            >disturbing</p>
                            <div style=""width:240px; margin: auto;"">
                                <img src=""images/gray_05.png"" style= ""width:200px""alt=""img"">
                            </div>
                        </div>","25","","0","images/gray_05.png","","","","disturbing"
"","","","","","html-slider-response","102","431840","0.0-98.0","mhxcvlkw4m","NaN","<div style=""width:500px;"">
                            <p style=""font-size:50px; font-weight:bold;""
                            >disturbing</p>
                            <div style=""width:240px; margin: auto;"">
                                <img src=""images/gray_41.png"" style= ""width:200px""alt=""img"">
                            </div>
                        </div>","-43","","0","images/gray_41.png","","","","disturbing"
"","","","","","html-slider-response","103","433982","0.0-99.0","mhxcvlkw4m","NaN","<div style=""width:500px;"">
                            <p style=""font-size:50px; font-weight:bold;""
                            >disturbing</p>
                            <div style=""width:240px; margin: auto;"">
                                <img src=""images/gray_14.png"" style= ""width:200px""alt=""img"">
                            </div>
                        </div>","86","","0","images/gray_14.png","","","","disturbing"
"","","","","","html-slider-response","104","435860","0.0-100.0","mhxcvlkw4m","NaN","<div style=""width:500px;"">
                            <p style=""font-size:50px; font-weight:bold;""
                            >disturbing</p>
                            <div style=""width:240px; margin: auto;"">
                                <img src=""images/gray_08.png"" style= ""width:200px""alt=""img"">
                            </div>
                        </div>","38","","0","images/gray_08.png","","","","disturbing"
"","","","","","html-slider-response","105","437856","0.0-101.0","mhxcvlkw4m","NaN","<div style=""width:500px;"">
                            <p style=""font-size:50px; font-weight:bold;""
                            >disturbing</p>
                            <div style=""width:240px; margin: auto;"">
                                <img src=""images/gray_32.png"" style= ""width:200px""alt=""img"">
                            </div>
                        </div>","18","","0","images/gray_32.png","","","","disturbing"
"","","","","","html-slider-response","106","439878","0.0-102.0","mhxcvlkw4m","NaN","<div style=""width:500px;"">
                            <p style=""font-size:50px; font-weight:bold;""
                            >disturbing</p>
                            <div style=""width:240px; margin: auto;"">
                                <img src=""images/gray_26.png"" style= ""width:200px""alt=""img"">
                            </div>
                        </div>","18","","0","images/gray_26.png","","","","disturbing"
"","","","","","html-slider-response","107","441590","0.0-103.0","mhxcvlkw4m","NaN","<div style=""width:500px;"">
                            <p style=""font-size:50px; font-weight:bold;""
                            >disturbing</p>
                            <div style=""width:240px; margin: auto;"">
                                <img src=""images/gray_27.png"" style= ""width:200px""alt=""img"">
                            </div>
                        </div>","3","","0","images/gray_27.png","","","","disturbing"
"","","","","","html-button-response","108","443415","0.0-104.0","mhxcvlkw4m","1321","<p>Great Job! You've finished block 2.<br></br> You have 6 block(s) left to go.<br></br></p>","0","","","","","","",""
"","","","","","html-button-response","109","445274","0.0-105.0","mhxcvlkw4m","1858","<p>In this block of trials, you will be asked to rate how much you associate each map with:</p > <p style = 'font-size:150%; font-weight: bold'>playful</p><br></br>","0","","","","","","",""
"","","","","","html-slider-response","110","451278","0.0-106.0","mhxcvlkw4m","NaN","<div style=""width:500px;"">
                            <p style=""font-size:50px; font-weight:bold;""
                            >playful</p>
                            <div style=""width:240px; margin: auto;"">
                                <img src=""images/gray_43.png"" style= ""width:200px""alt=""img"">
                            </div>
                        </div>","-150","","0","images/gray_43.png","","","","playful"
"","","","","","html-slider-response","111","453738","0.0-107.0","mhxcvlkw4m","NaN","<div style=""width:500px;"">
                            <p style=""font-size:50px; font-weight:bold;""
                            >playful</p>
                            <div style=""width:240px; margin: auto;"">
                                <img src=""images/gray_10.png"" style= ""width:200px""alt=""img"">
                            </div>
                        </div>","-200","","0","images/gray_10.png","","","","playful"
"","","","","","html-slider-response","112","456777","0.0-108.0","mhxcvlkw4m","NaN","<div style=""width:500px;"">
                            <p style=""font-size:50px; font-weight:bold;""
                            >playful</p>
                            <div style=""width:240px; margin: auto;"">
                                <img src=""images/gray_02.png"" style= ""width:200px""alt=""img"">
                            </div>
                        </div>","-200","","0","images/gray_02.png","","","","playful"
"","","","","","html-slider-response","113","458902","0.0-109.0","mhxcvlkw4m","NaN","<div style=""width:500px;"">
                            <p style=""font-size:50px; font-weight:bold;""
                            >playful</p>
                            <div style=""width:240px; margin: auto;"">
                                <img src=""images/gray_31.png"" style= ""width:200px""alt=""img"">
                            </div>
                        </div>","33","","0","images/gray_31.png","","","","playful"
"","","","","","html-slider-response","114","461055","0.0-110.0","mhxcvlkw4m","NaN","<div style=""width:500px;"">
                            <p style=""font-size:50px; font-weight:bold;""
                            >playful</p>
                            <div style=""width:240px; margin: auto;"">
                                <img src=""images/gray_44.png"" style= ""width:200px""alt=""img"">
                            </div>
                        </div>","-200","","0","images/gray_44.png","","","","playful"
"","","","","","html-slider-response","115","463839","0.0-111.0","mhxcvlkw4m","NaN","<div style=""width:500px;"">
                            <p style=""font-size:50px; font-weight:bold;""
                            >playful</p>
                            <div style=""width:240px; margin: auto;"">
                                <img src=""images/gray_37.png"" style= ""width:200px""alt=""img"">
                            </div>
                        </div>","-146","","0","images/gray_37.png","","","","playful"
"","","","","","html-slider-response","116","466567","0.0-112.0","mhxcvlkw4m","NaN","<div style=""width:500px;"">
                            <p style=""font-size:50px; font-weight:bold;""
                            >playful</p>
                            <div style=""width:240px; margin: auto;"">
                                <img src=""images/gray_36.png"" style= ""width:200px""alt=""img"">
                            </div>
                        </div>","35","","0","images/gray_36.png","","","","playful"
"","","","","","html-slider-response","117","468589","0.0-113.0","mhxcvlkw4m","NaN","<div style=""width:500px;"">
                            <p style=""font-size:50px; font-weight:bold;""
                            >playful</p>
                            <div style=""width:240px; margin: auto;"">
                                <img src=""images/gray_16.png"" style= ""width:200px""alt=""img"">
                            </div>
                        </div>","-200","","0","images/gray_16.png","","","","playful"
"","","","","","html-slider-response","118","471967","0.0-114.0","mhxcvlkw4m","NaN","<div style=""width:500px;"">
                            <p style=""font-size:50px; font-weight:bold;""
                            >playful</p>
                            <div style=""width:240px; margin: auto;"">
                                <img src=""images/gray_06.png"" style= ""width:200px""alt=""img"">
                            </div>
                        </div>","-182","","0","images/gray_06.png","","","","playful"
"","","","","","html-slider-response","119","484777","0.0-115.0","mhxcvlkw4m","NaN","<div style=""width:500px;"">
                            <p style=""font-size:50px; font-weight:bold;""
                            >playful</p>
                            <div style=""width:240px; margin: auto;"">
                                <img src=""images/gray_42.png"" style= ""width:200px""alt=""img"">
                            </div>
                        </div>","-200","","0","images/gray_42.png","","","","playful"
"","","","","","html-slider-response","120","486953","0.0-116.0","mhxcvlkw4m","NaN","<div style=""width:500px;"">
                            <p style=""font-size:50px; font-weight:bold;""
                            >playful</p>
                            <div style=""width:240px; margin: auto;"">
                                <img src=""images/gray_27.png"" style= ""width:200px""alt=""img"">
                            </div>
                        </div>","-103","","0","images/gray_27.png","","","","playful"
"","","","","","html-slider-response","121","490363","0.0-117.0","mhxcvlkw4m","NaN","<div style=""width:500px;"">
                            <p style=""font-size:50px; font-weight:bold;""
                            >playful</p>
                            <div style=""width:240px; margin: auto;"">
                                <img src=""images/gray_34.png"" style= ""width:200px""alt=""img"">
                            </div>
                        </div>","-157","","0","images/gray_34.png","","","","playful"
"","","","","","html-slider-response","122","492644","0.0-118.0","mhxcvlkw4m","NaN","<div style=""width:500px;"">
                            <p style=""font-size:50px; font-weight:bold;""
                            >playful</p>
                            <div style=""width:240px; margin: auto;"">
                                <img src=""images/gray_33.png"" style= ""width:200px""alt=""img"">
                            </div>
                        </div>","-195","","0","images/gray_33.png","","","","playful"
"","","","","","html-slider-response","123","495551","0.0-119.0","mhxcvlkw4m","NaN","<div style=""width:500px;"">
                            <p style=""font-size:50px; font-weight:bold;""
                            >playful</p>
                            <div style=""width:240px; margin: auto;"">
                                <img src=""images/gray_04.png"" style= ""width:200px""alt=""img"">
                            </div>
                        </div>","36","","0","images/gray_04.png","","","","playful"
"","","","","","html-slider-response","124","497637","0.0-120.0","mhxcvlkw4m","NaN","<div style=""width:500px;"">
                            <p style=""font-size:50px; font-weight:bold;""
                            >playful</p>
                            <div style=""width:240px; margin: auto;"">
                                <img src=""images/gray_23.png"" style= ""width:200px""alt=""img"">
                            </div>
                        </div>","-162","","0","images/gray_23.png","","","","playful"
"","","","","","html-slider-response","125","500380","0.0-121.0","mhxcvlkw4m","NaN","<div style=""width:500px;"">
                            <p style=""font-size:50px; font-weight:bold;""
                            >playful</p>
                            <div style=""width:240px; margin: auto;"">
                                <img src=""images/gray_21.png"" style= ""width:200px""alt=""img"">
                            </div>
                        </div>","18","","0","images/gray_21.png","","","","playful"
"","","","","","html-slider-response","126","503386","0.0-122.0","mhxcvlkw4m","NaN","<div style=""width:500px;"">
                            <p style=""font-size:50px; font-weight:bold;""
                            >playful</p>
                            <div style=""width:240px; margin: auto;"">
                                <img src=""images/gray_41.png"" style= ""width:200px""alt=""img"">
                            </div>
                        </div>","-72","","0","images/gray_41.png","","","","playful"
"","","","","","html-slider-response","127","505733","0.0-123.0","mhxcvlkw4m","NaN","<div style=""width:500px;"">
                            <p style=""font-size:50px; font-weight:bold;""
                            >playful</p>
                            <div style=""width:240px; margin: auto;"">
                                <img src=""images/gray_03.png"" style= ""width:200px""alt=""img"">
                            </div>
                        </div>","56","","0","images/gray_03.png","","","","playful"
"","","","","","html-slider-response","128","507836","0.0-124.0","mhxcvlkw4m","NaN","<div style=""width:500px;"">
                            <p style=""font-size:50px; font-weight:bold;""
                            >playful</p>
                            <div style=""width:240px; margin: auto;"">
                                <img src=""images/gray_14.png"" style= ""width:200px""alt=""img"">
                            </div>
                        </div>","99","","0","images/gray_14.png","","","","playful"
"","","","","","html-slider-response","129","509824","0.0-125.0","mhxcvlkw4m","NaN","<div style=""width:500px;"">
                            <p style=""font-size:50px; font-weight:bold;""
                            >playful</p>
                            <div style=""width:240px; margin: auto;"">
                                <img src=""images/gray_40.png"" style= ""width:200px""alt=""img"">
                            </div>
                        </div>","0","","0","images/gray_40.png","","","","playful"
"","","","","","html-slider-response","130","512561","0.0-126.0","mhxcvlkw4m","NaN","<div style=""width:500px;"">
                            <p style=""font-size:50px; font-weight:bold;""
                            >playful</p>
                            <div style=""width:240px; margin: auto;"">
                                <img src=""images/gray_28.png"" style= ""width:200px""alt=""img"">
                            </div>
                        </div>","-138","","0","images/gray_28.png","","","","playful"
"","","","","","html-slider-response","131","515086","0.0-127.0","mhxcvlkw4m","NaN","<div style=""width:500px;"">
                            <p style=""font-size:50px; font-weight:bold;""
                            >playful</p>
                            <div style=""width:240px; margin: auto;"">
                                <img src=""images/gray_26.png"" style= ""width:200px""alt=""img"">
                            </div>
                        </div>","66","","0","images/gray_26.png","","","","playful"
"","","","","","html-slider-response","132","519957","0.0-128.0","mhxcvlkw4m","NaN","<div style=""width:500px;"">
                            <p style=""font-size:50px; font-weight:bold;""
                            >playful</p>
                            <div style=""width:240px; margin: auto;"">
                                <img src=""images/gray_30.png"" style= ""width:200px""alt=""img"">
                            </div>
                        </div>","-166","","0","images/gray_30.png","","","","playful"
"","","","","","html-slider-response","133","522539","0.0-129.0","mhxcvlkw4m","NaN","<div style=""width:500px;"">
                            <p style=""font-size:50px; font-weight:bold;""
                            >playful</p>
                            <div style=""width:240px; margin: auto;"">
                                <img src=""images/gray_01.png"" style= ""width:200px""alt=""img"">
                            </div>
                        </div>","30","","0","images/gray_01.png","","","","playful"
"","","","","","html-slider-response","134","524917","0.0-130.0","mhxcvlkw4m","NaN","<div style=""width:500px;"">
                            <p style=""font-size:50px; font-weight:bold;""
                            >playful</p>
                            <div style=""width:240px; margin: auto;"">
                                <img src=""images/gray_15.png"" style= ""width:200px""alt=""img"">
                            </div>
                        </div>","-80","","0","images/gray_15.png","","","","playful"
"","","","","","html-slider-response","135","527118","0.0-131.0","mhxcvlkw4m","NaN","<div style=""width:500px;"">
                            <p style=""font-size:50px; font-weight:bold;""
                            >playful</p>
                            <div style=""width:240px; margin: auto;"">
                                <img src=""images/gray_09.png"" style= ""width:200px""alt=""img"">
                            </div>
                        </div>","-80","","0","images/gray_09.png","","","","playful"
"","","","","","html-slider-response","136","528846","0.0-132.0","mhxcvlkw4m","NaN","<div style=""width:500px;"">
                            <p style=""font-size:50px; font-weight:bold;""
                            >playful</p>
                            <div style=""width:240px; margin: auto;"">
                                <img src=""images/gray_07.png"" style= ""width:200px""alt=""img"">
                            </div>
                        </div>","-126","","0","images/gray_07.png","","","","playful"
"","","","","","html-slider-response","137","530756","0.0-133.0","mhxcvlkw4m","NaN","<div style=""width:500px;"">
                            <p style=""font-size:50px; font-weight:bold;""
                            >playful</p>
                            <div style=""width:240px; margin: auto;"">
                                <img src=""images/gray_19.png"" style= ""width:200px""alt=""img"">
                            </div>
                        </div>","-134","","0","images/gray_19.png","","","","playful"
"","","","","","html-slider-response","138","532355","0.0-134.0","mhxcvlkw4m","NaN","<div style=""width:500px;"">
                            <p style=""font-size:50px; font-weight:bold;""
                            >playful</p>
                            <div style=""width:240px; margin: auto;"">
                                <img src=""images/gray_13.png"" style= ""width:200px""alt=""img"">
                            </div>
                        </div>","-143","","0","images/gray_13.png","","","","playful"
"","","","","","html-slider-response","139","534003","0.0-135.0","mhxcvlkw4m","NaN","<div style=""width:500px;"">
                            <p style=""font-size:50px; font-weight:bold;""
                            >playful</p>
                            <div style=""width:240px; margin: auto;"">
                                <img src=""images/gray_32.png"" style= ""width:200px""alt=""img"">
                            </div>
                        </div>","-160","","0","images/gray_32.png","","","","playful"
"","","","","","html-slider-response","140","536301","0.0-136.0","mhxcvlkw4m","NaN","<div style=""width:500px;"">
                            <p style=""font-size:50px; font-weight:bold;""
                            >playful</p>
                            <div style=""width:240px; margin: auto;"">
                                <img src=""images/gray_24.png"" style= ""width:200px""alt=""img"">
                            </div>
                        </div>","85","","0","images/gray_24.png","","","","playful"
"","","","","","html-slider-response","141","540367","0.0-137.0","mhxcvlkw4m","NaN","<div style=""width:500px;"">
                            <p style=""font-size:50px; font-weight:bold;""
                            >playful</p>
                            <div style=""width:240px; margin: auto;"">
                                <img src=""images/gray_11.png"" style= ""width:200px""alt=""img"">
                            </div>
                        </div>","-61","","0","images/gray_11.png","","","","playful"
"","","","","","html-slider-response","142","541903","0.0-138.0","mhxcvlkw4m","NaN","<div style=""width:500px;"">
                            <p style=""font-size:50px; font-weight:bold;""
                            >playful</p>
                            <div style=""width:240px; margin: auto;"">
                                <img src=""images/gray_38.png"" style= ""width:200px""alt=""img"">
                            </div>
                        </div>","-114","","0","images/gray_38.png","","","","playful"
"","","","","","html-slider-response","143","543698","0.0-139.0","mhxcvlkw4m","NaN","<div style=""width:500px;"">
                            <p style=""font-size:50px; font-weight:bold;""
                            >playful</p>
                            <div style=""width:240px; margin: auto;"">
                                <img src=""images/gray_08.png"" style= ""width:200px""alt=""img"">
                            </div>
                        </div>","-194","","0","images/gray_08.png","","","","playful"
"","","","","","html-slider-response","144","545037","0.0-140.0","mhxcvlkw4m","NaN","<div style=""width:500px;"">
                            <p style=""font-size:50px; font-weight:bold;""
                            >playful</p>
                            <div style=""width:240px; margin: auto;"">
                                <img src=""images/gray_25.png"" style= ""width:200px""alt=""img"">
                            </div>
                        </div>","-194","","0","images/gray_25.png","","","","playful"
"","","","","","html-slider-response","145","547303","0.0-141.0","mhxcvlkw4m","NaN","<div style=""width:500px;"">
                            <p style=""font-size:50px; font-weight:bold;""
                            >playful</p>
                            <div style=""width:240px; margin: auto;"">
                                <img src=""images/gray_18.png"" style= ""width:200px""alt=""img"">
                            </div>
                        </div>","38","","0","images/gray_18.png","","","","playful"
"","","","","","html-slider-response","146","549632","0.0-142.0","mhxcvlkw4m","NaN","<div style=""width:500px;"">
                            <p style=""font-size:50px; font-weight:bold;""
                            >playful</p>
                            <div style=""width:240px; margin: auto;"">
                                <img src=""images/gray_20.png"" style= ""width:200px""alt=""img"">
                            </div>
                        </div>","-17","","0","images/gray_20.png","","","","playful"
"","","","","","html-slider-response","147","551231","0.0-143.0","mhxcvlkw4m","NaN","<div style=""width:500px;"">
                            <p style=""font-size:50px; font-weight:bold;""
                            >playful</p>
                            <div style=""width:240px; margin: auto;"">
                                <img src=""images/gray_17.png"" style= ""width:200px""alt=""img"">
                            </div>
                        </div>","-47","","0","images/gray_17.png","","","","playful"
"","","","","","html-slider-response","148","552702","0.0-144.0","mhxcvlkw4m","NaN","<div style=""width:500px;"">
                            <p style=""font-size:50px; font-weight:bold;""
                            >playful</p>
                            <div style=""width:240px; margin: auto;"">
                                <img src=""images/gray_05.png"" style= ""width:200px""alt=""img"">
                            </div>
                        </div>","-85","","0","images/gray_05.png","","","","playful"
"","","","","","html-slider-response","149","554310","0.0-145.0","mhxcvlkw4m","NaN","<div style=""width:500px;"">
                            <p style=""font-size:50px; font-weight:bold;""
                            >playful</p>
                            <div style=""width:240px; margin: auto;"">
                                <img src=""images/gray_35.png"" style= ""width:200px""alt=""img"">
                            </div>
                        </div>","-113","","0","images/gray_35.png","","","","playful"
"","","","","","html-slider-response","150","556786","0.0-146.0","mhxcvlkw4m","NaN","<div style=""width:500px;"">
                            <p style=""font-size:50px; font-weight:bold;""
                            >playful</p>
                            <div style=""width:240px; margin: auto;"">
                                <img src=""images/gray_39.png"" style= ""width:200px""alt=""img"">
                            </div>
                        </div>","50","","0","images/gray_39.png","","","","playful"
"","","","","","html-slider-response","151","559148","0.0-147.0","mhxcvlkw4m","NaN","<div style=""width:500px;"">
                            <p style=""font-size:50px; font-weight:bold;""
                            >playful</p>
                            <div style=""width:240px; margin: auto;"">
                                <img src=""images/gray_29.png"" style= ""width:200px""alt=""img"">
                            </div>
                        </div>","66","","0","images/gray_29.png","","","","playful"
"","","","","","html-slider-response","152","560877","0.0-148.0","mhxcvlkw4m","NaN","<div style=""width:500px;"">
                            <p style=""font-size:50px; font-weight:bold;""
                            >playful</p>
                            <div style=""width:240px; margin: auto;"">
                                <img src=""images/gray_22.png"" style= ""width:200px""alt=""img"">
                            </div>
                        </div>","-82","","0","images/gray_22.png","","","","playful"
"","","","","","html-slider-response","153","563321","0.0-149.0","mhxcvlkw4m","NaN","<div style=""width:500px;"">
                            <p style=""font-size:50px; font-weight:bold;""
                            >playful</p>
                            <div style=""width:240px; margin: auto;"">
                                <img src=""images/gray_12.png"" style= ""width:200px""alt=""img"">
                            </div>
                        </div>","-147","","0","images/gray_12.png","","","","playful"
"","","","","","html-button-response","154","566510","0.0-150.0","mhxcvlkw4m","2686","<p>Great Job! You've finished block 3.<br></br> You have 5 block(s) left to go.<br></br></p>","0","","","","","","",""
"","","","","","html-button-response","155","568709","0.0-151.0","mhxcvlkw4m","2198","<p>In this block of trials, you will be asked to rate how much you associate each map with:</p > <p style = 'font-size:150%; font-weight: bold'>trustworthy</p><br></br>","0","","","","","","",""
"","","","","","html-slider-response","156","570977","0.0-152.0","mhxcvlkw4m","NaN","<div style=""width:500px;"">
                            <p style=""font-size:50px; font-weight:bold;""
                            >trustworthy</p>
                            <div style=""width:240px; margin: auto;"">
                                <img src=""images/gray_34.png"" style= ""width:200px""alt=""img"">
                            </div>
                        </div>","-194","","0","images/gray_34.png","","","","trustworthy"
"","","","","","html-slider-response","157","573527","0.0-153.0","mhxcvlkw4m","NaN","<div style=""width:500px;"">
                            <p style=""font-size:50px; font-weight:bold;""
                            >trustworthy</p>
                            <div style=""width:240px; margin: auto;"">
                                <img src=""images/gray_19.png"" style= ""width:200px""alt=""img"">
                            </div>
                        </div>","26","","0","images/gray_19.png","","","","trustworthy"
"","","","","","html-slider-response","158","575500","0.0-154.0","mhxcvlkw4m","NaN","<div style=""width:500px;"">
                            <p style=""font-size:50px; font-weight:bold;""
                            >trustworthy</p>
                            <div style=""width:240px; margin: auto;"">
                                <img src=""images/gray_29.png"" style= ""width:200px""alt=""img"">
                            </div>
                        </div>","69","","0","images/gray_29.png","","","","trustworthy"
"","","","","","html-slider-response","159","578123","0.0-155.0","mhxcvlkw4m","NaN","<div style=""width:500px;"">
                            <p style=""font-size:50px; font-weight:bold;""
                            >trustworthy</p>
                            <div style=""width:240px; margin: auto;"">
                                <img src=""images/gray_32.png"" style= ""width:200px""alt=""img"">
                            </div>
                        </div>","22","","0","images/gray_32.png","","","","trustworthy"
"","","","","","html-slider-response","160","580996","0.0-156.0","mhxcvlkw4m","NaN","<div style=""width:500px;"">
                            <p style=""font-size:50px; font-weight:bold;""
                            >trustworthy</p>
                            <div style=""width:240px; margin: auto;"">
                                <img src=""images/gray_23.png"" style= ""width:200px""alt=""img"">
                            </div>
                        </div>","-181","","0","images/gray_23.png","","","","trustworthy"
"","","","","","html-slider-response","161","582872","0.0-157.0","mhxcvlkw4m","NaN","<div style=""width:500px;"">
                            <p style=""font-size:50px; font-weight:bold;""
                            >trustworthy</p>
                            <div style=""width:240px; margin: auto;"">
                                <img src=""images/gray_43.png"" style= ""width:200px""alt=""img"">
                            </div>
                        </div>","-90","","0","images/gray_43.png","","","","trustworthy"
"","","","","","html-slider-response","162","585396","0.0-158.0","mhxcvlkw4m","NaN","<div style=""width:500px;"">
                            <p style=""font-size:50px; font-weight:bold;""
                            >trustworthy</p>
                            <div style=""width:240px; margin: auto;"">
                                <img src=""images/gray_41.png"" style= ""width:200px""alt=""img"">
                            </div>
                        </div>","4","","0","images/gray_41.png","","","","trustworthy"
"","","","","","html-slider-response","163","588539","0.0-159.0","mhxcvlkw4m","NaN","<div style=""width:500px;"">
                            <p style=""font-size:50px; font-weight:bold;""
                            >trustworthy</p>
                            <div style=""width:240px; margin: auto;"">
                                <img src=""images/gray_26.png"" style= ""width:200px""alt=""img"">
                            </div>
                        </div>","30","","0","images/gray_26.png","","","","trustworthy"
"","","","","","html-slider-response","164","590162","0.0-160.0","mhxcvlkw4m","NaN","<div style=""width:500px;"">
                            <p style=""font-size:50px; font-weight:bold;""
                            >trustworthy</p>
                            <div style=""width:240px; margin: auto;"">
                                <img src=""images/gray_21.png"" style= ""width:200px""alt=""img"">
                            </div>
                        </div>","58","","0","images/gray_21.png","","","","trustworthy"
"","","","","","html-slider-response","165","592103","0.0-161.0","mhxcvlkw4m","NaN","<div style=""width:500px;"">
                            <p style=""font-size:50px; font-weight:bold;""
                            >trustworthy</p>
                            <div style=""width:240px; margin: auto;"">
                                <img src=""images/gray_42.png"" style= ""width:200px""alt=""img"">
                            </div>
                        </div>","66","","0","images/gray_42.png","","","","trustworthy"
"","","","","","html-slider-response","166","594498","0.0-162.0","mhxcvlkw4m","NaN","<div style=""width:500px;"">
                            <p style=""font-size:50px; font-weight:bold;""
                            >trustworthy</p>
                            <div style=""width:240px; margin: auto;"">
                                <img src=""images/gray_37.png"" style= ""width:200px""alt=""img"">
                            </div>
                        </div>","38","","0","images/gray_37.png","","","","trustworthy"
"","","","","","html-slider-response","167","596162","0.0-163.0","mhxcvlkw4m","NaN","<div style=""width:500px;"">
                            <p style=""font-size:50px; font-weight:bold;""
                            >trustworthy</p>
                            <div style=""width:240px; margin: auto;"">
                                <img src=""images/gray_05.png"" style= ""width:200px""alt=""img"">
                            </div>
                        </div>","-14","","0","images/gray_05.png","","","","trustworthy"
"","","","","","html-slider-response","168","598094","0.0-164.0","mhxcvlkw4m","NaN","<div style=""width:500px;"">
                            <p style=""font-size:50px; font-weight:bold;""
                            >trustworthy</p>
                            <div style=""width:240px; margin: auto;"">
                                <img src=""images/gray_35.png"" style= ""width:200px""alt=""img"">
                            </div>
                        </div>","-2","","0","images/gray_35.png","","","","trustworthy"
"","","","","","html-slider-response","169","599694","0.0-165.0","mhxcvlkw4m","NaN","<div style=""width:500px;"">
                            <p style=""font-size:50px; font-weight:bold;""
                            >trustworthy</p>
                            <div style=""width:240px; margin: auto;"">
                                <img src=""images/gray_09.png"" style= ""width:200px""alt=""img"">
                            </div>
                        </div>","-2","","0","images/gray_09.png","","","","trustworthy"
"","","","","","html-slider-response","170","601205","0.0-166.0","mhxcvlkw4m","NaN","<div style=""width:500px;"">
                            <p style=""font-size:50px; font-weight:bold;""
                            >trustworthy</p>
                            <div style=""width:240px; margin: auto;"">
                                <img src=""images/gray_24.png"" style= ""width:200px""alt=""img"">
                            </div>
                        </div>","-40","","0","images/gray_24.png","","","","trustworthy"
"","","","","","html-slider-response","171","603494","0.0-167.0","mhxcvlkw4m","NaN","<div style=""width:500px;"">
                            <p style=""font-size:50px; font-weight:bold;""
                            >trustworthy</p>
                            <div style=""width:240px; margin: auto;"">
                                <img src=""images/gray_33.png"" style= ""width:200px""alt=""img"">
                            </div>
                        </div>","-179","","0","images/gray_33.png","","","","trustworthy"
"","","","","","html-slider-response","172","605475","0.0-168.0","mhxcvlkw4m","NaN","<div style=""width:500px;"">
                            <p style=""font-size:50px; font-weight:bold;""
                            >trustworthy</p>
                            <div style=""width:240px; margin: auto;"">
                                <img src=""images/gray_14.png"" style= ""width:200px""alt=""img"">
                            </div>
                        </div>","-186","","0","images/gray_14.png","","","","trustworthy"
"","","","","","html-slider-response","173","607490","0.0-169.0","mhxcvlkw4m","NaN","<div style=""width:500px;"">
                            <p style=""font-size:50px; font-weight:bold;""
                            >trustworthy</p>
                            <div style=""width:240px; margin: auto;"">
                                <img src=""images/gray_06.png"" style= ""width:200px""alt=""img"">
                            </div>
                        </div>","32","","0","images/gray_06.png","","","","trustworthy"
"","","","","","html-slider-response","174","612387","0.0-170.0","mhxcvlkw4m","NaN","<div style=""width:500px;"">
                            <p style=""font-size:50px; font-weight:bold;""
                            >trustworthy</p>
                            <div style=""width:240px; margin: auto;"">
                                <img src=""images/gray_02.png"" style= ""width:200px""alt=""img"">
                            </div>
                        </div>","32","","0","images/gray_02.png","","","","trustworthy"
"","","","","","html-slider-response","175","614270","0.0-171.0","mhxcvlkw4m","NaN","<div style=""width:500px;"">
                            <p style=""font-size:50px; font-weight:bold;""
                            >trustworthy</p>
                            <div style=""width:240px; margin: auto;"">
                                <img src=""images/gray_10.png"" style= ""width:200px""alt=""img"">
                            </div>
                        </div>","-25","","0","images/gray_10.png","","","","trustworthy"
"","","","","","html-slider-response","176","616381","0.0-172.0","mhxcvlkw4m","NaN","<div style=""width:500px;"">
                            <p style=""font-size:50px; font-weight:bold;""
                            >trustworthy</p>
                            <div style=""width:240px; margin: auto;"">
                                <img src=""images/gray_40.png"" style= ""width:200px""alt=""img"">
                            </div>
                        </div>","22","","0","images/gray_40.png","","","","trustworthy"
"","","","","","html-slider-response","177","618070","0.0-173.0","mhxcvlkw4m","NaN","<div style=""width:500px;"">
                            <p style=""font-size:50px; font-weight:bold;""
                            >trustworthy</p>
                            <div style=""width:240px; margin: auto;"">
                                <img src=""images/gray_04.png"" style= ""width:200px""alt=""img"">
                            </div>
                        </div>","57","","0","images/gray_04.png","","","","trustworthy"
"","","","","","html-slider-response","178","619710","0.0-174.0","mhxcvlkw4m","NaN","<div style=""width:500px;"">
                            <p style=""font-size:50px; font-weight:bold;""
                            >trustworthy</p>
                            <div style=""width:240px; margin: auto;"">
                                <img src=""images/gray_39.png"" style= ""width:200px""alt=""img"">
                            </div>
                        </div>","80","","0","images/gray_39.png","","","","trustworthy"
"","","","","","html-slider-response","179","622048","0.0-175.0","mhxcvlkw4m","NaN","<div style=""width:500px;"">
                            <p style=""font-size:50px; font-weight:bold;""
                            >trustworthy</p>
                            <div style=""width:240px; margin: auto;"">
                                <img src=""images/gray_27.png"" style= ""width:200px""alt=""img"">
                            </div>
                        </div>","40","","0","images/gray_27.png","","","","trustworthy"
"","","","","","html-slider-response","180","624200","0.0-176.0","mhxcvlkw4m","NaN","<div style=""width:500px;"">
                            <p style=""font-size:50px; font-weight:bold;""
                            >trustworthy</p>
                            <div style=""width:240px; margin: auto;"">
                                <img src=""images/gray_11.png"" style= ""width:200px""alt=""img"">
                            </div>
                        </div>","-195","","0","images/gray_11.png","","","","trustworthy"
"","","","","","html-slider-response","181","626603","0.0-177.0","mhxcvlkw4m","NaN","<div style=""width:500px;"">
                            <p style=""font-size:50px; font-weight:bold;""
                            >trustworthy</p>
                            <div style=""width:240px; margin: auto;"">
                                <img src=""images/gray_12.png"" style= ""width:200px""alt=""img"">
                            </div>
                        </div>","-193","","0","images/gray_12.png","","","","trustworthy"
"","","","","","html-slider-response","182","628145","0.0-178.0","mhxcvlkw4m","NaN","<div style=""width:500px;"">
                            <p style=""font-size:50px; font-weight:bold;""
                            >trustworthy</p>
                            <div style=""width:240px; margin: auto;"">
                                <img src=""images/gray_44.png"" style= ""width:200px""alt=""img"">
                            </div>
                        </div>","-193","","0","images/gray_44.png","","","","trustworthy"
"","","","","","html-slider-response","183","630614","0.0-179.0","mhxcvlkw4m","NaN","<div style=""width:500px;"">
                            <p style=""font-size:50px; font-weight:bold;""
                            >trustworthy</p>
                            <div style=""width:240px; margin: auto;"">
                                <img src=""images/gray_38.png"" style= ""width:200px""alt=""img"">
                            </div>
                        </div>","-68","","0","images/gray_38.png","","","","trustworthy"
"","","","","","html-slider-response","184","632562","0.0-180.0","mhxcvlkw4m","NaN","<div style=""width:500px;"">
                            <p style=""font-size:50px; font-weight:bold;""
                            >trustworthy</p>
                            <div style=""width:240px; margin: auto;"">
                                <img src=""images/gray_30.png"" style= ""width:200px""alt=""img"">
                            </div>
                        </div>","15","","0","images/gray_30.png","","","","trustworthy"
"","","","","","html-slider-response","185","634268","0.0-181.0","mhxcvlkw4m","NaN","<div style=""width:500px;"">
                            <p style=""font-size:50px; font-weight:bold;""
                            >trustworthy</p>
                            <div style=""width:240px; margin: auto;"">
                                <img src=""images/gray_03.png"" style= ""width:200px""alt=""img"">
                            </div>
                        </div>","32","","0","images/gray_03.png","","","","trustworthy"
"","","","","","html-slider-response","186","636442","0.0-182.0","mhxcvlkw4m","NaN","<div style=""width:500px;"">
                            <p style=""font-size:50px; font-weight:bold;""
                            >trustworthy</p>
                            <div style=""width:240px; margin: auto;"">
                                <img src=""images/gray_17.png"" style= ""width:200px""alt=""img"">
                            </div>
                        </div>","45","","0","images/gray_17.png","","","","trustworthy"
"","","","","","html-slider-response","187","638060","0.0-183.0","mhxcvlkw4m","NaN","<div style=""width:500px;"">
                            <p style=""font-size:50px; font-weight:bold;""
                            >trustworthy</p>
                            <div style=""width:240px; margin: auto;"">
                                <img src=""images/gray_15.png"" style= ""width:200px""alt=""img"">
                            </div>
                        </div>","-17","","0","images/gray_15.png","","","","trustworthy"
"","","","","","html-slider-response","188","646867","0.0-184.0","mhxcvlkw4m","NaN","<div style=""width:500px;"">
                            <p style=""font-size:50px; font-weight:bold;""
                            >trustworthy</p>
                            <div style=""width:240px; margin: auto;"">
                                <img src=""images/gray_07.png"" style= ""width:200px""alt=""img"">
                            </div>
                        </div>","-49","","0","images/gray_07.png","","","","trustworthy"
"","","","","","html-slider-response","189","648629","0.0-185.0","mhxcvlkw4m","NaN","<div style=""width:500px;"">
                            <p style=""font-size:50px; font-weight:bold;""
                            >trustworthy</p>
                            <div style=""width:240px; margin: auto;"">
                                <img src=""images/gray_16.png"" style= ""width:200px""alt=""img"">
                            </div>
                        </div>","-109","","0","images/gray_16.png","","","","trustworthy"
"","","","","","html-slider-response","190","650098","0.0-186.0","mhxcvlkw4m","NaN","<div style=""width:500px;"">
                            <p style=""font-size:50px; font-weight:bold;""
                            >trustworthy</p>
                            <div style=""width:240px; margin: auto;"">
                                <img src=""images/gray_36.png"" style= ""width:200px""alt=""img"">
                            </div>
                        </div>","-134","","0","images/gray_36.png","","","","trustworthy"
"","","","","","html-slider-response","191","651859","0.0-187.0","mhxcvlkw4m","NaN","<div style=""width:500px;"">
                            <p style=""font-size:50px; font-weight:bold;""
                            >trustworthy</p>
                            <div style=""width:240px; margin: auto;"">
                                <img src=""images/gray_08.png"" style= ""width:200px""alt=""img"">
                            </div>
                        </div>","-155","","0","images/gray_08.png","","","","trustworthy"
"","","","","","html-slider-response","192","653883","0.0-188.0","mhxcvlkw4m","NaN","<div style=""width:500px;"">
                            <p style=""font-size:50px; font-weight:bold;""
                            >trustworthy</p>
                            <div style=""width:240px; margin: auto;"">
                                <img src=""images/gray_31.png"" style= ""width:200px""alt=""img"">
                            </div>
                        </div>","42","","0","images/gray_31.png","","","","trustworthy"
"","","","","","html-slider-response","193","655426","0.0-189.0","mhxcvlkw4m","NaN","<div style=""width:500px;"">
                            <p style=""font-size:50px; font-weight:bold;""
                            >trustworthy</p>
                            <div style=""width:240px; margin: auto;"">
                                <img src=""images/gray_28.png"" style= ""width:200px""alt=""img"">
                            </div>
                        </div>","-40","","0","images/gray_28.png","","","","trustworthy"
"","","","","","html-slider-response","194","657236","0.0-190.0","mhxcvlkw4m","NaN","<div style=""width:500px;"">
                            <p style=""font-size:50px; font-weight:bold;""
                            >trustworthy</p>
                            <div style=""width:240px; margin: auto;"">
                                <img src=""images/gray_22.png"" style= ""width:200px""alt=""img"">
                            </div>
                        </div>","87","","0","images/gray_22.png","","","","trustworthy"
"","","","","","html-slider-response","195","658811","0.0-191.0","mhxcvlkw4m","NaN","<div style=""width:500px;"">
                            <p style=""font-size:50px; font-weight:bold;""
                            >trustworthy</p>
                            <div style=""width:240px; margin: auto;"">
                                <img src=""images/gray_25.png"" style= ""width:200px""alt=""img"">
                            </div>
                        </div>","96","","0","images/gray_25.png","","","","trustworthy"
"","","","","","html-slider-response","196","660556","0.0-192.0","mhxcvlkw4m","NaN","<div style=""width:500px;"">
                            <p style=""font-size:50px; font-weight:bold;""
                            >trustworthy</p>
                            <div style=""width:240px; margin: auto;"">
                                <img src=""images/gray_20.png"" style= ""width:200px""alt=""img"">
                            </div>
                        </div>","47","","0","images/gray_20.png","","","","trustworthy"
"","","","","","html-slider-response","197","662155","0.0-193.0","mhxcvlkw4m","NaN","<div style=""width:500px;"">
                            <p style=""font-size:50px; font-weight:bold;""
                            >trustworthy</p>
                            <div style=""width:240px; margin: auto;"">
                                <img src=""images/gray_01.png"" style= ""width:200px""alt=""img"">
                            </div>
                        </div>","82","","0","images/gray_01.png","","","","trustworthy"
