"success","timeout","failed_images","failed_audio","failed_video","trial_type","trial_index","time_elapsed","internal_node_id","subject_id","rt","stimulus","response","question_order","slider_start","image_path","practiceTrial","practiceTrialNum","correct","concept"
"true","false","[]","[]","[]","preload","0","1741","0.0-0.0","nf7pn9vt9j","","","","","","","","","",""
"","","","","","html-button-response","1","15893","0.0-1.0","nf7pn9vt9j","14150","Welcome to our experiment!<p>At the bottom of this screen, you will see a button that says ""Begin Experiment"".<br>Please only click that button when you are ready to complete the 25 minute experiment in one sitting.</p><p> Once you click that button, it will not be possible to restart the experiment.","0","","","","","","",""
"true","","","","","fullscreen","2","19396","0.0-2.0","nf7pn9vt9j","2493","","","","","","","","",""
"","","","","","survey-multi-select","3","59824","0.0-3.0","nf7pn9vt9j","40421","","{""Consent"":[""<strong>I consent</strong>""]}","[0]","","","","","",""
"","","","","","html-button-response","4","65784","0.0-4.0","nf7pn9vt9j","5950","Welcome! <p> This experiment involves two parts: demographic information, followed by the experimental task.<p> It will take about 25 minutes to complete both parts.","0","","","","","","",""
"","","","","","survey-text","5","76308","0.0-5.0","nf7pn9vt9j","10511","","{""Age"":""18"",""Gender"":""female"",""Race/ethnicity"":""white"",""Languages"":""english""}","","","","","","",""
"","","","","","html-slider-response","6","137463","0.0-6.0","nf7pn9vt9j","61152","
            <div style='text-align:left; font-size:20px; line-height:25px; width: 1200px;'>
                During this experiment you will be asked to rate how much you associate maps with    different concepts.<br> Below, you can see some examples of the maps you will be asked to rate. Next to the maps
    is the list of concepts.<br>You will be asked    to rate how much you associate each map with each concept on a scale from 'not at all' to 'very much' like the
    one below. <br><br>
    Now, please look at the list of concepts and maps. For each concept, think about the map you associate 'very
    much' with the concept.<br>     When you see that map during the experiment, please rate it near the 'very much' endpoint of the
    scale.<br>Now, please think about which map you associate 'not at all'     with each concept. When you see that map during the experiment, please rate it near the 'not at all' endpoint
    of the scale.<br>
    Please use the full range of the scale. That is, if a map is somewhat associated with the concept, you would
    click partway between the middle point and right side of the scale.    You will be asked to rate each map for a given concept before moving on to the next concept.<br><br>Press the
    'Continue' button for instructions on how to use the slider.    <br><br>
</div>

<div style=""width: 500px; margin: 0 auto;"">
    <div style=""text-align: left; width: 200px; float: left;"">
        <p style=""font-size:25px; line-height:18px;"">calm</p>
        <p style=""font-size:25px; line-height:18px;"">exciting</p>
        <p style=""font-size:25px;line-height:18px;"">positive</p>
        <p style=""font-size:25px;line-height:18px;"">negative</p>
        <p style=""font-size:25px;line-height:18px;"">serious</p>
        <p style=""font-size:25px;line-height:18px;"">playful</p>
        <p style=""font-size:25px;line-height:18px;"">trustworthy</p>
        <p style=""font-size:25px;line-height:18px;"">disturbing</p>
    </div>
    <div style=""width: 200px; float: right; padding-top:15px; padding-right:40px"">
        <br>
        <br>
        <img src=""maps_anchoring.png"" alt=""img"" style=""max-width:500px"">
    </div>
    <div style=""clear: both;""></div>
</div>
            ","-5","","0","maps_anchoring.png","true","","",""
"","","","","","html-button-response","7","145523","0.0-7.0","nf7pn9vt9j","8057","<div style=""width:800px;""><p style=""text-align:left"">To move the slider, click and drag your cursor to the location of the scale where you would like to make your rating and then let go. When you let go of the slider, your response will be recorded and the next trial will begin. <br>
            We are interested in your initial impressions of each map for the given concept, so please go with your first intuition. <br>
            Before you begin the experiment, there will be four training trials for you to practice using the scale. <br>
             When you are ready to start the training trials, please click ""Continue"".</p><br></div>","0","","","","","","",""
"","","","","","html-slider-response","8","149285","0.0-8.0-0.0","nf7pn9vt9j","NaN","<div style=""width:500px;"">
                            <p style=""font-size:25px;"">Please move the slider all the way to the <br> right endpoint of the scale</p>

                            </div>
                        </div>","200","","0","","true","0","true",""
"","","","","","html-button-response","9","150947","0.0-8.0-1.0","nf7pn9vt9j","1158","<p align='center'><b>Good job!</b> Click on 'Continue' to proceed.</p>","0","","","","","","",""
"","","","","","html-slider-response","10","153062","0.0-9.0-0.0","nf7pn9vt9j","NaN","<div style=""width:500px;"">
                            <p style=""font-size:25px;"">Please move the slider all the way to the <br> left endpoint of the scale</p>

                            </div>
                        </div>","-200","","0","","true","1","true",""
"","","","","","html-button-response","11","154855","0.0-9.0-1.0","nf7pn9vt9j","1290","<p align='center'><b>Good job!</b> Click on 'Continue' to proceed.</p>","0","","","","","","",""
"","","","","","html-slider-response","12","160209","0.0-10.0-0.0","nf7pn9vt9j","NaN","<div style=""width:500px;"">
                            <p style=""font-size:25px;"">Please move the slider halfway between the center and right endpoint of the scale</p>

                            </div>
                        </div>","105","","0","","true","2","true",""
"","","","","","html-button-response","13","162830","0.0-10.0-1.0","nf7pn9vt9j","2112","<p align='center'><b>Good job!</b> Click on 'Continue' to proceed.</p>","0","","","","","","",""
"","","","","","html-slider-response","14","165036","0.0-11.0-0.0","nf7pn9vt9j","NaN","<div style=""width:500px;"">
                            <p style=""font-size:25px;"">Please move the slider halfway between the center and left endpoint of the scale</p>

                            </div>
                        </div>","-103","","0","","true","3","true",""
"","","","","","html-button-response","15","166425","0.0-11.0-1.0","nf7pn9vt9j","877","<p align='center'><b>Good job!</b> Click on 'Continue' to proceed.</p>","0","","","","","","",""
"","","","","","html-button-response","16","167615","0.0-12.0","nf7pn9vt9j","1187","<p>Great job! You've completed the practice trials. Now you will begin the main task.</p>","0","","","","","","",""
"","","","","","html-button-response","17","172740","0.0-13.0","nf7pn9vt9j","5124","<p>In this block of trials, you will be asked to rate how much you associate each map with:</p > <p style = 'font-size:150%; font-weight: bold'>negative</p><br></br>","0","","","","","","",""
"","","","","","html-slider-response","18","178784","0.0-14.0","nf7pn9vt9j","NaN","<div style=""width:500px;"">
                            <p style=""font-size:50px; font-weight:bold;""
                            >negative</p>
                            <div style=""width:240px; margin: auto;"">
                                <img src=""images/gray_25.png"" style= ""width:200px""alt=""img"">
                            </div>
                        </div>","-200","","0","images/gray_25.png","","","","negative"
"","","","","","html-slider-response","19","185645","0.0-15.0","nf7pn9vt9j","NaN","<div style=""width:500px;"">
                            <p style=""font-size:50px; font-weight:bold;""
                            >negative</p>
                            <div style=""width:240px; margin: auto;"">
                                <img src=""images/gray_10.png"" style= ""width:200px""alt=""img"">
                            </div>
                        </div>","-200","","0","images/gray_10.png","","","","negative"
"","","","","","html-slider-response","20","191442","0.0-16.0","nf7pn9vt9j","NaN","<div style=""width:500px;"">
                            <p style=""font-size:50px; font-weight:bold;""
                            >negative</p>
                            <div style=""width:240px; margin: auto;"">
                                <img src=""images/gray_16.png"" style= ""width:200px""alt=""img"">
                            </div>
                        </div>","-200","","0","images/gray_16.png","","","","negative"
"","","","","","html-slider-response","21","197042","0.0-17.0","nf7pn9vt9j","NaN","<div style=""width:500px;"">
                            <p style=""font-size:50px; font-weight:bold;""
                            >negative</p>
                            <div style=""width:240px; margin: auto;"">
                                <img src=""images/gray_20.png"" style= ""width:200px""alt=""img"">
                            </div>
                        </div>","-190","","0","images/gray_20.png","","","","negative"
"","","","","","html-slider-response","22","202712","0.0-18.0","nf7pn9vt9j","NaN","<div style=""width:500px;"">
                            <p style=""font-size:50px; font-weight:bold;""
                            >negative</p>
                            <div style=""width:240px; margin: auto;"">
                                <img src=""images/gray_07.png"" style= ""width:200px""alt=""img"">
                            </div>
                        </div>","110","","0","images/gray_07.png","","","","negative"
"","","","","","html-slider-response","23","211625","0.0-19.0","nf7pn9vt9j","NaN","<div style=""width:500px;"">
                            <p style=""font-size:50px; font-weight:bold;""
                            >negative</p>
                            <div style=""width:240px; margin: auto;"">
                                <img src=""images/gray_30.png"" style= ""width:200px""alt=""img"">
                            </div>
                        </div>","-111","","0","images/gray_30.png","","","","negative"
"","","","","","html-slider-response","24","214371","0.0-20.0","nf7pn9vt9j","NaN","<div style=""width:500px;"">
                            <p style=""font-size:50px; font-weight:bold;""
                            >negative</p>
                            <div style=""width:240px; margin: auto;"">
                                <img src=""images/gray_06.png"" style= ""width:200px""alt=""img"">
                            </div>
                        </div>","-200","","0","images/gray_06.png","","","","negative"
"","","","","","html-slider-response","25","217218","0.0-21.0","nf7pn9vt9j","NaN","<div style=""width:500px;"">
                            <p style=""font-size:50px; font-weight:bold;""
                            >negative</p>
                            <div style=""width:240px; margin: auto;"">
                                <img src=""images/gray_31.png"" style= ""width:200px""alt=""img"">
                            </div>
                        </div>","-200","","0","images/gray_31.png","","","","negative"
"","","","","","html-slider-response","26","222696","0.0-22.0","nf7pn9vt9j","NaN","<div style=""width:500px;"">
                            <p style=""font-size:50px; font-weight:bold;""
                            >negative</p>
                            <div style=""width:240px; margin: auto;"">
                                <img src=""images/gray_02.png"" style= ""width:200px""alt=""img"">
                            </div>
                        </div>","1","","0","images/gray_02.png","","","","negative"
"","","","","","html-slider-response","27","225455","0.0-23.0","nf7pn9vt9j","NaN","<div style=""width:500px;"">
                            <p style=""font-size:50px; font-weight:bold;""
                            >negative</p>
                            <div style=""width:240px; margin: auto;"">
                                <img src=""images/gray_01.png"" style= ""width:200px""alt=""img"">
                            </div>
                        </div>","-200","","0","images/gray_01.png","","","","negative"
"","","","","","html-slider-response","28","227947","0.0-24.0","nf7pn9vt9j","NaN","<div style=""width:500px;"">
                            <p style=""font-size:50px; font-weight:bold;""
                            >negative</p>
                            <div style=""width:240px; margin: auto;"">
                                <img src=""images/gray_04.png"" style= ""width:200px""alt=""img"">
                            </div>
                        </div>","-200","","0","images/gray_04.png","","","","negative"
"","","","","","html-slider-response","29","231017","0.0-25.0","nf7pn9vt9j","NaN","<div style=""width:500px;"">
                            <p style=""font-size:50px; font-weight:bold;""
                            >negative</p>
                            <div style=""width:240px; margin: auto;"">
                                <img src=""images/gray_03.png"" style= ""width:200px""alt=""img"">
                            </div>
                        </div>","-200","","0","images/gray_03.png","","","","negative"
"","","","","","html-slider-response","30","233026","0.0-26.0","nf7pn9vt9j","NaN","<div style=""width:500px;"">
                            <p style=""font-size:50px; font-weight:bold;""
                            >negative</p>
                            <div style=""width:240px; margin: auto;"">
                                <img src=""images/gray_39.png"" style= ""width:200px""alt=""img"">
                            </div>
                        </div>","-200","","0","images/gray_39.png","","","","negative"
"","","","","","html-slider-response","31","235884","0.0-27.0","nf7pn9vt9j","NaN","<div style=""width:500px;"">
                            <p style=""font-size:50px; font-weight:bold;""
                            >negative</p>
                            <div style=""width:240px; margin: auto;"">
                                <img src=""images/gray_17.png"" style= ""width:200px""alt=""img"">
                            </div>
                        </div>","-200","","0","images/gray_17.png","","","","negative"
"","","","","","html-slider-response","32","239928","0.0-28.0","nf7pn9vt9j","NaN","<div style=""width:500px;"">
                            <p style=""font-size:50px; font-weight:bold;""
                            >negative</p>
                            <div style=""width:240px; margin: auto;"">
                                <img src=""images/gray_26.png"" style= ""width:200px""alt=""img"">
                            </div>
                        </div>","-200","","0","images/gray_26.png","","","","negative"
"","","","","","html-slider-response","33","242480","0.0-29.0","nf7pn9vt9j","NaN","<div style=""width:500px;"">
                            <p style=""font-size:50px; font-weight:bold;""
                            >negative</p>
                            <div style=""width:240px; margin: auto;"">
                                <img src=""images/gray_27.png"" style= ""width:200px""alt=""img"">
                            </div>
                        </div>","-200","","0","images/gray_27.png","","","","negative"
"","","","","","html-slider-response","34","245056","0.0-30.0","nf7pn9vt9j","NaN","<div style=""width:500px;"">
                            <p style=""font-size:50px; font-weight:bold;""
                            >negative</p>
                            <div style=""width:240px; margin: auto;"">
                                <img src=""images/gray_18.png"" style= ""width:200px""alt=""img"">
                            </div>
                        </div>","-200","","0","images/gray_18.png","","","","negative"
"","","","","","html-slider-response","35","247100","0.0-31.0","nf7pn9vt9j","NaN","<div style=""width:500px;"">
                            <p style=""font-size:50px; font-weight:bold;""
                            >negative</p>
                            <div style=""width:240px; margin: auto;"">
                                <img src=""images/gray_28.png"" style= ""width:200px""alt=""img"">
                            </div>
                        </div>","-200","","0","images/gray_28.png","","","","negative"
"","","","","","html-slider-response","36","249068","0.0-32.0","nf7pn9vt9j","NaN","<div style=""width:500px;"">
                            <p style=""font-size:50px; font-weight:bold;""
                            >negative</p>
                            <div style=""width:240px; margin: auto;"">
                                <img src=""images/gray_15.png"" style= ""width:200px""alt=""img"">
                            </div>
                        </div>","-200","","0","images/gray_15.png","","","","negative"
"","","","","","html-slider-response","37","251047","0.0-33.0","nf7pn9vt9j","NaN","<div style=""width:500px;"">
                            <p style=""font-size:50px; font-weight:bold;""
                            >negative</p>
                            <div style=""width:240px; margin: auto;"">
                                <img src=""images/gray_42.png"" style= ""width:200px""alt=""img"">
                            </div>
                        </div>","-200","","0","images/gray_42.png","","","","negative"
"","","","","","html-slider-response","38","252752","0.0-34.0","nf7pn9vt9j","NaN","<div style=""width:500px;"">
                            <p style=""font-size:50px; font-weight:bold;""
                            >negative</p>
                            <div style=""width:240px; margin: auto;"">
                                <img src=""images/gray_11.png"" style= ""width:200px""alt=""img"">
                            </div>
                        </div>","-200","","0","images/gray_11.png","","","","negative"
"","","","","","html-slider-response","39","255221","0.0-35.0","nf7pn9vt9j","NaN","<div style=""width:500px;"">
                            <p style=""font-size:50px; font-weight:bold;""
                            >negative</p>
                            <div style=""width:240px; margin: auto;"">
                                <img src=""images/gray_36.png"" style= ""width:200px""alt=""img"">
                            </div>
                        </div>","-185","","0","images/gray_36.png","","","","negative"
"","","","","","html-slider-response","40","257508","0.0-36.0","nf7pn9vt9j","NaN","<div style=""width:500px;"">
                            <p style=""font-size:50px; font-weight:bold;""
                            >negative</p>
                            <div style=""width:240px; margin: auto;"">
                                <img src=""images/gray_12.png"" style= ""width:200px""alt=""img"">
                            </div>
                        </div>","-100","","0","images/gray_12.png","","","","negative"
"","","","","","html-slider-response","41","259947","0.0-37.0","nf7pn9vt9j","NaN","<div style=""width:500px;"">
                            <p style=""font-size:50px; font-weight:bold;""
                            >negative</p>
                            <div style=""width:240px; margin: auto;"">
                                <img src=""images/gray_32.png"" style= ""width:200px""alt=""img"">
                            </div>
                        </div>","-121","","0","images/gray_32.png","","","","negative"
"","","","","","html-slider-response","42","263290","0.0-38.0","nf7pn9vt9j","NaN","<div style=""width:500px;"">
                            <p style=""font-size:50px; font-weight:bold;""
                            >negative</p>
                            <div style=""width:240px; margin: auto;"">
                                <img src=""images/gray_23.png"" style= ""width:200px""alt=""img"">
                            </div>
                        </div>","-200","","0","images/gray_23.png","","","","negative"
"","","","","","html-slider-response","43","266156","0.0-39.0","nf7pn9vt9j","NaN","<div style=""width:500px;"">
                            <p style=""font-size:50px; font-weight:bold;""
                            >negative</p>
                            <div style=""width:240px; margin: auto;"">
                                <img src=""images/gray_13.png"" style= ""width:200px""alt=""img"">
                            </div>
                        </div>","-200","","0","images/gray_13.png","","","","negative"
"","","","","","html-slider-response","44","270579","0.0-40.0","nf7pn9vt9j","NaN","<div style=""width:500px;"">
                            <p style=""font-size:50px; font-weight:bold;""
                            >negative</p>
                            <div style=""width:240px; margin: auto;"">
                                <img src=""images/gray_29.png"" style= ""width:200px""alt=""img"">
                            </div>
                        </div>","1","","0","images/gray_29.png","","","","negative"
"","","","","","html-slider-response","45","272924","0.0-41.0","nf7pn9vt9j","NaN","<div style=""width:500px;"">
                            <p style=""font-size:50px; font-weight:bold;""
                            >negative</p>
                            <div style=""width:240px; margin: auto;"">
                                <img src=""images/gray_41.png"" style= ""width:200px""alt=""img"">
                            </div>
                        </div>","1","","0","images/gray_41.png","","","","negative"
"","","","","","html-slider-response","46","275038","0.0-42.0","nf7pn9vt9j","NaN","<div style=""width:500px;"">
                            <p style=""font-size:50px; font-weight:bold;""
                            >negative</p>
                            <div style=""width:240px; margin: auto;"">
                                <img src=""images/gray_08.png"" style= ""width:200px""alt=""img"">
                            </div>
                        </div>","-199","","0","images/gray_08.png","","","","negative"
"","","","","","html-slider-response","47","277828","0.0-43.0","nf7pn9vt9j","NaN","<div style=""width:500px;"">
                            <p style=""font-size:50px; font-weight:bold;""
                            >negative</p>
                            <div style=""width:240px; margin: auto;"">
                                <img src=""images/gray_19.png"" style= ""width:200px""alt=""img"">
                            </div>
                        </div>","-200","","0","images/gray_19.png","","","","negative"
"","","","","","html-slider-response","48","279925","0.0-44.0","nf7pn9vt9j","NaN","<div style=""width:500px;"">
                            <p style=""font-size:50px; font-weight:bold;""
                            >negative</p>
                            <div style=""width:240px; margin: auto;"">
                                <img src=""images/gray_05.png"" style= ""width:200px""alt=""img"">
                            </div>
                        </div>","-200","","0","images/gray_05.png","","","","negative"
"","","","","","html-slider-response","49","282170","0.0-45.0","nf7pn9vt9j","NaN","<div style=""width:500px;"">
                            <p style=""font-size:50px; font-weight:bold;""
                            >negative</p>
                            <div style=""width:240px; margin: auto;"">
                                <img src=""images/gray_09.png"" style= ""width:200px""alt=""img"">
                            </div>
                        </div>","-200","","0","images/gray_09.png","","","","negative"
"","","","","","html-slider-response","50","284522","0.0-46.0","nf7pn9vt9j","NaN","<div style=""width:500px;"">
                            <p style=""font-size:50px; font-weight:bold;""
                            >negative</p>
                            <div style=""width:240px; margin: auto;"">
                                <img src=""images/gray_34.png"" style= ""width:200px""alt=""img"">
                            </div>
                        </div>","-200","","0","images/gray_34.png","","","","negative"
"","","","","","html-slider-response","51","286309","0.0-47.0","nf7pn9vt9j","NaN","<div style=""width:500px;"">
                            <p style=""font-size:50px; font-weight:bold;""
                            >negative</p>
                            <div style=""width:240px; margin: auto;"">
                                <img src=""images/gray_24.png"" style= ""width:200px""alt=""img"">
                            </div>
                        </div>","-200","","0","images/gray_24.png","","","","negative"
"","","","","","html-slider-response","52","292629","0.0-48.0","nf7pn9vt9j","NaN","<div style=""width:500px;"">
                            <p style=""font-size:50px; font-weight:bold;""
                            >negative</p>
                            <div style=""width:240px; margin: auto;"">
                                <img src=""images/gray_21.png"" style= ""width:200px""alt=""img"">
                            </div>
                        </div>","-94","","0","images/gray_21.png","","","","negative"
"","","","","","html-slider-response","53","294720","0.0-49.0","nf7pn9vt9j","NaN","<div style=""width:500px;"">
                            <p style=""font-size:50px; font-weight:bold;""
                            >negative</p>
                            <div style=""width:240px; margin: auto;"">
                                <img src=""images/gray_40.png"" style= ""width:200px""alt=""img"">
                            </div>
                        </div>","-200","","0","images/gray_40.png","","","","negative"
"","","","","","html-slider-response","54","296682","0.0-50.0","nf7pn9vt9j","NaN","<div style=""width:500px;"">
                            <p style=""font-size:50px; font-weight:bold;""
                            >negative</p>
                            <div style=""width:240px; margin: auto;"">
                                <img src=""images/gray_38.png"" style= ""width:200px""alt=""img"">
                            </div>
                        </div>","-200","","0","images/gray_38.png","","","","negative"
"","","","","","html-slider-response","55","298501","0.0-51.0","nf7pn9vt9j","NaN","<div style=""width:500px;"">
                            <p style=""font-size:50px; font-weight:bold;""
                            >negative</p>
                            <div style=""width:240px; margin: auto;"">
                                <img src=""images/gray_44.png"" style= ""width:200px""alt=""img"">
                            </div>
                        </div>","-200","","0","images/gray_44.png","","","","negative"
"","","","","","html-slider-response","56","300667","0.0-52.0","nf7pn9vt9j","NaN","<div style=""width:500px;"">
                            <p style=""font-size:50px; font-weight:bold;""
                            >negative</p>
                            <div style=""width:240px; margin: auto;"">
                                <img src=""images/gray_14.png"" style= ""width:200px""alt=""img"">
                            </div>
                        </div>","-200","","0","images/gray_14.png","","","","negative"
"","","","","","html-slider-response","57","302606","0.0-53.0","nf7pn9vt9j","NaN","<div style=""width:500px;"">
                            <p style=""font-size:50px; font-weight:bold;""
                            >negative</p>
                            <div style=""width:240px; margin: auto;"">
                                <img src=""images/gray_37.png"" style= ""width:200px""alt=""img"">
                            </div>
                        </div>","-200","","0","images/gray_37.png","","","","negative"
"","","","","","html-slider-response","58","304575","0.0-54.0","nf7pn9vt9j","NaN","<div style=""width:500px;"">
                            <p style=""font-size:50px; font-weight:bold;""
                            >negative</p>
                            <div style=""width:240px; margin: auto;"">
                                <img src=""images/gray_43.png"" style= ""width:200px""alt=""img"">
                            </div>
                        </div>","-200","","0","images/gray_43.png","","","","negative"
"","","","","","html-slider-response","59","306555","0.0-55.0","nf7pn9vt9j","NaN","<div style=""width:500px;"">
                            <p style=""font-size:50px; font-weight:bold;""
                            >negative</p>
                            <div style=""width:240px; margin: auto;"">
                                <img src=""images/gray_33.png"" style= ""width:200px""alt=""img"">
                            </div>
                        </div>","-109","","0","images/gray_33.png","","","","negative"
"","","","","","html-slider-response","60","308819","0.0-56.0","nf7pn9vt9j","NaN","<div style=""width:500px;"">
                            <p style=""font-size:50px; font-weight:bold;""
                            >negative</p>
                            <div style=""width:240px; margin: auto;"">
                                <img src=""images/gray_22.png"" style= ""width:200px""alt=""img"">
                            </div>
                        </div>","-200","","0","images/gray_22.png","","","","negative"
"","","","","","html-slider-response","61","310977","0.0-57.0","nf7pn9vt9j","NaN","<div style=""width:500px;"">
                            <p style=""font-size:50px; font-weight:bold;""
                            >negative</p>
                            <div style=""width:240px; margin: auto;"">
                                <img src=""images/gray_35.png"" style= ""width:200px""alt=""img"">
                            </div>
                        </div>","-200","","0","images/gray_35.png","","","","negative"
"","","","","","html-button-response","62","313682","0.0-58.0","nf7pn9vt9j","2189","<p>Great Job! You've finished block 1.<br></br> You have 7 block(s) left to go.<br></br></p>","0","","","","","","",""
"","","","","","html-button-response","63","316804","0.0-59.0","nf7pn9vt9j","3120","<p>In this block of trials, you will be asked to rate how much you associate each map with:</p > <p style = 'font-size:150%; font-weight: bold'>positive</p><br></br>","0","","","","","","",""
"","","","","","html-slider-response","64","318887","0.0-60.0","nf7pn9vt9j","NaN","<div style=""width:500px;"">
                            <p style=""font-size:50px; font-weight:bold;""
                            >positive</p>
                            <div style=""width:240px; margin: auto;"">
                                <img src=""images/gray_18.png"" style= ""width:200px""alt=""img"">
                            </div>
                        </div>","118","","0","images/gray_18.png","","","","positive"
"","","","","","html-slider-response","65","321136","0.0-61.0","nf7pn9vt9j","NaN","<div style=""width:500px;"">
                            <p style=""font-size:50px; font-weight:bold;""
                            >positive</p>
                            <div style=""width:240px; margin: auto;"">
                                <img src=""images/gray_33.png"" style= ""width:200px""alt=""img"">
                            </div>
                        </div>","114","","0","images/gray_33.png","","","","positive"
"","","","","","html-slider-response","66","324884","0.0-62.0","nf7pn9vt9j","NaN","<div style=""width:500px;"">
                            <p style=""font-size:50px; font-weight:bold;""
                            >positive</p>
                            <div style=""width:240px; margin: auto;"">
                                <img src=""images/gray_07.png"" style= ""width:200px""alt=""img"">
                            </div>
                        </div>","0","","0","images/gray_07.png","","","","positive"
"","","","","","html-slider-response","67","328085","0.0-63.0","nf7pn9vt9j","NaN","<div style=""width:500px;"">
                            <p style=""font-size:50px; font-weight:bold;""
                            >positive</p>
                            <div style=""width:240px; margin: auto;"">
                                <img src=""images/gray_05.png"" style= ""width:200px""alt=""img"">
                            </div>
                        </div>","-200","","0","images/gray_05.png","","","","positive"
"","","","","","html-slider-response","68","330658","0.0-64.0","nf7pn9vt9j","NaN","<div style=""width:500px;"">
                            <p style=""font-size:50px; font-weight:bold;""
                            >positive</p>
                            <div style=""width:240px; margin: auto;"">
                                <img src=""images/gray_16.png"" style= ""width:200px""alt=""img"">
                            </div>
                        </div>","103","","0","images/gray_16.png","","","","positive"
"","","","","","html-slider-response","69","332724","0.0-65.0","nf7pn9vt9j","NaN","<div style=""width:500px;"">
                            <p style=""font-size:50px; font-weight:bold;""
                            >positive</p>
                            <div style=""width:240px; margin: auto;"">
                                <img src=""images/gray_34.png"" style= ""width:200px""alt=""img"">
                            </div>
                        </div>","-200","","0","images/gray_34.png","","","","positive"
"","","","","","html-slider-response","70","334835","0.0-66.0","nf7pn9vt9j","NaN","<div style=""width:500px;"">
                            <p style=""font-size:50px; font-weight:bold;""
                            >positive</p>
                            <div style=""width:240px; margin: auto;"">
                                <img src=""images/gray_41.png"" style= ""width:200px""alt=""img"">
                            </div>
                        </div>","-200","","0","images/gray_41.png","","","","positive"
"","","","","","html-slider-response","71","337156","0.0-67.0","nf7pn9vt9j","NaN","<div style=""width:500px;"">
                            <p style=""font-size:50px; font-weight:bold;""
                            >positive</p>
                            <div style=""width:240px; margin: auto;"">
                                <img src=""images/gray_22.png"" style= ""width:200px""alt=""img"">
                            </div>
                        </div>","114","","0","images/gray_22.png","","","","positive"
"","","","","","html-slider-response","72","338900","0.0-68.0","nf7pn9vt9j","NaN","<div style=""width:500px;"">
                            <p style=""font-size:50px; font-weight:bold;""
                            >positive</p>
                            <div style=""width:240px; margin: auto;"">
                                <img src=""images/gray_24.png"" style= ""width:200px""alt=""img"">
                            </div>
                        </div>","-200","","0","images/gray_24.png","","","","positive"
"","","","","","html-slider-response","73","342064","0.0-69.0","nf7pn9vt9j","NaN","<div style=""width:500px;"">
                            <p style=""font-size:50px; font-weight:bold;""
                            >positive</p>
                            <div style=""width:240px; margin: auto;"">
                                <img src=""images/gray_37.png"" style= ""width:200px""alt=""img"">
                            </div>
                        </div>","111","","0","images/gray_37.png","","","","positive"
"","","","","","html-slider-response","74","343875","0.0-70.0","nf7pn9vt9j","NaN","<div style=""width:500px;"">
                            <p style=""font-size:50px; font-weight:bold;""
                            >positive</p>
                            <div style=""width:240px; margin: auto;"">
                                <img src=""images/gray_30.png"" style= ""width:200px""alt=""img"">
                            </div>
                        </div>","-200","","0","images/gray_30.png","","","","positive"
"","","","","","html-slider-response","75","345614","0.0-71.0","nf7pn9vt9j","NaN","<div style=""width:500px;"">
                            <p style=""font-size:50px; font-weight:bold;""
                            >positive</p>
                            <div style=""width:240px; margin: auto;"">
                                <img src=""images/gray_15.png"" style= ""width:200px""alt=""img"">
                            </div>
                        </div>","-200","","0","images/gray_15.png","","","","positive"
"","","","","","html-slider-response","76","347386","0.0-72.0","nf7pn9vt9j","NaN","<div style=""width:500px;"">
                            <p style=""font-size:50px; font-weight:bold;""
                            >positive</p>
                            <div style=""width:240px; margin: auto;"">
                                <img src=""images/gray_42.png"" style= ""width:200px""alt=""img"">
                            </div>
                        </div>","-200","","0","images/gray_42.png","","","","positive"
"","","","","","html-slider-response","77","349109","0.0-73.0","nf7pn9vt9j","NaN","<div style=""width:500px;"">
                            <p style=""font-size:50px; font-weight:bold;""
                            >positive</p>
                            <div style=""width:240px; margin: auto;"">
                                <img src=""images/gray_39.png"" style= ""width:200px""alt=""img"">
                            </div>
                        </div>","-2","","0","images/gray_39.png","","","","positive"
"","","","","","html-slider-response","78","351243","0.0-74.0","nf7pn9vt9j","NaN","<div style=""width:500px;"">
                            <p style=""font-size:50px; font-weight:bold;""
                            >positive</p>
                            <div style=""width:240px; margin: auto;"">
                                <img src=""images/gray_40.png"" style= ""width:200px""alt=""img"">
                            </div>
                        </div>","-4","","0","images/gray_40.png","","","","positive"
"","","","","","html-slider-response","79","352902","0.0-75.0","nf7pn9vt9j","NaN","<div style=""width:500px;"">
                            <p style=""font-size:50px; font-weight:bold;""
                            >positive</p>
                            <div style=""width:240px; margin: auto;"">
                                <img src=""images/gray_04.png"" style= ""width:200px""alt=""img"">
                            </div>
                        </div>","-200","","0","images/gray_04.png","","","","positive"
"","","","","","html-slider-response","80","355333","0.0-76.0","nf7pn9vt9j","NaN","<div style=""width:500px;"">
                            <p style=""font-size:50px; font-weight:bold;""
                            >positive</p>
                            <div style=""width:240px; margin: auto;"">
                                <img src=""images/gray_21.png"" style= ""width:200px""alt=""img"">
                            </div>
                        </div>","110","","0","images/gray_21.png","","","","positive"
"","","","","","html-slider-response","81","357346","0.0-77.0","nf7pn9vt9j","NaN","<div style=""width:500px;"">
                            <p style=""font-size:50px; font-weight:bold;""
                            >positive</p>
                            <div style=""width:240px; margin: auto;"">
                                <img src=""images/gray_10.png"" style= ""width:200px""alt=""img"">
                            </div>
                        </div>","128","","0","images/gray_10.png","","","","positive"
"","","","","","html-slider-response","82","359131","0.0-78.0","nf7pn9vt9j","NaN","<div style=""width:500px;"">
                            <p style=""font-size:50px; font-weight:bold;""
                            >positive</p>
                            <div style=""width:240px; margin: auto;"">
                                <img src=""images/gray_43.png"" style= ""width:200px""alt=""img"">
                            </div>
                        </div>","-200","","0","images/gray_43.png","","","","positive"
"","","","","","html-slider-response","83","360994","0.0-79.0","nf7pn9vt9j","NaN","<div style=""width:500px;"">
                            <p style=""font-size:50px; font-weight:bold;""
                            >positive</p>
                            <div style=""width:240px; margin: auto;"">
                                <img src=""images/gray_44.png"" style= ""width:200px""alt=""img"">
                            </div>
                        </div>","-200","","0","images/gray_44.png","","","","positive"
"","","","","","html-slider-response","84","362801","0.0-80.0","nf7pn9vt9j","NaN","<div style=""width:500px;"">
                            <p style=""font-size:50px; font-weight:bold;""
                            >positive</p>
                            <div style=""width:240px; margin: auto;"">
                                <img src=""images/gray_08.png"" style= ""width:200px""alt=""img"">
                            </div>
                        </div>","-200","","0","images/gray_08.png","","","","positive"
"","","","","","html-slider-response","85","364672","0.0-81.0","nf7pn9vt9j","NaN","<div style=""width:500px;"">
                            <p style=""font-size:50px; font-weight:bold;""
                            >positive</p>
                            <div style=""width:240px; margin: auto;"">
                                <img src=""images/gray_38.png"" style= ""width:200px""alt=""img"">
                            </div>
                        </div>","-200","","0","images/gray_38.png","","","","positive"
"","","","","","html-slider-response","86","366460","0.0-82.0","nf7pn9vt9j","NaN","<div style=""width:500px;"">
                            <p style=""font-size:50px; font-weight:bold;""
                            >positive</p>
                            <div style=""width:240px; margin: auto;"">
                                <img src=""images/gray_35.png"" style= ""width:200px""alt=""img"">
                            </div>
                        </div>","-94","","0","images/gray_35.png","","","","positive"
"","","","","","html-slider-response","87","368984","0.0-83.0","nf7pn9vt9j","NaN","<div style=""width:500px;"">
                            <p style=""font-size:50px; font-weight:bold;""
                            >positive</p>
                            <div style=""width:240px; margin: auto;"">
                                <img src=""images/gray_14.png"" style= ""width:200px""alt=""img"">
                            </div>
                        </div>","113","","0","images/gray_14.png","","","","positive"
"","","","","","html-slider-response","88","371120","0.0-84.0","nf7pn9vt9j","NaN","<div style=""width:500px;"">
                            <p style=""font-size:50px; font-weight:bold;""
                            >positive</p>
                            <div style=""width:240px; margin: auto;"">
                                <img src=""images/gray_27.png"" style= ""width:200px""alt=""img"">
                            </div>
                        </div>","200","","0","images/gray_27.png","","","","positive"
"","","","","","html-slider-response","89","373183","0.0-85.0","nf7pn9vt9j","NaN","<div style=""width:500px;"">
                            <p style=""font-size:50px; font-weight:bold;""
                            >positive</p>
                            <div style=""width:240px; margin: auto;"">
                                <img src=""images/gray_28.png"" style= ""width:200px""alt=""img"">
                            </div>
                        </div>","-200","","0","images/gray_28.png","","","","positive"
"","","","","","html-slider-response","90","375281","0.0-86.0","nf7pn9vt9j","NaN","<div style=""width:500px;"">
                            <p style=""font-size:50px; font-weight:bold;""
                            >positive</p>
                            <div style=""width:240px; margin: auto;"">
                                <img src=""images/gray_13.png"" style= ""width:200px""alt=""img"">
                            </div>
                        </div>","-194","","0","images/gray_13.png","","","","positive"
"","","","","","html-slider-response","91","379817","0.0-87.0","nf7pn9vt9j","NaN","<div style=""width:500px;"">
                            <p style=""font-size:50px; font-weight:bold;""
                            >positive</p>
                            <div style=""width:240px; margin: auto;"">
                                <img src=""images/gray_29.png"" style= ""width:200px""alt=""img"">
                            </div>
                        </div>","115","","0","images/gray_29.png","","","","positive"
"","","","","","html-slider-response","92","387602","0.0-88.0","nf7pn9vt9j","NaN","<div style=""width:500px;"">
                            <p style=""font-size:50px; font-weight:bold;""
                            >positive</p>
                            <div style=""width:240px; margin: auto;"">
                                <img src=""images/gray_20.png"" style= ""width:200px""alt=""img"">
                            </div>
                        </div>","-2","","0","images/gray_20.png","","","","positive"
"","","","","","html-slider-response","93","394025","0.0-89.0","nf7pn9vt9j","NaN","<div style=""width:500px;"">
                            <p style=""font-size:50px; font-weight:bold;""
                            >positive</p>
                            <div style=""width:240px; margin: auto;"">
                                <img src=""images/gray_23.png"" style= ""width:200px""alt=""img"">
                            </div>
                        </div>","123","","0","images/gray_23.png","","","","positive"
"","","","","","html-slider-response","94","397682","0.0-90.0","nf7pn9vt9j","NaN","<div style=""width:500px;"">
                            <p style=""font-size:50px; font-weight:bold;""
                            >positive</p>
                            <div style=""width:240px; margin: auto;"">
                                <img src=""images/gray_12.png"" style= ""width:200px""alt=""img"">
                            </div>
                        </div>","-200","","0","images/gray_12.png","","","","positive"
"","","","","","html-slider-response","95","400048","0.0-91.0","nf7pn9vt9j","NaN","<div style=""width:500px;"">
                            <p style=""font-size:50px; font-weight:bold;""
                            >positive</p>
                            <div style=""width:240px; margin: auto;"">
                                <img src=""images/gray_26.png"" style= ""width:200px""alt=""img"">
                            </div>
                        </div>","112","","0","images/gray_26.png","","","","positive"
"","","","","","html-slider-response","96","402845","0.0-92.0","nf7pn9vt9j","NaN","<div style=""width:500px;"">
                            <p style=""font-size:50px; font-weight:bold;""
                            >positive</p>
                            <div style=""width:240px; margin: auto;"">
                                <img src=""images/gray_36.png"" style= ""width:200px""alt=""img"">
                            </div>
                        </div>","-200","","0","images/gray_36.png","","","","positive"
"","","","","","html-slider-response","97","405386","0.0-93.0","nf7pn9vt9j","NaN","<div style=""width:500px;"">
                            <p style=""font-size:50px; font-weight:bold;""
                            >positive</p>
                            <div style=""width:240px; margin: auto;"">
                                <img src=""images/gray_31.png"" style= ""width:200px""alt=""img"">
                            </div>
                        </div>","-200","","0","images/gray_31.png","","","","positive"
"","","","","","html-slider-response","98","407445","0.0-94.0","nf7pn9vt9j","NaN","<div style=""width:500px;"">
                            <p style=""font-size:50px; font-weight:bold;""
                            >positive</p>
                            <div style=""width:240px; margin: auto;"">
                                <img src=""images/gray_06.png"" style= ""width:200px""alt=""img"">
                            </div>
                        </div>","-200","","0","images/gray_06.png","","","","positive"
"","","","","","html-slider-response","99","411282","0.0-95.0","nf7pn9vt9j","NaN","<div style=""width:500px;"">
                            <p style=""font-size:50px; font-weight:bold;""
                            >positive</p>
                            <div style=""width:240px; margin: auto;"">
                                <img src=""images/gray_02.png"" style= ""width:200px""alt=""img"">
                            </div>
                        </div>","109","","0","images/gray_02.png","","","","positive"
"","","","","","html-slider-response","100","413795","0.0-96.0","nf7pn9vt9j","NaN","<div style=""width:500px;"">
                            <p style=""font-size:50px; font-weight:bold;""
                            >positive</p>
                            <div style=""width:240px; margin: auto;"">
                                <img src=""images/gray_01.png"" style= ""width:200px""alt=""img"">
                            </div>
                        </div>","125","","0","images/gray_01.png","","","","positive"
"","","","","","html-slider-response","101","416137","0.0-97.0","nf7pn9vt9j","NaN","<div style=""width:500px;"">
                            <p style=""font-size:50px; font-weight:bold;""
                            >positive</p>
                            <div style=""width:240px; margin: auto;"">
                                <img src=""images/gray_17.png"" style= ""width:200px""alt=""img"">
                            </div>
                        </div>","-197","","0","images/gray_17.png","","","","positive"
"","","","","","html-slider-response","102","419297","0.0-98.0","nf7pn9vt9j","NaN","<div style=""width:500px;"">
                            <p style=""font-size:50px; font-weight:bold;""
                            >positive</p>
                            <div style=""width:240px; margin: auto;"">
                                <img src=""images/gray_03.png"" style= ""width:200px""alt=""img"">
                            </div>
                        </div>","-200","","0","images/gray_03.png","","","","positive"
"","","","","","html-slider-response","103","421253","0.0-99.0","nf7pn9vt9j","NaN","<div style=""width:500px;"">
                            <p style=""font-size:50px; font-weight:bold;""
                            >positive</p>
                            <div style=""width:240px; margin: auto;"">
                                <img src=""images/gray_11.png"" style= ""width:200px""alt=""img"">
                            </div>
                        </div>","-200","","0","images/gray_11.png","","","","positive"
"","","","","","html-slider-response","104","423999","0.0-100.0","nf7pn9vt9j","NaN","<div style=""width:500px;"">
                            <p style=""font-size:50px; font-weight:bold;""
                            >positive</p>
                            <div style=""width:240px; margin: auto;"">
                                <img src=""images/gray_32.png"" style= ""width:200px""alt=""img"">
                            </div>
                        </div>","77","","0","images/gray_32.png","","","","positive"
"","","","","","html-slider-response","105","425928","0.0-101.0","nf7pn9vt9j","NaN","<div style=""width:500px;"">
                            <p style=""font-size:50px; font-weight:bold;""
                            >positive</p>
                            <div style=""width:240px; margin: auto;"">
                                <img src=""images/gray_19.png"" style= ""width:200px""alt=""img"">
                            </div>
                        </div>","-200","","0","images/gray_19.png","","","","positive"
"","","","","","html-slider-response","106","428755","0.0-102.0","nf7pn9vt9j","NaN","<div style=""width:500px;"">
                            <p style=""font-size:50px; font-weight:bold;""
                            >positive</p>
                            <div style=""width:240px; margin: auto;"">
                                <img src=""images/gray_25.png"" style= ""width:200px""alt=""img"">
                            </div>
                        </div>","-1","","0","images/gray_25.png","","","","positive"
"","","","","","html-slider-response","107","430859","0.0-103.0","nf7pn9vt9j","NaN","<div style=""width:500px;"">
                            <p style=""font-size:50px; font-weight:bold;""
                            >positive</p>
                            <div style=""width:240px; margin: auto;"">
                                <img src=""images/gray_09.png"" style= ""width:200px""alt=""img"">
                            </div>
                        </div>","4","","0","images/gray_09.png","","","","positive"
"","","","","","html-button-response","108","432411","0.0-104.0","nf7pn9vt9j","1040","<p>Great Job! You've finished block 2.<br></br> You have 6 block(s) left to go.<br></br></p>","0","","","","","","",""
"","","","","","html-button-response","109","433831","0.0-105.0","nf7pn9vt9j","1419","<p>In this block of trials, you will be asked to rate how much you associate each map with:</p > <p style = 'font-size:150%; font-weight: bold'>disturbing</p><br></br>","0","","","","","","",""
"","","","","","html-slider-response","110","437611","0.0-106.0","nf7pn9vt9j","NaN","<div style=""width:500px;"">
                            <p style=""font-size:50px; font-weight:bold;""
                            >disturbing</p>
                            <div style=""width:240px; margin: auto;"">
                                <img src=""images/gray_43.png"" style= ""width:200px""alt=""img"">
                            </div>
                        </div>","-200","","0","images/gray_43.png","","","","disturbing"
"","","","","","html-slider-response","111","439622","0.0-107.0","nf7pn9vt9j","NaN","<div style=""width:500px;"">
                            <p style=""font-size:50px; font-weight:bold;""
                            >disturbing</p>
                            <div style=""width:240px; margin: auto;"">
                                <img src=""images/gray_44.png"" style= ""width:200px""alt=""img"">
                            </div>
                        </div>","-200","","0","images/gray_44.png","","","","disturbing"
"","","","","","html-slider-response","112","441944","0.0-108.0","nf7pn9vt9j","NaN","<div style=""width:500px;"">
                            <p style=""font-size:50px; font-weight:bold;""
                            >disturbing</p>
                            <div style=""width:240px; margin: auto;"">
                                <img src=""images/gray_01.png"" style= ""width:200px""alt=""img"">
                            </div>
                        </div>","-200","","0","images/gray_01.png","","","","disturbing"
"","","","","","html-slider-response","113","443999","0.0-109.0","nf7pn9vt9j","NaN","<div style=""width:500px;"">
                            <p style=""font-size:50px; font-weight:bold;""
                            >disturbing</p>
                            <div style=""width:240px; margin: auto;"">
                                <img src=""images/gray_10.png"" style= ""width:200px""alt=""img"">
                            </div>
                        </div>","-200","","0","images/gray_10.png","","","","disturbing"
"","","","","","html-slider-response","114","445826","0.0-110.0","nf7pn9vt9j","NaN","<div style=""width:500px;"">
                            <p style=""font-size:50px; font-weight:bold;""
                            >disturbing</p>
                            <div style=""width:240px; margin: auto;"">
                                <img src=""images/gray_08.png"" style= ""width:200px""alt=""img"">
                            </div>
                        </div>","-200","","0","images/gray_08.png","","","","disturbing"
"","","","","","html-slider-response","115","447292","0.0-111.0","nf7pn9vt9j","NaN","<div style=""width:500px;"">
                            <p style=""font-size:50px; font-weight:bold;""
                            >disturbing</p>
                            <div style=""width:240px; margin: auto;"">
                                <img src=""images/gray_24.png"" style= ""width:200px""alt=""img"">
                            </div>
                        </div>","-200","","0","images/gray_24.png","","","","disturbing"
"","","","","","html-slider-response","116","449053","0.0-112.0","nf7pn9vt9j","NaN","<div style=""width:500px;"">
                            <p style=""font-size:50px; font-weight:bold;""
                            >disturbing</p>
                            <div style=""width:240px; margin: auto;"">
                                <img src=""images/gray_26.png"" style= ""width:200px""alt=""img"">
                            </div>
                        </div>","-200","","0","images/gray_26.png","","","","disturbing"
"","","","","","html-slider-response","117","450827","0.0-113.0","nf7pn9vt9j","NaN","<div style=""width:500px;"">
                            <p style=""font-size:50px; font-weight:bold;""
                            >disturbing</p>
                            <div style=""width:240px; margin: auto;"">
                                <img src=""images/gray_17.png"" style= ""width:200px""alt=""img"">
                            </div>
                        </div>","-200","","0","images/gray_17.png","","","","disturbing"
"","","","","","html-slider-response","118","455147","0.0-114.0","nf7pn9vt9j","NaN","<div style=""width:500px;"">
                            <p style=""font-size:50px; font-weight:bold;""
                            >disturbing</p>
                            <div style=""width:240px; margin: auto;"">
                                <img src=""images/gray_21.png"" style= ""width:200px""alt=""img"">
                            </div>
                        </div>","2","","0","images/gray_21.png","","","","disturbing"
"","","","","","html-slider-response","119","456925","0.0-115.0","nf7pn9vt9j","NaN","<div style=""width:500px;"">
                            <p style=""font-size:50px; font-weight:bold;""
                            >disturbing</p>
                            <div style=""width:240px; margin: auto;"">
                                <img src=""images/gray_34.png"" style= ""width:200px""alt=""img"">
                            </div>
                        </div>","-200","","0","images/gray_34.png","","","","disturbing"
"","","","","","html-slider-response","120","459476","0.0-116.0","nf7pn9vt9j","NaN","<div style=""width:500px;"">
                            <p style=""font-size:50px; font-weight:bold;""
                            >disturbing</p>
                            <div style=""width:240px; margin: auto;"">
                                <img src=""images/gray_35.png"" style= ""width:200px""alt=""img"">
                            </div>
                        </div>","-200","","0","images/gray_35.png","","","","disturbing"
"","","","","","html-slider-response","121","461497","0.0-117.0","nf7pn9vt9j","NaN","<div style=""width:500px;"">
                            <p style=""font-size:50px; font-weight:bold;""
                            >disturbing</p>
                            <div style=""width:240px; margin: auto;"">
                                <img src=""images/gray_06.png"" style= ""width:200px""alt=""img"">
                            </div>
                        </div>","-200","","0","images/gray_06.png","","","","disturbing"
"","","","","","html-slider-response","122","463262","0.0-118.0","nf7pn9vt9j","NaN","<div style=""width:500px;"">
                            <p style=""font-size:50px; font-weight:bold;""
                            >disturbing</p>
                            <div style=""width:240px; margin: auto;"">
                                <img src=""images/gray_03.png"" style= ""width:200px""alt=""img"">
                            </div>
                        </div>","-200","","0","images/gray_03.png","","","","disturbing"
"","","","","","html-slider-response","123","465162","0.0-119.0","nf7pn9vt9j","NaN","<div style=""width:500px;"">
                            <p style=""font-size:50px; font-weight:bold;""
                            >disturbing</p>
                            <div style=""width:240px; margin: auto;"">
                                <img src=""images/gray_28.png"" style= ""width:200px""alt=""img"">
                            </div>
                        </div>","1","","0","images/gray_28.png","","","","disturbing"
"","","","","","html-slider-response","124","467320","0.0-120.0","nf7pn9vt9j","NaN","<div style=""width:500px;"">
                            <p style=""font-size:50px; font-weight:bold;""
                            >disturbing</p>
                            <div style=""width:240px; margin: auto;"">
                                <img src=""images/gray_22.png"" style= ""width:200px""alt=""img"">
                            </div>
                        </div>","-2","","0","images/gray_22.png","","","","disturbing"
"","","","","","html-slider-response","125","468962","0.0-121.0","nf7pn9vt9j","NaN","<div style=""width:500px;"">
                            <p style=""font-size:50px; font-weight:bold;""
                            >disturbing</p>
                            <div style=""width:240px; margin: auto;"">
                                <img src=""images/gray_42.png"" style= ""width:200px""alt=""img"">
                            </div>
                        </div>","-200","","0","images/gray_42.png","","","","disturbing"
"","","","","","html-slider-response","126","470378","0.0-122.0","nf7pn9vt9j","NaN","<div style=""width:500px;"">
                            <p style=""font-size:50px; font-weight:bold;""
                            >disturbing</p>
                            <div style=""width:240px; margin: auto;"">
                                <img src=""images/gray_14.png"" style= ""width:200px""alt=""img"">
                            </div>
                        </div>","6","","0","images/gray_14.png","","","","disturbing"
"","","","","","html-slider-response","127","472182","0.0-123.0","nf7pn9vt9j","NaN","<div style=""width:500px;"">
                            <p style=""font-size:50px; font-weight:bold;""
                            >disturbing</p>
                            <div style=""width:240px; margin: auto;"">
                                <img src=""images/gray_38.png"" style= ""width:200px""alt=""img"">
                            </div>
                        </div>","-200","","0","images/gray_38.png","","","","disturbing"
"","","","","","html-slider-response","128","474100","0.0-124.0","nf7pn9vt9j","NaN","<div style=""width:500px;"">
                            <p style=""font-size:50px; font-weight:bold;""
                            >disturbing</p>
                            <div style=""width:240px; margin: auto;"">
                                <img src=""images/gray_02.png"" style= ""width:200px""alt=""img"">
                            </div>
                        </div>","-200","","0","images/gray_02.png","","","","disturbing"
"","","","","","html-slider-response","129","475833","0.0-125.0","nf7pn9vt9j","NaN","<div style=""width:500px;"">
                            <p style=""font-size:50px; font-weight:bold;""
                            >disturbing</p>
                            <div style=""width:240px; margin: auto;"">
                                <img src=""images/gray_36.png"" style= ""width:200px""alt=""img"">
                            </div>
                        </div>","-1","","0","images/gray_36.png","","","","disturbing"
"","","","","","html-slider-response","130","477334","0.0-126.0","nf7pn9vt9j","NaN","<div style=""width:500px;"">
                            <p style=""font-size:50px; font-weight:bold;""
                            >disturbing</p>
                            <div style=""width:240px; margin: auto;"">
                                <img src=""images/gray_11.png"" style= ""width:200px""alt=""img"">
                            </div>
                        </div>","-200","","0","images/gray_11.png","","","","disturbing"
"","","","","","html-slider-response","131","478900","0.0-127.0","nf7pn9vt9j","NaN","<div style=""width:500px;"">
                            <p style=""font-size:50px; font-weight:bold;""
                            >disturbing</p>
                            <div style=""width:240px; margin: auto;"">
                                <img src=""images/gray_04.png"" style= ""width:200px""alt=""img"">
                            </div>
                        </div>","-200","","0","images/gray_04.png","","","","disturbing"
"","","","","","html-slider-response","132","480188","0.0-128.0","nf7pn9vt9j","NaN","<div style=""width:500px;"">
                            <p style=""font-size:50px; font-weight:bold;""
                            >disturbing</p>
                            <div style=""width:240px; margin: auto;"">
                                <img src=""images/gray_37.png"" style= ""width:200px""alt=""img"">
                            </div>
                        </div>","-200","","0","images/gray_37.png","","","","disturbing"
"","","","","","html-slider-response","133","481621","0.0-129.0","nf7pn9vt9j","NaN","<div style=""width:500px;"">
                            <p style=""font-size:50px; font-weight:bold;""
                            >disturbing</p>
                            <div style=""width:240px; margin: auto;"">
                                <img src=""images/gray_27.png"" style= ""width:200px""alt=""img"">
                            </div>
                        </div>","-200","","0","images/gray_27.png","","","","disturbing"
"","","","","","html-slider-response","134","482182","0.0-130.0","nf7pn9vt9j","NaN","<div style=""width:500px;"">
                            <p style=""font-size:50px; font-weight:bold;""
                            >disturbing</p>
                            <div style=""width:240px; margin: auto;"">
                                <img src=""images/gray_09.png"" style= ""width:200px""alt=""img"">
                            </div>
                        </div>","-23","","0","images/gray_09.png","","","","disturbing"
"","","","","","html-slider-response","135","484916","0.0-131.0","nf7pn9vt9j","NaN","<div style=""width:500px;"">
                            <p style=""font-size:50px; font-weight:bold;""
                            >disturbing</p>
                            <div style=""width:240px; margin: auto;"">
                                <img src=""images/gray_19.png"" style= ""width:200px""alt=""img"">
                            </div>
                        </div>","-105","","0","images/gray_19.png","","","","disturbing"
"","","","","","html-slider-response","136","486681","0.0-132.0","nf7pn9vt9j","NaN","<div style=""width:500px;"">
                            <p style=""font-size:50px; font-weight:bold;""
                            >disturbing</p>
                            <div style=""width:240px; margin: auto;"">
                                <img src=""images/gray_30.png"" style= ""width:200px""alt=""img"">
                            </div>
                        </div>","-200","","0","images/gray_30.png","","","","disturbing"
"","","","","","html-slider-response","137","488675","0.0-133.0","nf7pn9vt9j","NaN","<div style=""width:500px;"">
                            <p style=""font-size:50px; font-weight:bold;""
                            >disturbing</p>
                            <div style=""width:240px; margin: auto;"">
                                <img src=""images/gray_29.png"" style= ""width:200px""alt=""img"">
                            </div>
                        </div>","0","","0","images/gray_29.png","","","","disturbing"
"","","","","","html-slider-response","138","490245","0.0-134.0","nf7pn9vt9j","NaN","<div style=""width:500px;"">
                            <p style=""font-size:50px; font-weight:bold;""
                            >disturbing</p>
                            <div style=""width:240px; margin: auto;"">
                                <img src=""images/gray_40.png"" style= ""width:200px""alt=""img"">
                            </div>
                        </div>","-200","","0","images/gray_40.png","","","","disturbing"
"","","","","","html-slider-response","139","491963","0.0-135.0","nf7pn9vt9j","NaN","<div style=""width:500px;"">
                            <p style=""font-size:50px; font-weight:bold;""
                            >disturbing</p>
                            <div style=""width:240px; margin: auto;"">
                                <img src=""images/gray_39.png"" style= ""width:200px""alt=""img"">
                            </div>
                        </div>","-200","","0","images/gray_39.png","","","","disturbing"
"","","","","","html-slider-response","140","493813","0.0-136.0","nf7pn9vt9j","NaN","<div style=""width:500px;"">
                            <p style=""font-size:50px; font-weight:bold;""
                            >disturbing</p>
                            <div style=""width:240px; margin: auto;"">
                                <img src=""images/gray_33.png"" style= ""width:200px""alt=""img"">
                            </div>
                        </div>","-200","","0","images/gray_33.png","","","","disturbing"
"","","","","","html-slider-response","141","495751","0.0-137.0","nf7pn9vt9j","NaN","<div style=""width:500px;"">
                            <p style=""font-size:50px; font-weight:bold;""
                            >disturbing</p>
                            <div style=""width:240px; margin: auto;"">
                                <img src=""images/gray_15.png"" style= ""width:200px""alt=""img"">
                            </div>
                        </div>","-187","","0","images/gray_15.png","","","","disturbing"
"","","","","","html-slider-response","142","497677","0.0-138.0","nf7pn9vt9j","NaN","<div style=""width:500px;"">
                            <p style=""font-size:50px; font-weight:bold;""
                            >disturbing</p>
                            <div style=""width:240px; margin: auto;"">
                                <img src=""images/gray_07.png"" style= ""width:200px""alt=""img"">
                            </div>
                        </div>","7","","0","images/gray_07.png","","","","disturbing"
"","","","","","html-slider-response","143","500094","0.0-139.0","nf7pn9vt9j","NaN","<div style=""width:500px;"">
                            <p style=""font-size:50px; font-weight:bold;""
                            >disturbing</p>
                            <div style=""width:240px; margin: auto;"">
                                <img src=""images/gray_12.png"" style= ""width:200px""alt=""img"">
                            </div>
                        </div>","-200","","0","images/gray_12.png","","","","disturbing"
"","","","","","html-slider-response","144","502369","0.0-140.0","nf7pn9vt9j","NaN","<div style=""width:500px;"">
                            <p style=""font-size:50px; font-weight:bold;""
                            >disturbing</p>
                            <div style=""width:240px; margin: auto;"">
                                <img src=""images/gray_05.png"" style= ""width:200px""alt=""img"">
                            </div>
                        </div>","-200","","0","images/gray_05.png","","","","disturbing"
"","","","","","html-slider-response","145","508042","0.0-141.0","nf7pn9vt9j","NaN","<div style=""width:500px;"">
                            <p style=""font-size:50px; font-weight:bold;""
                            >disturbing</p>
                            <div style=""width:240px; margin: auto;"">
                                <img src=""images/gray_20.png"" style= ""width:200px""alt=""img"">
                            </div>
                        </div>","0","","0","images/gray_20.png","","","","disturbing"
"","","","","","html-slider-response","146","509652","0.0-142.0","nf7pn9vt9j","NaN","<div style=""width:500px;"">
                            <p style=""font-size:50px; font-weight:bold;""
                            >disturbing</p>
                            <div style=""width:240px; margin: auto;"">
                                <img src=""images/gray_18.png"" style= ""width:200px""alt=""img"">
                            </div>
                        </div>","-200","","0","images/gray_18.png","","","","disturbing"
"","","","","","html-slider-response","147","511494","0.0-143.0","nf7pn9vt9j","NaN","<div style=""width:500px;"">
                            <p style=""font-size:50px; font-weight:bold;""
                            >disturbing</p>
                            <div style=""width:240px; margin: auto;"">
                                <img src=""images/gray_13.png"" style= ""width:200px""alt=""img"">
                            </div>
                        </div>","-200","","0","images/gray_13.png","","","","disturbing"
"","","","","","html-slider-response","148","513442","0.0-144.0","nf7pn9vt9j","NaN","<div style=""width:500px;"">
                            <p style=""font-size:50px; font-weight:bold;""
                            >disturbing</p>
                            <div style=""width:240px; margin: auto;"">
                                <img src=""images/gray_31.png"" style= ""width:200px""alt=""img"">
                            </div>
                        </div>","-1","","0","images/gray_31.png","","","","disturbing"
"","","","","","html-slider-response","149","515350","0.0-145.0","nf7pn9vt9j","NaN","<div style=""width:500px;"">
                            <p style=""font-size:50px; font-weight:bold;""
                            >disturbing</p>
                            <div style=""width:240px; margin: auto;"">
                                <img src=""images/gray_25.png"" style= ""width:200px""alt=""img"">
                            </div>
                        </div>","-200","","0","images/gray_25.png","","","","disturbing"
"","","","","","html-slider-response","150","518901","0.0-146.0","nf7pn9vt9j","NaN","<div style=""width:500px;"">
                            <p style=""font-size:50px; font-weight:bold;""
                            >disturbing</p>
                            <div style=""width:240px; margin: auto;"">
                                <img src=""images/gray_23.png"" style= ""width:200px""alt=""img"">
                            </div>
                        </div>","-2","","0","images/gray_23.png","","","","disturbing"
"","","","","","html-slider-response","151","520489","0.0-147.0","nf7pn9vt9j","NaN","<div style=""width:500px;"">
                            <p style=""font-size:50px; font-weight:bold;""
                            >disturbing</p>
                            <div style=""width:240px; margin: auto;"">
                                <img src=""images/gray_32.png"" style= ""width:200px""alt=""img"">
                            </div>
                        </div>","-200","","0","images/gray_32.png","","","","disturbing"
"","","","","","html-slider-response","152","522224","0.0-148.0","nf7pn9vt9j","NaN","<div style=""width:500px;"">
                            <p style=""font-size:50px; font-weight:bold;""
                            >disturbing</p>
                            <div style=""width:240px; margin: auto;"">
                                <img src=""images/gray_16.png"" style= ""width:200px""alt=""img"">
                            </div>
                        </div>","-200","","0","images/gray_16.png","","","","disturbing"
"","","","","","html-slider-response","153","524058","0.0-149.0","nf7pn9vt9j","NaN","<div style=""width:500px;"">
                            <p style=""font-size:50px; font-weight:bold;""
                            >disturbing</p>
                            <div style=""width:240px; margin: auto;"">
                                <img src=""images/gray_41.png"" style= ""width:200px""alt=""img"">
                            </div>
                        </div>","-200","","0","images/gray_41.png","","","","disturbing"
"","","","","","html-button-response","154","525531","0.0-150.0","nf7pn9vt9j","970","<p>Great Job! You've finished block 3.<br></br> You have 5 block(s) left to go.<br></br></p>","0","","","","","","",""
"","","","","","html-button-response","155","526778","0.0-151.0","nf7pn9vt9j","1246","<p>In this block of trials, you will be asked to rate how much you associate each map with:</p > <p style = 'font-size:150%; font-weight: bold'>playful</p><br></br>","0","","","","","","",""
"","","","","","html-slider-response","156","529177","0.0-152.0","nf7pn9vt9j","NaN","<div style=""width:500px;"">
                            <p style=""font-size:50px; font-weight:bold;""
                            >playful</p>
                            <div style=""width:240px; margin: auto;"">
                                <img src=""images/gray_29.png"" style= ""width:200px""alt=""img"">
                            </div>
                        </div>","-200","","0","images/gray_29.png","","","","playful"
"","","","","","html-slider-response","157","531054","0.0-153.0","nf7pn9vt9j","NaN","<div style=""width:500px;"">
                            <p style=""font-size:50px; font-weight:bold;""
                            >playful</p>
                            <div style=""width:240px; margin: auto;"">
                                <img src=""images/gray_20.png"" style= ""width:200px""alt=""img"">
                            </div>
                        </div>","1","","0","images/gray_20.png","","","","playful"
"","","","","","html-slider-response","158","532806","0.0-154.0","nf7pn9vt9j","NaN","<div style=""width:500px;"">
                            <p style=""font-size:50px; font-weight:bold;""
                            >playful</p>
                            <div style=""width:240px; margin: auto;"">
                                <img src=""images/gray_08.png"" style= ""width:200px""alt=""img"">
                            </div>
                        </div>","-200","","0","images/gray_08.png","","","","playful"
"","","","","","html-slider-response","159","534195","0.0-155.0","nf7pn9vt9j","NaN","<div style=""width:500px;"">
                            <p style=""font-size:50px; font-weight:bold;""
                            >playful</p>
                            <div style=""width:240px; margin: auto;"">
                                <img src=""images/gray_25.png"" style= ""width:200px""alt=""img"">
                            </div>
                        </div>","2","","0","images/gray_25.png","","","","playful"
"","","","","","html-slider-response","160","535520","0.0-156.0","nf7pn9vt9j","NaN","<div style=""width:500px;"">
                            <p style=""font-size:50px; font-weight:bold;""
                            >playful</p>
                            <div style=""width:240px; margin: auto;"">
                                <img src=""images/gray_37.png"" style= ""width:200px""alt=""img"">
                            </div>
                        </div>","2","","0","images/gray_37.png","","","","playful"
"","","","","","html-slider-response","161","537486","0.0-157.0","nf7pn9vt9j","NaN","<div style=""width:500px;"">
                            <p style=""font-size:50px; font-weight:bold;""
                            >playful</p>
                            <div style=""width:240px; margin: auto;"">
                                <img src=""images/gray_01.png"" style= ""width:200px""alt=""img"">
                            </div>
                        </div>","-200","","0","images/gray_01.png","","","","playful"
"","","","","","html-slider-response","162","539386","0.0-158.0","nf7pn9vt9j","NaN","<div style=""width:500px;"">
                            <p style=""font-size:50px; font-weight:bold;""
                            >playful</p>
                            <div style=""width:240px; margin: auto;"">
                                <img src=""images/gray_18.png"" style= ""width:200px""alt=""img"">
                            </div>
                        </div>","4","","0","images/gray_18.png","","","","playful"
"","","","","","html-slider-response","163","541027","0.0-159.0","nf7pn9vt9j","NaN","<div style=""width:500px;"">
                            <p style=""font-size:50px; font-weight:bold;""
                            >playful</p>
                            <div style=""width:240px; margin: auto;"">
                                <img src=""images/gray_32.png"" style= ""width:200px""alt=""img"">
                            </div>
                        </div>","-200","","0","images/gray_32.png","","","","playful"
"","","","","","html-slider-response","164","543162","0.0-160.0","nf7pn9vt9j","NaN","<div style=""width:500px;"">
                            <p style=""font-size:50px; font-weight:bold;""
                            >playful</p>
                            <div style=""width:240px; margin: auto;"">
                                <img src=""images/gray_12.png"" style= ""width:200px""alt=""img"">
                            </div>
                        </div>","-200","","0","images/gray_12.png","","","","playful"
"","","","","","html-slider-response","165","545401","0.0-161.0","nf7pn9vt9j","NaN","<div style=""width:500px;"">
                            <p style=""font-size:50px; font-weight:bold;""
                            >playful</p>
                            <div style=""width:240px; margin: auto;"">
                                <img src=""images/gray_13.png"" style= ""width:200px""alt=""img"">
                            </div>
                        </div>","2","","0","images/gray_13.png","","","","playful"
"","","","","","html-slider-response","166","546877","0.0-162.0","nf7pn9vt9j","NaN","<div style=""width:500px;"">
                            <p style=""font-size:50px; font-weight:bold;""
                            >playful</p>
                            <div style=""width:240px; margin: auto;"">
                                <img src=""images/gray_23.png"" style= ""width:200px""alt=""img"">
                            </div>
                        </div>","-200","","0","images/gray_23.png","","","","playful"
"","","","","","html-slider-response","167","548660","0.0-163.0","nf7pn9vt9j","NaN","<div style=""width:500px;"">
                            <p style=""font-size:50px; font-weight:bold;""
                            >playful</p>
                            <div style=""width:240px; margin: auto;"">
                                <img src=""images/gray_31.png"" style= ""width:200px""alt=""img"">
                            </div>
                        </div>","-200","","0","images/gray_31.png","","","","playful"
"","","","","","html-slider-response","168","550505","0.0-164.0","nf7pn9vt9j","NaN","<div style=""width:500px;"">
                            <p style=""font-size:50px; font-weight:bold;""
                            >playful</p>
                            <div style=""width:240px; margin: auto;"">
                                <img src=""images/gray_09.png"" style= ""width:200px""alt=""img"">
                            </div>
                        </div>","-200","","0","images/gray_09.png","","","","playful"
"","","","","","html-slider-response","169","551973","0.0-165.0","nf7pn9vt9j","NaN","<div style=""width:500px;"">
                            <p style=""font-size:50px; font-weight:bold;""
                            >playful</p>
                            <div style=""width:240px; margin: auto;"">
                                <img src=""images/gray_05.png"" style= ""width:200px""alt=""img"">
                            </div>
                        </div>","2","","0","images/gray_05.png","","","","playful"
"","","","","","html-slider-response","170","553632","0.0-166.0","nf7pn9vt9j","NaN","<div style=""width:500px;"">
                            <p style=""font-size:50px; font-weight:bold;""
                            >playful</p>
                            <div style=""width:240px; margin: auto;"">
                                <img src=""images/gray_38.png"" style= ""width:200px""alt=""img"">
                            </div>
                        </div>","-200","","0","images/gray_38.png","","","","playful"
"","","","","","html-slider-response","171","554978","0.0-167.0","nf7pn9vt9j","NaN","<div style=""width:500px;"">
                            <p style=""font-size:50px; font-weight:bold;""
                            >playful</p>
                            <div style=""width:240px; margin: auto;"">
                                <img src=""images/gray_24.png"" style= ""width:200px""alt=""img"">
                            </div>
                        </div>","6","","0","images/gray_24.png","","","","playful"
"","","","","","html-slider-response","172","556794","0.0-168.0","nf7pn9vt9j","NaN","<div style=""width:500px;"">
                            <p style=""font-size:50px; font-weight:bold;""
                            >playful</p>
                            <div style=""width:240px; margin: auto;"">
                                <img src=""images/gray_19.png"" style= ""width:200px""alt=""img"">
                            </div>
                        </div>","-200","","0","images/gray_19.png","","","","playful"
"","","","","","html-slider-response","173","558611","0.0-169.0","nf7pn9vt9j","NaN","<div style=""width:500px;"">
                            <p style=""font-size:50px; font-weight:bold;""
                            >playful</p>
                            <div style=""width:240px; margin: auto;"">
                                <img src=""images/gray_33.png"" style= ""width:200px""alt=""img"">
                            </div>
                        </div>","130","","0","images/gray_33.png","","","","playful"
"","","","","","html-slider-response","174","560480","0.0-170.0","nf7pn9vt9j","NaN","<div style=""width:500px;"">
                            <p style=""font-size:50px; font-weight:bold;""
                            >playful</p>
                            <div style=""width:240px; margin: auto;"">
                                <img src=""images/gray_35.png"" style= ""width:200px""alt=""img"">
                            </div>
                        </div>","108","","0","images/gray_35.png","","","","playful"
"","","","","","html-slider-response","175","562208","0.0-171.0","nf7pn9vt9j","NaN","<div style=""width:500px;"">
                            <p style=""font-size:50px; font-weight:bold;""
                            >playful</p>
                            <div style=""width:240px; margin: auto;"">
                                <img src=""images/gray_40.png"" style= ""width:200px""alt=""img"">
                            </div>
                        </div>","140","","0","images/gray_40.png","","","","playful"
"","","","","","html-slider-response","176","563983","0.0-172.0","nf7pn9vt9j","NaN","<div style=""width:500px;"">
                            <p style=""font-size:50px; font-weight:bold;""
                            >playful</p>
                            <div style=""width:240px; margin: auto;"">
                                <img src=""images/gray_43.png"" style= ""width:200px""alt=""img"">
                            </div>
                        </div>","108","","0","images/gray_43.png","","","","playful"
"","","","","","html-slider-response","177","565820","0.0-173.0","nf7pn9vt9j","NaN","<div style=""width:500px;"">
                            <p style=""font-size:50px; font-weight:bold;""
                            >playful</p>
                            <div style=""width:240px; margin: auto;"">
                                <img src=""images/gray_36.png"" style= ""width:200px""alt=""img"">
                            </div>
                        </div>","1","","0","images/gray_36.png","","","","playful"
"","","","","","html-slider-response","178","568958","0.0-174.0","nf7pn9vt9j","NaN","<div style=""width:500px;"">
                            <p style=""font-size:50px; font-weight:bold;""
                            >playful</p>
                            <div style=""width:240px; margin: auto;"">
                                <img src=""images/gray_02.png"" style= ""width:200px""alt=""img"">
                            </div>
                        </div>","89","","0","images/gray_02.png","","","","playful"
"","","","","","html-slider-response","179","570949","0.0-175.0","nf7pn9vt9j","NaN","<div style=""width:500px;"">
                            <p style=""font-size:50px; font-weight:bold;""
                            >playful</p>
                            <div style=""width:240px; margin: auto;"">
                                <img src=""images/gray_28.png"" style= ""width:200px""alt=""img"">
                            </div>
                        </div>","-200","","0","images/gray_28.png","","","","playful"
"","","","","","html-slider-response","180","572712","0.0-176.0","nf7pn9vt9j","NaN","<div style=""width:500px;"">
                            <p style=""font-size:50px; font-weight:bold;""
                            >playful</p>
                            <div style=""width:240px; margin: auto;"">
                                <img src=""images/gray_03.png"" style= ""width:200px""alt=""img"">
                            </div>
                        </div>","-200","","0","images/gray_03.png","","","","playful"
"","","","","","html-slider-response","181","574237","0.0-177.0","nf7pn9vt9j","NaN","<div style=""width:500px;"">
                            <p style=""font-size:50px; font-weight:bold;""
                            >playful</p>
                            <div style=""width:240px; margin: auto;"">
                                <img src=""images/gray_22.png"" style= ""width:200px""alt=""img"">
                            </div>
                        </div>","-200","","0","images/gray_22.png","","","","playful"
"","","","","","html-slider-response","182","576011","0.0-178.0","nf7pn9vt9j","NaN","<div style=""width:500px;"">
                            <p style=""font-size:50px; font-weight:bold;""
                            >playful</p>
                            <div style=""width:240px; margin: auto;"">
                                <img src=""images/gray_42.png"" style= ""width:200px""alt=""img"">
                            </div>
                        </div>","-89","","0","images/gray_42.png","","","","playful"
"","","","","","html-slider-response","183","577571","0.0-179.0","nf7pn9vt9j","NaN","<div style=""width:500px;"">
                            <p style=""font-size:50px; font-weight:bold;""
                            >playful</p>
                            <div style=""width:240px; margin: auto;"">
                                <img src=""images/gray_41.png"" style= ""width:200px""alt=""img"">
                            </div>
                        </div>","-200","","0","images/gray_41.png","","","","playful"
"","","","","","html-slider-response","184","579445","0.0-180.0","nf7pn9vt9j","NaN","<div style=""width:500px;"">
                            <p style=""font-size:50px; font-weight:bold;""
                            >playful</p>
                            <div style=""width:240px; margin: auto;"">
                                <img src=""images/gray_44.png"" style= ""width:200px""alt=""img"">
                            </div>
                        </div>","-200","","0","images/gray_44.png","","","","playful"
"","","","","","html-slider-response","185","581146","0.0-181.0","nf7pn9vt9j","NaN","<div style=""width:500px;"">
                            <p style=""font-size:50px; font-weight:bold;""
                            >playful</p>
                            <div style=""width:240px; margin: auto;"">
                                <img src=""images/gray_17.png"" style= ""width:200px""alt=""img"">
                            </div>
                        </div>","-113","","0","images/gray_17.png","","","","playful"
"","","","","","html-slider-response","186","582899","0.0-182.0","nf7pn9vt9j","NaN","<div style=""width:500px;"">
                            <p style=""font-size:50px; font-weight:bold;""
                            >playful</p>
                            <div style=""width:240px; margin: auto;"">
                                <img src=""images/gray_39.png"" style= ""width:200px""alt=""img"">
                            </div>
                        </div>","94","","0","images/gray_39.png","","","","playful"
"","","","","","html-slider-response","187","586431","0.0-183.0","nf7pn9vt9j","NaN","<div style=""width:500px;"">
                            <p style=""font-size:50px; font-weight:bold;""
                            >playful</p>
                            <div style=""width:240px; margin: auto;"">
                                <img src=""images/gray_16.png"" style= ""width:200px""alt=""img"">
                            </div>
                        </div>","109","","0","images/gray_16.png","","","","playful"
"","","","","","html-slider-response","188","588293","0.0-184.0","nf7pn9vt9j","NaN","<div style=""width:500px;"">
                            <p style=""font-size:50px; font-weight:bold;""
                            >playful</p>
                            <div style=""width:240px; margin: auto;"">
                                <img src=""images/gray_15.png"" style= ""width:200px""alt=""img"">
                            </div>
                        </div>","-200","","0","images/gray_15.png","","","","playful"
"","","","","","html-slider-response","189","590187","0.0-185.0","nf7pn9vt9j","NaN","<div style=""width:500px;"">
                            <p style=""font-size:50px; font-weight:bold;""
                            >playful</p>
                            <div style=""width:240px; margin: auto;"">
                                <img src=""images/gray_21.png"" style= ""width:200px""alt=""img"">
                            </div>
                        </div>","-200","","0","images/gray_21.png","","","","playful"
"","","","","","html-slider-response","190","592282","0.0-186.0","nf7pn9vt9j","NaN","<div style=""width:500px;"">
                            <p style=""font-size:50px; font-weight:bold;""
                            >playful</p>
                            <div style=""width:240px; margin: auto;"">
                                <img src=""images/gray_11.png"" style= ""width:200px""alt=""img"">
                            </div>
                        </div>","-95","","0","images/gray_11.png","","","","playful"
"","","","","","html-slider-response","191","594210","0.0-187.0","nf7pn9vt9j","NaN","<div style=""width:500px;"">
                            <p style=""font-size:50px; font-weight:bold;""
                            >playful</p>
                            <div style=""width:240px; margin: auto;"">
                                <img src=""images/gray_14.png"" style= ""width:200px""alt=""img"">
                            </div>
                        </div>","-200","","0","images/gray_14.png","","","","playful"
"","","","","","html-slider-response","192","596103","0.0-188.0","nf7pn9vt9j","NaN","<div style=""width:500px;"">
                            <p style=""font-size:50px; font-weight:bold;""
                            >playful</p>
                            <div style=""width:240px; margin: auto;"">
                                <img src=""images/gray_10.png"" style= ""width:200px""alt=""img"">
                            </div>
                        </div>","-99","","0","images/gray_10.png","","","","playful"
"","","","","","html-slider-response","193","598594","0.0-189.0","nf7pn9vt9j","NaN","<div style=""width:500px;"">
                            <p style=""font-size:50px; font-weight:bold;""
                            >playful</p>
                            <div style=""width:240px; margin: auto;"">
                                <img src=""images/gray_06.png"" style= ""width:200px""alt=""img"">
                            </div>
                        </div>","191","","0","images/gray_06.png","","","","playful"
"","","","","","html-slider-response","194","600497","0.0-190.0","nf7pn9vt9j","NaN","<div style=""width:500px;"">
                            <p style=""font-size:50px; font-weight:bold;""
                            >playful</p>
                            <div style=""width:240px; margin: auto;"">
                                <img src=""images/gray_27.png"" style= ""width:200px""alt=""img"">
                            </div>
                        </div>","-200","","0","images/gray_27.png","","","","playful"
"","","","","","html-slider-response","195","602727","0.0-191.0","nf7pn9vt9j","NaN","<div style=""width:500px;"">
                            <p style=""font-size:50px; font-weight:bold;""
                            >playful</p>
                            <div style=""width:240px; margin: auto;"">
                                <img src=""images/gray_26.png"" style= ""width:200px""alt=""img"">
                            </div>
                        </div>","110","","0","images/gray_26.png","","","","playful"
"","","","","","html-slider-response","196","604604","0.0-192.0","nf7pn9vt9j","NaN","<div style=""width:500px;"">
                            <p style=""font-size:50px; font-weight:bold;""
                            >playful</p>
                            <div style=""width:240px; margin: auto;"">
                                <img src=""images/gray_04.png"" style= ""width:200px""alt=""img"">
                            </div>
                        </div>","-200","","0","images/gray_04.png","","","","playful"
"","","","","","html-slider-response","197","606905","0.0-193.0","nf7pn9vt9j","NaN","<div style=""width:500px;"">
                            <p style=""font-size:50px; font-weight:bold;""
                            >playful</p>
                            <div style=""width:240px; margin: auto;"">
                                <img src=""images/gray_30.png"" style= ""width:200px""alt=""img"">
                            </div>
                        </div>","-196","","0","images/gray_30.png","","","","playful"
"","","","","","html-slider-response","198","609602","0.0-194.0","nf7pn9vt9j","NaN","<div style=""width:500px;"">
                            <p style=""font-size:50px; font-weight:bold;""
                            >playful</p>
