"success","timeout","failed_images","failed_audio","failed_video","trial_type","trial_index","time_elapsed","internal_node_id","subject_id","rt","stimulus","response","question_order","slider_start","image_path","practiceTrial","practiceTrialNum","correct","concept"
"true","false","[]","[]","[]","preload","0","2234","0.0-0.0","nx7lkusyw1","","","","","","","","","",""
"","","","","","html-button-response","1","29753364","0.0-1.0","nx7lkusyw1","5088874","Welcome to our experiment!<p>At the bottom of this screen, you will see a button that says ""Begin Experiment"".<br>Please only click that button when you are ready to complete the 25 minute experiment in one sitting.</p><p> Once you click that button, it will not be possible to restart the experiment.","0","","","","","","",""
"true","","","","","fullscreen","2","29758501","0.0-2.0","nx7lkusyw1","4133","","","","","","","","",""
"","","","","","survey-multi-select","3","29768892","0.0-3.0","nx7lkusyw1","10388","","{""Consent"":[""<strong>I consent</strong>""]}","[0]","","","","","",""
"","","","","","html-button-response","4","29774305","0.0-4.0","nx7lkusyw1","5409","Welcome! <p> This experiment involves two parts: demographic information, followed by the experimental task.<p> It will take about 25 minutes to complete both parts.","0","","","","","","",""
"","","","","","survey-text","5","29794185","0.0-5.0","nx7lkusyw1","19872","","{""Age"":""19"",""Gender"":""male"",""Race/ethnicity"":""white"",""Languages"":""english\nfrench""}","","","","","","",""
"","","","","","html-slider-response","6","29824008","0.0-6.0","nx7lkusyw1","29819","
            <div style='text-align:left; font-size:20px; line-height:25px; width: 1200px;'>
                During this experiment you will be asked to rate how much you associate maps with    different concepts.<br> Below, you can see some examples of the maps you will be asked to rate. Next to the maps
    is the list of concepts.<br>You will be asked    to rate how much you associate each map with each concept on a scale from 'not at all' to 'very much' like the
    one below. <br><br>
    Now, please look at the list of concepts and maps. For each concept, think about the map you associate 'very
    much' with the concept.<br>     When you see that map during the experiment, please rate it near the 'very much' endpoint of the
    scale.<br>Now, please think about which map you associate 'not at all'     with each concept. When you see that map during the experiment, please rate it near the 'not at all' endpoint
    of the scale.<br>
    Please use the full range of the scale. That is, if a map is somewhat associated with the concept, you would
    click partway between the middle point and right side of the scale.    You will be asked to rate each map for a given concept before moving on to the next concept.<br><br>Press the
    'Continue' button for instructions on how to use the slider.    <br><br>
</div>

<div style=""width: 500px; margin: 0 auto;"">
    <div style=""text-align: left; width: 200px; float: left;"">
        <p style=""font-size:25px; line-height:18px;"">calm</p>
        <p style=""font-size:25px; line-height:18px;"">exciting</p>
        <p style=""font-size:25px;line-height:18px;"">positive</p>
        <p style=""font-size:25px;line-height:18px;"">negative</p>
        <p style=""font-size:25px;line-height:18px;"">serious</p>
        <p style=""font-size:25px;line-height:18px;"">playful</p>
        <p style=""font-size:25px;line-height:18px;"">trustworthy</p>
        <p style=""font-size:25px;line-height:18px;"">disturbing</p>
    </div>
    <div style=""width: 200px; float: right; padding-top:15px; padding-right:40px"">
        <br>
        <br>
        <img src=""maps_anchoring.png"" alt=""img"" style=""max-width:500px"">
    </div>
    <div style=""clear: both;""></div>
</div>
            ","42","","0","maps_anchoring.png","true","","",""
"","","","","","html-button-response","7","29831233","0.0-7.0","nx7lkusyw1","7224","<div style=""width:800px;""><p style=""text-align:left"">To move the slider, click and drag your cursor to the location of the scale where you would like to make your rating and then let go. When you let go of the slider, your response will be recorded and the next trial will begin. <br>
            We are interested in your initial impressions of each map for the given concept, so please go with your first intuition. <br>
            Before you begin the experiment, there will be four training trials for you to practice using the scale. <br>
             When you are ready to start the training trials, please click ""Continue"".</p><br></div>","0","","","","","","",""
"","","","","","html-slider-response","8","29836280","0.0-8.0-0.0","nx7lkusyw1","NaN","<div style=""width:500px;"">
                            <p style=""font-size:25px;"">Please move the slider all the way to the <br> right endpoint of the scale</p>

                            </div>
                        </div>","200","","0","","true","0","true",""
"","","","","","html-button-response","9","29843367","0.0-8.0-1.0","nx7lkusyw1","6583","<p align='center'><b>Good job!</b> Click on 'Continue' to proceed.</p>","0","","","","","","",""
"","","","","","html-slider-response","10","29854742","0.0-9.0-0.0","nx7lkusyw1","NaN","<div style=""width:500px;"">
                            <p style=""font-size:25px;"">Please move the slider all the way to the <br> left endpoint of the scale</p>

                            </div>
                        </div>","-200","","0","","true","1","true",""
"","","","","","html-button-response","11","29856492","0.0-9.0-1.0","nx7lkusyw1","1248","<p align='center'><b>Good job!</b> Click on 'Continue' to proceed.</p>","0","","","","","","",""
"","","","","","html-slider-response","12","29861657","0.0-10.0-0.0","nx7lkusyw1","NaN","<div style=""width:500px;"">
                            <p style=""font-size:25px;"">Please move the slider halfway between the center and right endpoint of the scale</p>

                            </div>
                        </div>","98","","0","","true","2","true",""
"","","","","","html-button-response","13","29864140","0.0-10.0-1.0","nx7lkusyw1","1980","<p align='center'><b>Good job!</b> Click on 'Continue' to proceed.</p>","0","","","","","","",""
"","","","","","html-slider-response","14","29866992","0.0-11.0-0.0","nx7lkusyw1","NaN","<div style=""width:500px;"">
                            <p style=""font-size:25px;"">Please move the slider halfway between the center and left endpoint of the scale</p>

                            </div>
                        </div>","-108","","0","","true","3","true",""
"","","","","","html-button-response","15","29868614","0.0-11.0-1.0","nx7lkusyw1","1118","<p align='center'><b>Good job!</b> Click on 'Continue' to proceed.</p>","0","","","","","","",""
"","","","","","html-button-response","16","29869403","0.0-12.0","nx7lkusyw1","788","<p>Great job! You've completed the practice trials. Now you will begin the main task.</p>","0","","","","","","",""
"","","","","","html-button-response","17","29874202","0.0-13.0","nx7lkusyw1","4797","<p>In this block of trials, you will be asked to rate how much you associate each map with:</p > <p style = 'font-size:150%; font-weight: bold'>serious</p><br></br>","0","","","","","","",""
"","","","","","html-slider-response","18","29878419","0.0-14.0","nx7lkusyw1","NaN","<div style=""width:500px;"">
                            <p style=""font-size:50px; font-weight:bold;""
                            >serious</p>
                            <div style=""width:240px; margin: auto;"">
                                <img src=""images/gray_13.png"" style= ""width:200px""alt=""img"">
                            </div>
                        </div>","72","","0","images/gray_13.png","","","","serious"
"","","","","","html-slider-response","19","29882011","0.0-15.0","nx7lkusyw1","NaN","<div style=""width:500px;"">
                            <p style=""font-size:50px; font-weight:bold;""
                            >serious</p>
                            <div style=""width:240px; margin: auto;"">
                                <img src=""images/gray_25.png"" style= ""width:200px""alt=""img"">
                            </div>
                        </div>","-73","","0","images/gray_25.png","","","","serious"
"","","","","","html-slider-response","20","29887126","0.0-16.0","nx7lkusyw1","NaN","<div style=""width:500px;"">
                            <p style=""font-size:50px; font-weight:bold;""
                            >serious</p>
                            <div style=""width:240px; margin: auto;"">
                                <img src=""images/gray_23.png"" style= ""width:200px""alt=""img"">
                            </div>
                        </div>","-58","","0","images/gray_23.png","","","","serious"
"","","","","","html-slider-response","21","29890051","0.0-17.0","nx7lkusyw1","NaN","<div style=""width:500px;"">
                            <p style=""font-size:50px; font-weight:bold;""
                            >serious</p>
                            <div style=""width:240px; margin: auto;"">
                                <img src=""images/gray_05.png"" style= ""width:200px""alt=""img"">
                            </div>
                        </div>","34","","0","images/gray_05.png","","","","serious"
"","","","","","html-slider-response","22","29893714","0.0-18.0","nx7lkusyw1","NaN","<div style=""width:500px;"">
                            <p style=""font-size:50px; font-weight:bold;""
                            >serious</p>
                            <div style=""width:240px; margin: auto;"">
                                <img src=""images/gray_21.png"" style= ""width:200px""alt=""img"">
                            </div>
                        </div>","71","","0","images/gray_21.png","","","","serious"
"","","","","","html-slider-response","23","29896408","0.0-19.0","nx7lkusyw1","NaN","<div style=""width:500px;"">
                            <p style=""font-size:50px; font-weight:bold;""
                            >serious</p>
                            <div style=""width:240px; margin: auto;"">
                                <img src=""images/gray_01.png"" style= ""width:200px""alt=""img"">
                            </div>
                        </div>","89","","0","images/gray_01.png","","","","serious"
"","","","","","html-slider-response","24","29899617","0.0-20.0","nx7lkusyw1","NaN","<div style=""width:500px;"">
                            <p style=""font-size:50px; font-weight:bold;""
                            >serious</p>
                            <div style=""width:240px; margin: auto;"">
                                <img src=""images/gray_24.png"" style= ""width:200px""alt=""img"">
                            </div>
                        </div>","-145","","0","images/gray_24.png","","","","serious"
"","","","","","html-slider-response","25","29904726","0.0-21.0","nx7lkusyw1","NaN","<div style=""width:500px;"">
                            <p style=""font-size:50px; font-weight:bold;""
                            >serious</p>
                            <div style=""width:240px; margin: auto;"">
                                <img src=""images/gray_33.png"" style= ""width:200px""alt=""img"">
                            </div>
                        </div>","8","","0","images/gray_33.png","","","","serious"
"","","","","","html-slider-response","26","29907500","0.0-22.0","nx7lkusyw1","NaN","<div style=""width:500px;"">
                            <p style=""font-size:50px; font-weight:bold;""
                            >serious</p>
                            <div style=""width:240px; margin: auto;"">
                                <img src=""images/gray_17.png"" style= ""width:200px""alt=""img"">
                            </div>
                        </div>","151","","0","images/gray_17.png","","","","serious"
"","","","","","html-slider-response","27","29910135","0.0-23.0","nx7lkusyw1","NaN","<div style=""width:500px;"">
                            <p style=""font-size:50px; font-weight:bold;""
                            >serious</p>
                            <div style=""width:240px; margin: auto;"">
                                <img src=""images/gray_36.png"" style= ""width:200px""alt=""img"">
                            </div>
                        </div>","-87","","0","images/gray_36.png","","","","serious"
"","","","","","html-slider-response","28","29913847","0.0-24.0","nx7lkusyw1","NaN","<div style=""width:500px;"">
                            <p style=""font-size:50px; font-weight:bold;""
                            >serious</p>
                            <div style=""width:240px; margin: auto;"">
                                <img src=""images/gray_02.png"" style= ""width:200px""alt=""img"">
                            </div>
                        </div>","52","","0","images/gray_02.png","","","","serious"
"","","","","","html-slider-response","29","29919819","0.0-25.0","nx7lkusyw1","NaN","<div style=""width:500px;"">
                            <p style=""font-size:50px; font-weight:bold;""
                            >serious</p>
                            <div style=""width:240px; margin: auto;"">
                                <img src=""images/gray_06.png"" style= ""width:200px""alt=""img"">
                            </div>
                        </div>","-165","","0","images/gray_06.png","","","","serious"
"","","","","","html-slider-response","30","29923343","0.0-26.0","nx7lkusyw1","NaN","<div style=""width:500px;"">
                            <p style=""font-size:50px; font-weight:bold;""
                            >serious</p>
                            <div style=""width:240px; margin: auto;"">
                                <img src=""images/gray_43.png"" style= ""width:200px""alt=""img"">
                            </div>
                        </div>","-81","","0","images/gray_43.png","","","","serious"
"","","","","","html-slider-response","31","29927059","0.0-27.0","nx7lkusyw1","NaN","<div style=""width:500px;"">
                            <p style=""font-size:50px; font-weight:bold;""
                            >serious</p>
                            <div style=""width:240px; margin: auto;"">
                                <img src=""images/gray_04.png"" style= ""width:200px""alt=""img"">
                            </div>
                        </div>","155","","0","images/gray_04.png","","","","serious"
"","","","","","html-slider-response","32","29930955","0.0-28.0","nx7lkusyw1","NaN","<div style=""width:500px;"">
                            <p style=""font-size:50px; font-weight:bold;""
                            >serious</p>
                            <div style=""width:240px; margin: auto;"">
                                <img src=""images/gray_34.png"" style= ""width:200px""alt=""img"">
                            </div>
                        </div>","134","","0","images/gray_34.png","","","","serious"
"","","","","","html-slider-response","33","29934727","0.0-29.0","nx7lkusyw1","NaN","<div style=""width:500px;"">
                            <p style=""font-size:50px; font-weight:bold;""
                            >serious</p>
                            <div style=""width:240px; margin: auto;"">
                                <img src=""images/gray_44.png"" style= ""width:200px""alt=""img"">
                            </div>
                        </div>","-160","","0","images/gray_44.png","","","","serious"
"","","","","","html-slider-response","34","29940014","0.0-30.0","nx7lkusyw1","NaN","<div style=""width:500px;"">
                            <p style=""font-size:50px; font-weight:bold;""
                            >serious</p>
                            <div style=""width:240px; margin: auto;"">
                                <img src=""images/gray_31.png"" style= ""width:200px""alt=""img"">
                            </div>
                        </div>","190","","0","images/gray_31.png","","","","serious"
"","","","","","html-slider-response","35","29943098","0.0-31.0","nx7lkusyw1","NaN","<div style=""width:500px;"">
                            <p style=""font-size:50px; font-weight:bold;""
                            >serious</p>
                            <div style=""width:240px; margin: auto;"">
                                <img src=""images/gray_10.png"" style= ""width:200px""alt=""img"">
                            </div>
                        </div>","-127","","0","images/gray_10.png","","","","serious"
"","","","","","html-slider-response","36","29946333","0.0-32.0","nx7lkusyw1","NaN","<div style=""width:500px;"">
                            <p style=""font-size:50px; font-weight:bold;""
                            >serious</p>
                            <div style=""width:240px; margin: auto;"">
                                <img src=""images/gray_11.png"" style= ""width:200px""alt=""img"">
                            </div>
                        </div>","-186","","0","images/gray_11.png","","","","serious"
"","","","","","html-slider-response","37","29959787","0.0-33.0","nx7lkusyw1","NaN","<div style=""width:500px;"">
                            <p style=""font-size:50px; font-weight:bold;""
                            >serious</p>
                            <div style=""width:240px; margin: auto;"">
                                <img src=""images/gray_42.png"" style= ""width:200px""alt=""img"">
                            </div>
                        </div>","54","","0","images/gray_42.png","","","","serious"
"","","","","","html-slider-response","38","29979684","0.0-34.0","nx7lkusyw1","NaN","<div style=""width:500px;"">
                            <p style=""font-size:50px; font-weight:bold;""
                            >serious</p>
                            <div style=""width:240px; margin: auto;"">
                                <img src=""images/gray_18.png"" style= ""width:200px""alt=""img"">
                            </div>
                        </div>","-161","","0","images/gray_18.png","","","","serious"
"","","","","","html-slider-response","39","30141748","0.0-35.0","nx7lkusyw1","NaN","<div style=""width:500px;"">
                            <p style=""font-size:50px; font-weight:bold;""
                            >serious</p>
                            <div style=""width:240px; margin: auto;"">
                                <img src=""images/gray_32.png"" style= ""width:200px""alt=""img"">
                            </div>
                        </div>","92","","0","images/gray_32.png","","","","serious"
"","","","","","html-slider-response","40","30153171","0.0-36.0","nx7lkusyw1","NaN","<div style=""width:500px;"">
                            <p style=""font-size:50px; font-weight:bold;""
                            >serious</p>
                            <div style=""width:240px; margin: auto;"">
                                <img src=""images/gray_41.png"" style= ""width:200px""alt=""img"">
                            </div>
                        </div>","-27","","0","images/gray_41.png","","","","serious"
"","","","","","html-slider-response","41","30155508","0.0-37.0","nx7lkusyw1","NaN","<div style=""width:500px;"">
                            <p style=""font-size:50px; font-weight:bold;""
                            >serious</p>
                            <div style=""width:240px; margin: auto;"">
                                <img src=""images/gray_09.png"" style= ""width:200px""alt=""img"">
                            </div>
                        </div>","13","","0","images/gray_09.png","","","","serious"
"","","","","","html-slider-response","42","30157685","0.0-38.0","nx7lkusyw1","NaN","<div style=""width:500px;"">
                            <p style=""font-size:50px; font-weight:bold;""
                            >serious</p>
                            <div style=""width:240px; margin: auto;"">
                                <img src=""images/gray_15.png"" style= ""width:200px""alt=""img"">
                            </div>
                        </div>","-13","","0","images/gray_15.png","","","","serious"
"","","","","","html-slider-response","43","30159949","0.0-39.0","nx7lkusyw1","NaN","<div style=""width:500px;"">
                            <p style=""font-size:50px; font-weight:bold;""
                            >serious</p>
                            <div style=""width:240px; margin: auto;"">
                                <img src=""images/gray_37.png"" style= ""width:200px""alt=""img"">
                            </div>
                        </div>","97","","0","images/gray_37.png","","","","serious"
"","","","","","html-slider-response","44","30164274","0.0-40.0","nx7lkusyw1","NaN","<div style=""width:500px;"">
                            <p style=""font-size:50px; font-weight:bold;""
                            >serious</p>
                            <div style=""width:240px; margin: auto;"">
                                <img src=""images/gray_30.png"" style= ""width:200px""alt=""img"">
                            </div>
                        </div>","-170","","0","images/gray_30.png","","","","serious"
"","","","","","html-slider-response","45","30166563","0.0-41.0","nx7lkusyw1","NaN","<div style=""width:500px;"">
                            <p style=""font-size:50px; font-weight:bold;""
                            >serious</p>
                            <div style=""width:240px; margin: auto;"">
                                <img src=""images/gray_28.png"" style= ""width:200px""alt=""img"">
                            </div>
                        </div>","-42","","0","images/gray_28.png","","","","serious"
"","","","","","html-slider-response","46","30170074","0.0-42.0","nx7lkusyw1","NaN","<div style=""width:500px;"">
                            <p style=""font-size:50px; font-weight:bold;""
                            >serious</p>
                            <div style=""width:240px; margin: auto;"">
                                <img src=""images/gray_38.png"" style= ""width:200px""alt=""img"">
                            </div>
                        </div>","-42","","0","images/gray_38.png","","","","serious"
"","","","","","html-slider-response","47","30172836","0.0-43.0","nx7lkusyw1","NaN","<div style=""width:500px;"">
                            <p style=""font-size:50px; font-weight:bold;""
                            >serious</p>
                            <div style=""width:240px; margin: auto;"">
                                <img src=""images/gray_14.png"" style= ""width:200px""alt=""img"">
                            </div>
                        </div>","130","","0","images/gray_14.png","","","","serious"
"","","","","","html-slider-response","48","30175393","0.0-44.0","nx7lkusyw1","NaN","<div style=""width:500px;"">
                            <p style=""font-size:50px; font-weight:bold;""
                            >serious</p>
                            <div style=""width:240px; margin: auto;"">
                                <img src=""images/gray_39.png"" style= ""width:200px""alt=""img"">
                            </div>
                        </div>","-131","","0","images/gray_39.png","","","","serious"
"","","","","","html-slider-response","49","30179512","0.0-45.0","nx7lkusyw1","NaN","<div style=""width:500px;"">
                            <p style=""font-size:50px; font-weight:bold;""
                            >serious</p>
                            <div style=""width:240px; margin: auto;"">
                                <img src=""images/gray_35.png"" style= ""width:200px""alt=""img"">
                            </div>
                        </div>","-186","","0","images/gray_35.png","","","","serious"
"","","","","","html-slider-response","50","30182637","0.0-46.0","nx7lkusyw1","NaN","<div style=""width:500px;"">
                            <p style=""font-size:50px; font-weight:bold;""
                            >serious</p>
                            <div style=""width:240px; margin: auto;"">
                                <img src=""images/gray_19.png"" style= ""width:200px""alt=""img"">
                            </div>
                        </div>","174","","0","images/gray_19.png","","","","serious"
"","","","","","html-slider-response","51","30186419","0.0-47.0","nx7lkusyw1","NaN","<div style=""width:500px;"">
                            <p style=""font-size:50px; font-weight:bold;""
                            >serious</p>
                            <div style=""width:240px; margin: auto;"">
                                <img src=""images/gray_07.png"" style= ""width:200px""alt=""img"">
                            </div>
                        </div>","7","","0","images/gray_07.png","","","","serious"
"","","","","","html-slider-response","52","30189646","0.0-48.0","nx7lkusyw1","NaN","<div style=""width:500px;"">
                            <p style=""font-size:50px; font-weight:bold;""
                            >serious</p>
                            <div style=""width:240px; margin: auto;"">
                                <img src=""images/gray_27.png"" style= ""width:200px""alt=""img"">
                            </div>
                        </div>","-136","","0","images/gray_27.png","","","","serious"
"","","","","","html-slider-response","53","30194317","0.0-49.0","nx7lkusyw1","NaN","<div style=""width:500px;"">
                            <p style=""font-size:50px; font-weight:bold;""
                            >serious</p>
                            <div style=""width:240px; margin: auto;"">
                                <img src=""images/gray_12.png"" style= ""width:200px""alt=""img"">
                            </div>
                        </div>","-12","","0","images/gray_12.png","","","","serious"
"","","","","","html-slider-response","54","30196463","0.0-50.0","nx7lkusyw1","NaN","<div style=""width:500px;"">
                            <p style=""font-size:50px; font-weight:bold;""
                            >serious</p>
                            <div style=""width:240px; margin: auto;"">
                                <img src=""images/gray_29.png"" style= ""width:200px""alt=""img"">
                            </div>
                        </div>","116","","0","images/gray_29.png","","","","serious"
"","","","","","html-slider-response","55","30198752","0.0-51.0","nx7lkusyw1","NaN","<div style=""width:500px;"">
                            <p style=""font-size:50px; font-weight:bold;""
                            >serious</p>
                            <div style=""width:240px; margin: auto;"">
                                <img src=""images/gray_20.png"" style= ""width:200px""alt=""img"">
                            </div>
                        </div>","30","","0","images/gray_20.png","","","","serious"
"","","","","","html-slider-response","56","30202129","0.0-52.0","nx7lkusyw1","NaN","<div style=""width:500px;"">
                            <p style=""font-size:50px; font-weight:bold;""
                            >serious</p>
                            <div style=""width:240px; margin: auto;"">
                                <img src=""images/gray_40.png"" style= ""width:200px""alt=""img"">
                            </div>
                        </div>","-28","","0","images/gray_40.png","","","","serious"
"","","","","","html-slider-response","57","30205530","0.0-53.0","nx7lkusyw1","NaN","<div style=""width:500px;"">
                            <p style=""font-size:50px; font-weight:bold;""
                            >serious</p>
                            <div style=""width:240px; margin: auto;"">
                                <img src=""images/gray_22.png"" style= ""width:200px""alt=""img"">
                            </div>
                        </div>","-170","","0","images/gray_22.png","","","","serious"
"","","","","","html-slider-response","58","30209049","0.0-54.0","nx7lkusyw1","NaN","<div style=""width:500px;"">
                            <p style=""font-size:50px; font-weight:bold;""
                            >serious</p>
                            <div style=""width:240px; margin: auto;"">
                                <img src=""images/gray_08.png"" style= ""width:200px""alt=""img"">
                            </div>
                        </div>","32","","0","images/gray_08.png","","","","serious"
"","","","","","html-slider-response","59","30214597","0.0-55.0","nx7lkusyw1","NaN","<div style=""width:500px;"">
                            <p style=""font-size:50px; font-weight:bold;""
                            >serious</p>
                            <div style=""width:240px; margin: auto;"">
                                <img src=""images/gray_26.png"" style= ""width:200px""alt=""img"">
                            </div>
                        </div>","-40","","0","images/gray_26.png","","","","serious"
"","","","","","html-slider-response","60","30217681","0.0-56.0","nx7lkusyw1","NaN","<div style=""width:500px;"">
                            <p style=""font-size:50px; font-weight:bold;""
                            >serious</p>
                            <div style=""width:240px; margin: auto;"">
                                <img src=""images/gray_16.png"" style= ""width:200px""alt=""img"">
                            </div>
                        </div>","-78","","0","images/gray_16.png","","","","serious"
"","","","","","html-slider-response","61","30220071","0.0-57.0","nx7lkusyw1","NaN","<div style=""width:500px;"">
                            <p style=""font-size:50px; font-weight:bold;""
                            >serious</p>
                            <div style=""width:240px; margin: auto;"">
                                <img src=""images/gray_03.png"" style= ""width:200px""alt=""img"">
                            </div>
                        </div>","40","","0","images/gray_03.png","","","","serious"
"","","","","","html-button-response","62","30224214","0.0-58.0","nx7lkusyw1","3640","<p>Great Job! You've finished block 1.<br></br> You have 7 block(s) left to go.<br></br></p>","0","","","","","","",""
"","","","","","html-button-response","63","30226061","0.0-59.0","nx7lkusyw1","1847","<p>In this block of trials, you will be asked to rate how much you associate each map with:</p > <p style = 'font-size:150%; font-weight: bold'>playful</p><br></br>","0","","","","","","",""
"","","","","","html-slider-response","64","30234568","0.0-60.0","nx7lkusyw1","NaN","<div style=""width:500px;"">
                            <p style=""font-size:50px; font-weight:bold;""
                            >playful</p>
                            <div style=""width:240px; margin: auto;"">
                                <img src=""images/gray_12.png"" style= ""width:200px""alt=""img"">
                            </div>
                        </div>","31","","0","images/gray_12.png","","","","playful"
"","","","","","html-slider-response","65","30237392","0.0-61.0","nx7lkusyw1","NaN","<div style=""width:500px;"">
                            <p style=""font-size:50px; font-weight:bold;""
                            >playful</p>
                            <div style=""width:240px; margin: auto;"">
                                <img src=""images/gray_15.png"" style= ""width:200px""alt=""img"">
                            </div>
                        </div>","-134","","0","images/gray_15.png","","","","playful"
"","","","","","html-slider-response","66","30240146","0.0-62.0","nx7lkusyw1","NaN","<div style=""width:500px;"">
                            <p style=""font-size:50px; font-weight:bold;""
                            >playful</p>
                            <div style=""width:240px; margin: auto;"">
                                <img src=""images/gray_28.png"" style= ""width:200px""alt=""img"">
                            </div>
                        </div>","42","","0","images/gray_28.png","","","","playful"
"","","","","","html-slider-response","67","30242310","0.0-63.0","nx7lkusyw1","NaN","<div style=""width:500px;"">
                            <p style=""font-size:50px; font-weight:bold;""
                            >playful</p>
                            <div style=""width:240px; margin: auto;"">
                                <img src=""images/gray_25.png"" style= ""width:200px""alt=""img"">
                            </div>
                        </div>","-67","","0","images/gray_25.png","","","","playful"
"","","","","","html-slider-response","68","30244993","0.0-64.0","nx7lkusyw1","NaN","<div style=""width:500px;"">
                            <p style=""font-size:50px; font-weight:bold;""
                            >playful</p>
                            <div style=""width:240px; margin: auto;"">
                                <img src=""images/gray_17.png"" style= ""width:200px""alt=""img"">
                            </div>
                        </div>","175","","0","images/gray_17.png","","","","playful"
"","","","","","html-slider-response","69","30247288","0.0-65.0","nx7lkusyw1","NaN","<div style=""width:500px;"">
                            <p style=""font-size:50px; font-weight:bold;""
                            >playful</p>
                            <div style=""width:240px; margin: auto;"">
                                <img src=""images/gray_10.png"" style= ""width:200px""alt=""img"">
                            </div>
                        </div>","-169","","0","images/gray_10.png","","","","playful"
"","","","","","html-slider-response","70","30249221","0.0-66.0","nx7lkusyw1","NaN","<div style=""width:500px;"">
                            <p style=""font-size:50px; font-weight:bold;""
                            >playful</p>
                            <div style=""width:240px; margin: auto;"">
                                <img src=""images/gray_26.png"" style= ""width:200px""alt=""img"">
                            </div>
                        </div>","-117","","0","images/gray_26.png","","","","playful"
"","","","","","html-slider-response","71","30250585","0.0-67.0","nx7lkusyw1","NaN","<div style=""width:500px;"">
                            <p style=""font-size:50px; font-weight:bold;""
                            >playful</p>
                            <div style=""width:240px; margin: auto;"">
                                <img src=""images/gray_34.png"" style= ""width:200px""alt=""img"">
                            </div>
                        </div>","101","","0","images/gray_34.png","","","","playful"
"","","","","","html-slider-response","72","30253009","0.0-68.0","nx7lkusyw1","NaN","<div style=""width:500px;"">
                            <p style=""font-size:50px; font-weight:bold;""
                            >playful</p>
                            <div style=""width:240px; margin: auto;"">
                                <img src=""images/gray_07.png"" style= ""width:200px""alt=""img"">
                            </div>
                        </div>","65","","0","images/gray_07.png","","","","playful"
"","","","","","html-slider-response","73","30254366","0.0-69.0","nx7lkusyw1","NaN","<div style=""width:500px;"">
                            <p style=""font-size:50px; font-weight:bold;""
                            >playful</p>
                            <div style=""width:240px; margin: auto;"">
                                <img src=""images/gray_27.png"" style= ""width:200px""alt=""img"">
                            </div>
                        </div>","-120","","0","images/gray_27.png","","","","playful"
"","","","","","html-slider-response","74","30256780","0.0-70.0","nx7lkusyw1","NaN","<div style=""width:500px;"">
                            <p style=""font-size:50px; font-weight:bold;""
                            >playful</p>
                            <div style=""width:240px; margin: auto;"">
                                <img src=""images/gray_21.png"" style= ""width:200px""alt=""img"">
                            </div>
                        </div>","-190","","0","images/gray_21.png","","","","playful"
"","","","","","html-slider-response","75","30258453","0.0-71.0","nx7lkusyw1","NaN","<div style=""width:500px;"">
                            <p style=""font-size:50px; font-weight:bold;""
                            >playful</p>
                            <div style=""width:240px; margin: auto;"">
                                <img src=""images/gray_04.png"" style= ""width:200px""alt=""img"">
                            </div>
                        </div>","107","","0","images/gray_04.png","","","","playful"
"","","","","","html-slider-response","76","30260236","0.0-72.0","nx7lkusyw1","NaN","<div style=""width:500px;"">
                            <p style=""font-size:50px; font-weight:bold;""
                            >playful</p>
                            <div style=""width:240px; margin: auto;"">
                                <img src=""images/gray_06.png"" style= ""width:200px""alt=""img"">
                            </div>
                        </div>","144","","0","images/gray_06.png","","","","playful"
"","","","","","html-slider-response","77","30263046","0.0-73.0","nx7lkusyw1","NaN","<div style=""width:500px;"">
                            <p style=""font-size:50px; font-weight:bold;""
                            >playful</p>
                            <div style=""width:240px; margin: auto;"">
                                <img src=""images/gray_42.png"" style= ""width:200px""alt=""img"">
                            </div>
                        </div>","173","","0","images/gray_42.png","","","","playful"
"","","","","","html-slider-response","78","30265539","0.0-74.0","nx7lkusyw1","NaN","<div style=""width:500px;"">
                            <p style=""font-size:50px; font-weight:bold;""
                            >playful</p>
                            <div style=""width:240px; margin: auto;"">
                                <img src=""images/gray_43.png"" style= ""width:200px""alt=""img"">
                            </div>
                        </div>","21","","0","images/gray_43.png","","","","playful"
"","","","","","html-slider-response","79","30267773","0.0-75.0","nx7lkusyw1","NaN","<div style=""width:500px;"">
                            <p style=""font-size:50px; font-weight:bold;""
                            >playful</p>
                            <div style=""width:240px; margin: auto;"">
                                <img src=""images/gray_05.png"" style= ""width:200px""alt=""img"">
                            </div>
                        </div>","-175","","0","images/gray_05.png","","","","playful"
"","","","","","html-slider-response","80","30269982","0.0-76.0","nx7lkusyw1","NaN","<div style=""width:500px;"">
                            <p style=""font-size:50px; font-weight:bold;""
                            >playful</p>
                            <div style=""width:240px; margin: auto;"">
                                <img src=""images/gray_02.png"" style= ""width:200px""alt=""img"">
                            </div>
                        </div>","-194","","0","images/gray_02.png","","","","playful"
"","","","","","html-slider-response","81","30272452","0.0-77.0","nx7lkusyw1","NaN","<div style=""width:500px;"">
                            <p style=""font-size:50px; font-weight:bold;""
                            >playful</p>
                            <div style=""width:240px; margin: auto;"">
                                <img src=""images/gray_23.png"" style= ""width:200px""alt=""img"">
                            </div>
                        </div>","161","","0","images/gray_23.png","","","","playful"
"","","","","","html-slider-response","82","30274181","0.0-78.0","nx7lkusyw1","NaN","<div style=""width:500px;"">
                            <p style=""font-size:50px; font-weight:bold;""
                            >playful</p>
                            <div style=""width:240px; margin: auto;"">
                                <img src=""images/gray_16.png"" style= ""width:200px""alt=""img"">
                            </div>
                        </div>","33","","0","images/gray_16.png","","","","playful"
"","","","","","html-slider-response","83","30275343","0.0-79.0","nx7lkusyw1","NaN","<div style=""width:500px;"">
                            <p style=""font-size:50px; font-weight:bold;""
                            >playful</p>
                            <div style=""width:240px; margin: auto;"">
                                <img src=""images/gray_32.png"" style= ""width:200px""alt=""img"">
                            </div>
                        </div>","-78","","0","images/gray_32.png","","","","playful"
"","","","","","html-slider-response","84","30276484","0.0-80.0","nx7lkusyw1","NaN","<div style=""width:500px;"">
                            <p style=""font-size:50px; font-weight:bold;""
                            >playful</p>
                            <div style=""width:240px; margin: auto;"">
                                <img src=""images/gray_11.png"" style= ""width:200px""alt=""img"">
                            </div>
                        </div>","100","","0","images/gray_11.png","","","","playful"
"","","","","","html-slider-response","85","30277359","0.0-81.0","nx7lkusyw1","NaN","<div style=""width:500px;"">
                            <p style=""font-size:50px; font-weight:bold;""
                            >playful</p>
                            <div style=""width:240px; margin: auto;"">
                                <img src=""images/gray_41.png"" style= ""width:200px""alt=""img"">
                            </div>
                        </div>","25","","0","images/gray_41.png","","","","playful"
"","","","","","html-slider-response","86","30278219","0.0-82.0","nx7lkusyw1","NaN","<div style=""width:500px;"">
                            <p style=""font-size:50px; font-weight:bold;""
                            >playful</p>
                            <div style=""width:240px; margin: auto;"">
                                <img src=""images/gray_35.png"" style= ""width:200px""alt=""img"">
                            </div>
                        </div>","-82","","0","images/gray_35.png","","","","playful"
"","","","","","html-slider-response","87","30279064","0.0-83.0","nx7lkusyw1","NaN","<div style=""width:500px;"">
                            <p style=""font-size:50px; font-weight:bold;""
                            >playful</p>
                            <div style=""width:240px; margin: auto;"">
                                <img src=""images/gray_40.png"" style= ""width:200px""alt=""img"">
                            </div>
                        </div>","-27","","0","images/gray_40.png","","","","playful"
"","","","","","html-slider-response","88","30279910","0.0-84.0","nx7lkusyw1","NaN","<div style=""width:500px;"">
                            <p style=""font-size:50px; font-weight:bold;""
                            >playful</p>
                            <div style=""width:240px; margin: auto;"">
                                <img src=""images/gray_01.png"" style= ""width:200px""alt=""img"">
                            </div>
                        </div>","124","","0","images/gray_01.png","","","","playful"
"","","","","","html-slider-response","89","30280644","0.0-85.0","nx7lkusyw1","NaN","<div style=""width:500px;"">
                            <p style=""font-size:50px; font-weight:bold;""
                            >playful</p>
                            <div style=""width:240px; margin: auto;"">
                                <img src=""images/gray_44.png"" style= ""width:200px""alt=""img"">
                            </div>
                        </div>","-30","","0","images/gray_44.png","","","","playful"
"","","","","","html-slider-response","90","30281314","0.0-86.0","nx7lkusyw1","NaN","<div style=""width:500px;"">
                            <p style=""font-size:50px; font-weight:bold;""
                            >playful</p>
                            <div style=""width:240px; margin: auto;"">
                                <img src=""images/gray_09.png"" style= ""width:200px""alt=""img"">
                            </div>
                        </div>","85","","0","images/gray_09.png","","","","playful"
"","","","","","html-slider-response","91","30281991","0.0-87.0","nx7lkusyw1","NaN","<div style=""width:500px;"">
                            <p style=""font-size:50px; font-weight:bold;""
                            >playful</p>
                            <div style=""width:240px; margin: auto;"">
                                <img src=""images/gray_37.png"" style= ""width:200px""alt=""img"">
                            </div>
                        </div>","-154","","0","images/gray_37.png","","","","playful"
"","","","","","html-slider-response","92","30282655","0.0-88.0","nx7lkusyw1","NaN","<div style=""width:500px;"">
                            <p style=""font-size:50px; font-weight:bold;""
                            >playful</p>
                            <div style=""width:240px; margin: auto;"">
                                <img src=""images/gray_39.png"" style= ""width:200px""alt=""img"">
                            </div>
                        </div>","97","","0","images/gray_39.png","","","","playful"
"","","","","","html-slider-response","93","30283317","0.0-89.0","nx7lkusyw1","NaN","<div style=""width:500px;"">
                            <p style=""font-size:50px; font-weight:bold;""
                            >playful</p>
                            <div style=""width:240px; margin: auto;"">
                                <img src=""images/gray_33.png"" style= ""width:200px""alt=""img"">
                            </div>
                        </div>","-48","","0","images/gray_33.png","","","","playful"
"","","","","","html-slider-response","94","30284452","0.0-90.0","nx7lkusyw1","NaN","<div style=""width:500px;"">
                            <p style=""font-size:50px; font-weight:bold;""
                            >playful</p>
                            <div style=""width:240px; margin: auto;"">
                                <img src=""images/gray_14.png"" style= ""width:200px""alt=""img"">
                            </div>
                        </div>","135","","0","images/gray_14.png","","","","playful"
"","","","","","html-slider-response","95","30285739","0.0-91.0","nx7lkusyw1","NaN","<div style=""width:500px;"">
                            <p style=""font-size:50px; font-weight:bold;""
                            >playful</p>
                            <div style=""width:240px; margin: auto;"">
                                <img src=""images/gray_13.png"" style= ""width:200px""alt=""img"">
                            </div>
                        </div>","-26","","0","images/gray_13.png","","","","playful"
"","","","","","html-slider-response","96","30286506","0.0-92.0","nx7lkusyw1","NaN","<div style=""width:500px;"">
                            <p style=""font-size:50px; font-weight:bold;""
                            >playful</p>
                            <div style=""width:240px; margin: auto;"">
                                <img src=""images/gray_29.png"" style= ""width:200px""alt=""img"">
                            </div>
                        </div>","-102","","0","images/gray_29.png","","","","playful"
"","","","","","html-slider-response","97","30287287","0.0-93.0","nx7lkusyw1","NaN","<div style=""width:500px;"">
                            <p style=""font-size:50px; font-weight:bold;""
                            >playful</p>
                            <div style=""width:240px; margin: auto;"">
                                <img src=""images/gray_36.png"" style= ""width:200px""alt=""img"">
                            </div>
                        </div>","86","","0","images/gray_36.png","","","","playful"
"","","","","","html-slider-response","98","30288020","0.0-94.0","nx7lkusyw1","NaN","<div style=""width:500px;"">
                            <p style=""font-size:50px; font-weight:bold;""
                            >playful</p>
                            <div style=""width:240px; margin: auto;"">
                                <img src=""images/gray_30.png"" style= ""width:200px""alt=""img"">
                            </div>
                        </div>","166","","0","images/gray_30.png","","","","playful"
"","","","","","html-slider-response","99","30288928","0.0-95.0","nx7lkusyw1","NaN","<div style=""width:500px;"">
                            <p style=""font-size:50px; font-weight:bold;""
                            >playful</p>
                            <div style=""width:240px; margin: auto;"">
                                <img src=""images/gray_22.png"" style= ""width:200px""alt=""img"">
                            </div>
                        </div>","-178","","0","images/gray_22.png","","","","playful"
"","","","","","html-slider-response","100","30289693","0.0-96.0","nx7lkusyw1","NaN","<div style=""width:500px;"">
                            <p style=""font-size:50px; font-weight:bold;""
                            >playful</p>
                            <div style=""width:240px; margin: auto;"">
                                <img src=""images/gray_03.png"" style= ""width:200px""alt=""img"">
                            </div>
                        </div>","33","","0","images/gray_03.png","","","","playful"
"","","","","","html-slider-response","101","30290451","0.0-97.0","nx7lkusyw1","NaN","<div style=""width:500px;"">
                            <p style=""font-size:50px; font-weight:bold;""
                            >playful</p>
                            <div style=""width:240px; margin: auto;"">
                                <img src=""images/gray_24.png"" style= ""width:200px""alt=""img"">
                            </div>
                        </div>","-38","","0","images/gray_24.png","","","","playful"
"","","","","","html-slider-response","102","30291138","0.0-98.0","nx7lkusyw1","NaN","<div style=""width:500px;"">
                            <p style=""font-size:50px; font-weight:bold;""
                            >playful</p>
                            <div style=""width:240px; margin: auto;"">
                                <img src=""images/gray_18.png"" style= ""width:200px""alt=""img"">
                            </div>
                        </div>","13","","0","images/gray_18.png","","","","playful"
"","","","","","html-slider-response","103","30291998","0.0-99.0","nx7lkusyw1","NaN","<div style=""width:500px;"">
                            <p style=""font-size:50px; font-weight:bold;""
                            >playful</p>
                            <div style=""width:240px; margin: auto;"">
                                <img src=""images/gray_08.png"" style= ""width:200px""alt=""img"">
                            </div>
                        </div>","30","","0","images/gray_08.png","","","","playful"
"","","","","","html-slider-response","104","30293039","0.0-100.0","nx7lkusyw1","NaN","<div style=""width:500px;"">
                            <p style=""font-size:50px; font-weight:bold;""
                            >playful</p>
                            <div style=""width:240px; margin: auto;"">
                                <img src=""images/gray_20.png"" style= ""width:200px""alt=""img"">
                            </div>
                        </div>","89","","0","images/gray_20.png","","","","playful"
"","","","","","html-slider-response","105","30293844","0.0-101.0","nx7lkusyw1","NaN","<div style=""width:500px;"">
                            <p style=""font-size:50px; font-weight:bold;""
                            >playful</p>
                            <div style=""width:240px; margin: auto;"">
                                <img src=""images/gray_38.png"" style= ""width:200px""alt=""img"">
                            </div>
                        </div>","-131","","0","images/gray_38.png","","","","playful"
"","","","","","html-slider-response","106","30294515","0.0-102.0","nx7lkusyw1","NaN","<div style=""width:500px;"">
                            <p style=""font-size:50px; font-weight:bold;""
                            >playful</p>
                            <div style=""width:240px; margin: auto;"">
                                <img src=""images/gray_31.png"" style= ""width:200px""alt=""img"">
                            </div>
                        </div>","12","","0","images/gray_31.png","","","","playful"
"","","","","","html-slider-response","107","30295526","0.0-103.0","nx7lkusyw1","NaN","<div style=""width:500px;"">
                            <p style=""font-size:50px; font-weight:bold;""
                            >playful</p>
                            <div style=""width:240px; margin: auto;"">
                                <img src=""images/gray_19.png"" style= ""width:200px""alt=""img"">
                            </div>
                        </div>","-68","","0","images/gray_19.png","","","","playful"
"","","","","","html-button-response","108","30298189","0.0-104.0","nx7lkusyw1","2159","<p>Great Job! You've finished block 2.<br></br> You have 6 block(s) left to go.<br></br></p>","0","","","","","","",""
"","","","","","html-button-response","109","30299396","0.0-105.0","nx7lkusyw1","1206","<p>In this block of trials, you will be asked to rate how much you associate each map with:</p > <p style = 'font-size:150%; font-weight: bold'>trustworthy</p><br></br>","0","","","","","","",""
"","","","","","html-slider-response","110","30302468","0.0-106.0","nx7lkusyw1","NaN","<div style=""width:500px;"">
                            <p style=""font-size:50px; font-weight:bold;""
                            >trustworthy</p>
                            <div style=""width:240px; margin: auto;"">
                                <img src=""images/gray_34.png"" style= ""width:200px""alt=""img"">
                            </div>
                        </div>","-191","","0","images/gray_34.png","","","","trustworthy"
"","","","","","html-slider-response","111","30304877","0.0-107.0","nx7lkusyw1","NaN","<div style=""width:500px;"">
                            <p style=""font-size:50px; font-weight:bold;""
                            >trustworthy</p>
                            <div style=""width:240px; margin: auto;"">
                                <img src=""images/gray_43.png"" style= ""width:200px""alt=""img"">
                            </div>
                        </div>","-34","","0","images/gray_43.png","","","","trustworthy"
"","","","","","html-slider-response","112","30307550","0.0-108.0","nx7lkusyw1","NaN","<div style=""width:500px;"">
                            <p style=""font-size:50px; font-weight:bold;""
                            >trustworthy</p>
                            <div style=""width:240px; margin: auto;"">
                                <img src=""images/gray_41.png"" style= ""width:200px""alt=""img"">
                            </div>
                        </div>","-108","","0","images/gray_41.png","","","","trustworthy"
"","","","","","html-slider-response","113","30309650","0.0-109.0","nx7lkusyw1","NaN","<div style=""width:500px;"">
                            <p style=""font-size:50px; font-weight:bold;""
                            >trustworthy</p>
                            <div style=""width:240px; margin: auto;"">
                                <img src=""images/gray_19.png"" style= ""width:200px""alt=""img"">
                            </div>
                        </div>","123","","0","images/gray_19.png","","","","trustworthy"
"","","","","","html-slider-response","114","30311701","0.0-110.0","nx7lkusyw1","NaN","<div style=""width:500px;"">
                            <p style=""font-size:50px; font-weight:bold;""
                            >trustworthy</p>
                            <div style=""width:240px; margin: auto;"">
                                <img src=""images/gray_18.png"" style= ""width:200px""alt=""img"">
                            </div>
                        </div>","167","","0","images/gray_18.png","","","","trustworthy"
"","","","","","html-slider-response","115","30312964","0.0-111.0","nx7lkusyw1","NaN","<div style=""width:500px;"">
                            <p style=""font-size:50px; font-weight:bold;""
                            >trustworthy</p>
                            <div style=""width:240px; margin: auto;"">
                                <img src=""images/gray_05.png"" style= ""width:200px""alt=""img"">
                            </div>
                        </div>","-114","","0","images/gray_05.png","","","","trustworthy"
"","","","","","html-slider-response","116","30314195","0.0-112.0","nx7lkusyw1","NaN","<div style=""width:500px;"">
                            <p style=""font-size:50px; font-weight:bold;""
                            >trustworthy</p>
                            <div style=""width:240px; margin: auto;"">
                                <img src=""images/gray_10.png"" style= ""width:200px""alt=""img"">
                            </div>
                        </div>","87","","0","images/gray_10.png","","","","trustworthy"
"","","","","","html-slider-response","117","30315000","0.0-113.0","nx7lkusyw1","NaN","<div style=""width:500px;"">
                            <p style=""font-size:50px; font-weight:bold;""
                            >trustworthy</p>
                            <div style=""width:240px; margin: auto;"">
                                <img src=""images/gray_09.png"" style= ""width:200px""alt=""img"">
                            </div>
                        </div>","64","","0","images/gray_09.png","","","","trustworthy"
"","","","","","html-slider-response","118","30315777","0.0-114.0","nx7lkusyw1","NaN","<div style=""width:500px;"">
                            <p style=""font-size:50px; font-weight:bold;""
                            >trustworthy</p>
                            <div style=""width:240px; margin: auto;"">
                                <img src=""images/gray_25.png"" style= ""width:200px""alt=""img"">
                            </div>
                        </div>","-85","","0","images/gray_25.png","","","","trustworthy"
"","","","","","html-slider-response","119","30316436","0.0-115.0","nx7lkusyw1","NaN","<div style=""width:500px;"">
                            <p style=""font-size:50px; font-weight:bold;""
                            >trustworthy</p>
                            <div style=""width:240px; margin: auto;"">
                                <img src=""images/gray_04.png"" style= ""width:200px""alt=""img"">
                            </div>
                        </div>","-163","","0","images/gray_04.png","","","","trustworthy"
"","","","","","html-slider-response","120","30317311","0.0-116.0","nx7lkusyw1","NaN","<div style=""width:500px;"">
                            <p style=""font-size:50px; font-weight:bold;""
                            >trustworthy</p>
                            <div style=""width:240px; margin: auto;"">
                                <img src=""images/gray_12.png"" style= ""width:200px""alt=""img"">
                            </div>
                        </div>","-32","","0","images/gray_12.png","","","","trustworthy"
"","","","","","html-slider-response","121","30317967","0.0-117.0","nx7lkusyw1","NaN","<div style=""width:500px;"">
                            <p style=""font-size:50px; font-weight:bold;""
                            >trustworthy</p>
                            <div style=""width:240px; margin: auto;"">
                                <img src=""images/gray_27.png"" style= ""width:200px""alt=""img"">
                            </div>
                        </div>","114","","0","images/gray_27.png","","","","trustworthy"
"","","","","","html-slider-response","122","30318677","0.0-118.0","nx7lkusyw1","NaN","<div style=""width:500px;"">
                            <p style=""font-size:50px; font-weight:bold;""
                            >trustworthy</p>
                            <div style=""width:240px; margin: auto;"">
                                <img src=""images/gray_35.png"" style= ""width:200px""alt=""img"">
                            </div>
                        </div>","53","","0","images/gray_35.png","","","","trustworthy"
"","","","","","html-slider-response","123","30319364","0.0-119.0","nx7lkusyw1","NaN","<div style=""width:500px;"">
                            <p style=""font-size:50px; font-weight:bold;""
                            >trustworthy</p>
                            <div style=""width:240px; margin: auto;"">
                                <img src=""images/gray_33.png"" style= ""width:200px""alt=""img"">
                            </div>
                        </div>","-24","","0","images/gray_33.png","","","","trustworthy"
"","","","","","html-slider-response","124","30320073","0.0-120.0","nx7lkusyw1","NaN","<div style=""width:500px;"">
                            <p style=""font-size:50px; font-weight:bold;""
                            >trustworthy</p>
                            <div style=""width:240px; margin: auto;"">
                                <img src=""images/gray_13.png"" style= ""width:200px""alt=""img"">
                            </div>
                        </div>","153","","0","images/gray_13.png","","","","trustworthy"
"","","","","","html-slider-response","125","30320784","0.0-121.0","nx7lkusyw1","NaN","<div style=""width:500px;"">
                            <p style=""font-size:50px; font-weight:bold;""
                            >trustworthy</p>
                            <div style=""width:240px; margin: auto;"">
                                <img src=""images/gray_06.png"" style= ""width:200px""alt=""img"">
                            </div>
                        </div>","-136","","0","images/gray_06.png","","","","trustworthy"
"","","","","","html-slider-response","126","30321897","0.0-122.0","nx7lkusyw1","NaN","<div style=""width:500px;"">
                            <p style=""font-size:50px; font-weight:bold;""
                            >trustworthy</p>
                            <div style=""width:240px; margin: auto;"">
                                <img src=""images/gray_28.png"" style= ""width:200px""alt=""img"">
                            </div>
                        </div>","-52","","0","images/gray_28.png","","","","trustworthy"
"","","","","","html-slider-response","127","30322583","0.0-123.0","nx7lkusyw1","NaN","<div style=""width:500px;"">
                            <p style=""font-size:50px; font-weight:bold;""
                            >trustworthy</p>
                            <div style=""width:240px; margin: auto;"">
                                <img src=""images/gray_01.png"" style= ""width:200px""alt=""img"">
                            </div>
                        </div>","55","","0","images/gray_01.png","","","","trustworthy"
"","","","","","html-slider-response","128","30323231","0.0-124.0","nx7lkusyw1","NaN","<div style=""width:500px;"">
                            <p style=""font-size:50px; font-weight:bold;""
                            >trustworthy</p>
                            <div style=""width:240px; margin: auto;"">
                                <img src=""images/gray_16.png"" style= ""width:200px""alt=""img"">
                            </div>
                        </div>","24","","0","images/gray_16.png","","","","trustworthy"
"","","","","","html-slider-response","129","30323870","0.0-125.0","nx7lkusyw1","NaN","<div style=""width:500px;"">
                            <p style=""font-size:50px; font-weight:bold;""
                            >trustworthy</p>
                            <div style=""width:240px; margin: auto;"">
                                <img src=""images/gray_21.png"" style= ""width:200px""alt=""img"">
                            </div>
                        </div>","105","","0","images/gray_21.png","","","","trustworthy"
"","","","","","html-slider-response","130","30324565","0.0-126.0","nx7lkusyw1","NaN","<div style=""width:500px;"">
                            <p style=""font-size:50px; font-weight:bold;""
                            >trustworthy</p>
                            <div style=""width:240px; margin: auto;"">
                                <img src=""images/gray_17.png"" style= ""width:200px""alt=""img"">
                            </div>
                        </div>","-117","","0","images/gray_17.png","","","","trustworthy"
"","","","","","html-slider-response","131","30325267","0.0-127.0","nx7lkusyw1","NaN","<div style=""width:500px;"">
                            <p style=""font-size:50px; font-weight:bold;""
                            >trustworthy</p>
                            <div style=""width:240px; margin: auto;"">
                                <img src=""images/gray_31.png"" style= ""width:200px""alt=""img"">
                            </div>
                        </div>","-189","","0","images/gray_31.png","","","","trustworthy"
"","","","","","html-slider-response","132","30325898","0.0-128.0","nx7lkusyw1","NaN","<div style=""width:500px;"">
                            <p style=""font-size:50px; font-weight:bold;""
                            >trustworthy</p>
                            <div style=""width:240px; margin: auto;"">
                                <img src=""images/gray_40.png"" style= ""width:200px""alt=""img"">
                            </div>
                        </div>","22","","0","images/gray_40.png","","","","trustworthy"
"","","","","","html-slider-response","133","30326561","0.0-129.0","nx7lkusyw1","NaN","<div style=""width:500px;"">
                            <p style=""font-size:50px; font-weight:bold;""
                            >trustworthy</p>
                            <div style=""width:240px; margin: auto;"">
                                <img src=""images/gray_38.png"" style= ""width:200px""alt=""img"">
                            </div>
                        </div>","-46","","0","images/gray_38.png","","","","trustworthy"
"","","","","","html-slider-response","134","30327207","0.0-130.0","nx7lkusyw1","NaN","<div style=""width:500px;"">
                            <p style=""font-size:50px; font-weight:bold;""
                            >trustworthy</p>
                            <div style=""width:240px; margin: auto;"">
                                <img src=""images/gray_37.png"" style= ""width:200px""alt=""img"">
                            </div>
                        </div>","80","","0","images/gray_37.png","","","","trustworthy"
"","","","","","html-slider-response","135","30327847","0.0-131.0","nx7lkusyw1","NaN","<div style=""width:500px;"">
                            <p style=""font-size:50px; font-weight:bold;""
                            >trustworthy</p>
                            <div style=""width:240px; margin: auto;"">
                                <img src=""images/gray_24.png"" style= ""width:200px""alt=""img"">
                            </div>
                        </div>","-114","","0","images/gray_24.png","","","","trustworthy"
"","","","","","html-slider-response","136","30328501","0.0-132.0","nx7lkusyw1","NaN","<div style=""width:500px;"">
                            <p style=""font-size:50px; font-weight:bold;""
                            >trustworthy</p>
                            <div style=""width:240px; margin: auto;"">
                                <img src=""images/gray_02.png"" style= ""width:200px""alt=""img"">
                            </div>
                        </div>","134","","0","images/gray_02.png","","","","trustworthy"
"","","","","","html-slider-response","137","30329733","0.0-133.0","nx7lkusyw1","NaN","<div style=""width:500px;"">
                            <p style=""font-size:50px; font-weight:bold;""
                            >trustworthy</p>
                            <div style=""width:240px; margin: auto;"">
                                <img src=""images/gray_07.png"" style= ""width:200px""alt=""img"">
                            </div>
                        </div>","-50","","0","images/gray_07.png","","","","trustworthy"
"","","","","","html-slider-response","138","30330380","0.0-134.0","nx7lkusyw1","NaN","<div style=""width:500px;"">
                            <p style=""font-size:50px; font-weight:bold;""
                            >trustworthy</p>
                            <div style=""width:240px; margin: auto;"">
                                <img src=""images/gray_32.png"" style= ""width:200px""alt=""img"">
                            </div>
                        </div>","30","","0","images/gray_32.png","","","","trustworthy"
"","","","","","html-slider-response","139","30331430","0.0-135.0","nx7lkusyw1","NaN","<div style=""width:500px;"">
                            <p style=""font-size:50px; font-weight:bold;""
                            >trustworthy</p>
                            <div style=""width:240px; margin: auto;"">
                                <img src=""images/gray_29.png"" style= ""width:200px""alt=""img"">
                            </div>
                        </div>","-53","","0","images/gray_29.png","","","","trustworthy"
"","","","","","html-slider-response","140","30332077","0.0-136.0","nx7lkusyw1","NaN","<div style=""width:500px;"">
                            <p style=""font-size:50px; font-weight:bold;""
                            >trustworthy</p>
                            <div style=""width:240px; margin: auto;"">
                                <img src=""images/gray_15.png"" style= ""width:200px""alt=""img"">
                            </div>
                        </div>","-71","","0","images/gray_15.png","","","","trustworthy"
"","","","","","html-slider-response","141","30332755","0.0-137.0","nx7lkusyw1","NaN","<div style=""width:500px;"">
                            <p style=""font-size:50px; font-weight:bold;""
                            >trustworthy</p>
                            <div style=""width:240px; margin: auto;"">
                                <img src=""images/gray_42.png"" style= ""width:200px""alt=""img"">
                            </div>
                        </div>","64","","0","images/gray_42.png","","","","trustworthy"
"","","","","","html-slider-response","142","30333853","0.0-138.0","nx7lkusyw1","NaN","<div style=""width:500px;"">
                            <p style=""font-size:50px; font-weight:bold;""
                            >trustworthy</p>
                            <div style=""width:240px; margin: auto;"">
                                <img src=""images/gray_20.png"" style= ""width:200px""alt=""img"">
                            </div>
                        </div>","-18","","0","images/gray_20.png","","","","trustworthy"
"","","","","","html-slider-response","143","30334744","0.0-139.0","nx7lkusyw1","NaN","<div style=""width:500px;"">
                            <p style=""font-size:50px; font-weight:bold;""
                            >trustworthy</p>
                            <div style=""width:240px; margin: auto;"">
                                <img src=""images/gray_30.png"" style= ""width:200px""alt=""img"">
                            </div>
                        </div>","88","","0","images/gray_30.png","","","","trustworthy"
"","","","","","html-slider-response","144","30335470","0.0-140.0","nx7lkusyw1","NaN","<div style=""width:500px;"">
                            <p style=""font-size:50px; font-weight:bold;""
                            >trustworthy</p>
                            <div style=""width:240px; margin: auto;"">
                                <img src=""images/gray_22.png"" style= ""width:200px""alt=""img"">
                            </div>
                        </div>","-96","","0","images/gray_22.png","","","","trustworthy"
"","","","","","html-slider-response","145","30336171","0.0-141.0","nx7lkusyw1","NaN","<div style=""width:500px;"">
                            <p style=""font-size:50px; font-weight:bold;""
                            >trustworthy</p>
                            <div style=""width:240px; margin: auto;"">
                                <img src=""images/gray_26.png"" style= ""width:200px""alt=""img"">
                            </div>
                        </div>","-138","","0","images/gray_26.png","","","","trustworthy"
"","","","","","html-slider-response","146","30336962","0.0-142.0","nx7lkusyw1","NaN","<div style=""width:500px;"">
                            <p style=""font-size:50px; font-weight:bold;""
                            >trustworthy</p>
                            <div style=""width:240px; margin: auto;"">
                                <img src=""images/gray_03.png"" style= ""width:200px""alt=""img"">
                            </div>
                        </div>","86","","0","images/gray_03.png","","","","trustworthy"
"","","","","","html-slider-response","147","30337703","0.0-143.0","nx7lkusyw1","NaN","<div style=""width:500px;"">
                            <p style=""font-size:50px; font-weight:bold;""
                            >trustworthy</p>
                            <div style=""width:240px; margin: auto;"">
                                <img src=""images/gray_44.png"" style= ""width:200px""alt=""img"">
                            </div>
                        </div>","-26","","0","images/gray_44.png","","","","trustworthy"
"","","","","","html-slider-response","148","30338366","0.0-144.0","nx7lkusyw1","NaN","<div style=""width:500px;"">
                            <p style=""font-size:50px; font-weight:bold;""
                            >trustworthy</p>
                            <div style=""width:240px; margin: auto;"">
                                <img src=""images/gray_11.png"" style= ""width:200px""alt=""img"">
                            </div>
                        </div>","38","","0","images/gray_11.png","","","","trustworthy"
"","","","","","html-slider-response","149","30339115","0.0-145.0","nx7lkusyw1","NaN","<div style=""width:500px;"">
                            <p style=""font-size:50px; font-weight:bold;""
                            >trustworthy</p>
                            <div style=""width:240px; margin: auto;"">
                                <img src=""images/gray_14.png"" style= ""width:200px""alt=""img"">
                            </div>
                        </div>","-116","","0","images/gray_14.png","","","","trustworthy"
"","","","","","html-slider-response","150","30339876","0.0-146.0","nx7lkusyw1","NaN","<div style=""width:500px;"">
                            <p style=""font-size:50px; font-weight:bold;""
                            >trustworthy</p>
                            <div style=""width:240px; margin: auto;"">
                                <img src=""images/gray_08.png"" style= ""width:200px""alt=""img"">
                            </div>
                        </div>","-64","","0","images/gray_08.png","","","","trustworthy"
"","","","","","html-slider-response","151","30340568","0.0-147.0","nx7lkusyw1","NaN","<div style=""width:500px;"">
                            <p style=""font-size:50px; font-weight:bold;""
                            >trustworthy</p>
                            <div style=""width:240px; margin: auto;"">
                                <img src=""images/gray_39.png"" style= ""width:200px""alt=""img"">
                            </div>
                        </div>","51","","0","images/gray_39.png","","","","trustworthy"
"","","","","","html-slider-response","152","30341286","0.0-148.0","nx7lkusyw1","NaN","<div style=""width:500px;"">
                            <p style=""font-size:50px; font-weight:bold;""
                            >trustworthy</p>
                            <div style=""width:240px; margin: auto;"">
                                <img src=""images/gray_36.png"" style= ""width:200px""alt=""img"">
                            </div>
                        </div>","86","","0","images/gray_36.png","","","","trustworthy"
"","","","","","html-slider-response","153","30342051","0.0-149.0","nx7lkusyw1","NaN","<div style=""width:500px;"">
                            <p style=""font-size:50px; font-weight:bold;""
                            >trustworthy</p>
                            <div style=""width:240px; margin: auto;"">
                                <img src=""images/gray_23.png"" style= ""width:200px""alt=""img"">
                            </div>
                        </div>","128","","0","images/gray_23.png","","","","trustworthy"
"","","","","","html-button-response","154","30343492","0.0-150.0","nx7lkusyw1","940","<p>Great Job! You've finished block 3.<br></br> You have 5 block(s) left to go.<br></br></p>","0","","","","","","",""
"","","","","","html-button-response","155","30344375","0.0-151.0","nx7lkusyw1","882","<p>In this block of trials, you will be asked to rate how much you associate each map with:</p > <p style = 'font-size:150%; font-weight: bold'>disturbing</p><br></br>","0","","","","","","",""
"","","","","","html-slider-response","156","30346968","0.0-152.0","nx7lkusyw1","NaN","<div style=""width:500px;"">
                            <p style=""font-size:50px; font-weight:bold;""
                            >disturbing</p>
                            <div style=""width:240px; margin: auto;"">
                                <img src=""images/gray_07.png"" style= ""width:200px""alt=""img"">
                            </div>
                        </div>","98","","0","images/gray_07.png","","","","disturbing"
"","","","","","html-slider-response","157","30347907","0.0-153.0","nx7lkusyw1","NaN","<div style=""width:500px;"">
                            <p style=""font-size:50px; font-weight:bold;""
                            >disturbing</p>
                            <div style=""width:240px; margin: auto;"">
                                <img src=""images/gray_20.png"" style= ""width:200px""alt=""img"">
                            </div>
                        </div>","136","","0","images/gray_20.png","","","","disturbing"
"","","","","","html-slider-response","158","30349225","0.0-154.0","nx7lkusyw1","NaN","<div style=""width:500px;"">
                            <p style=""font-size:50px; font-weight:bold;""
                            >disturbing</p>
                            <div style=""width:240px; margin: auto;"">
                                <img src=""images/gray_17.png"" style= ""width:200px""alt=""img"">
                            </div>
                        </div>","-113","","0","images/gray_17.png","","","","disturbing"
"","","","","","html-slider-response","159","30350226","0.0-155.0","nx7lkusyw1","NaN","<div style=""width:500px;"">
                            <p style=""font-size:50px; font-weight:bold;""
                            >disturbing</p>
                            <div style=""width:240px; margin: auto;"">
                                <img src=""images/gray_28.png"" style= ""width:200px""alt=""img"">
                            </div>
                        </div>","102","","0","images/gray_28.png","","","","disturbing"
"","","","","","html-slider-response","160","30350993","0.0-156.0","nx7lkusyw1","NaN","<div style=""width:500px;"">
                            <p style=""font-size:50px; font-weight:bold;""
                            >disturbing</p>
                            <div style=""width:240px; margin: auto;"">
                                <img src=""images/gray_27.png"" style= ""width:200px""alt=""img"">
                            </div>
                        </div>","-90","","0","images/gray_27.png","","","","disturbing"
"","","","","","html-slider-response","161","30351670","0.0-157.0","nx7lkusyw1","NaN","<div style=""width:500px;"">
                            <p style=""font-size:50px; font-weight:bold;""
                            >disturbing</p>
                            <div style=""width:240px; margin: auto;"">
                                <img src=""images/gray_11.png"" style= ""width:200px""alt=""img"">
                            </div>
                        </div>","-37","","0","images/gray_11.png","","","","disturbing"
"","","","","","html-slider-response","162","30353296","0.0-158.0","nx7lkusyw1","NaN","<div style=""width:500px;"">
                            <p style=""font-size:50px; font-weight:bold;""
                            >disturbing</p>
                            <div style=""width:240px; margin: auto;"">
                                <img src=""images/gray_39.png"" style= ""width:200px""alt=""img"">
                            </div>
                        </div>","-184","","0","images/gray_39.png","","","","disturbing"
"","","","","","html-slider-response","163","30354520","0.0-159.0","nx7lkusyw1","NaN","<div style=""width:500px;"">
                            <p style=""font-size:50px; font-weight:bold;""
                            >disturbing</p>
                            <div style=""width:240px; margin: auto;"">
                                <img src=""images/gray_26.png"" style= ""width:200px""alt=""img"">
                            </div>
                        </div>","90","","0","images/gray_26.png","","","","disturbing"
"","","","","","html-slider-response","164","30355628","0.0-160.0","nx7lkusyw1","NaN","<div style=""width:500px;"">
                            <p style=""font-size:50px; font-weight:bold;""
                            >disturbing</p>
                            <div style=""width:240px; margin: auto;"">
                                <img src=""images/gray_05.png"" style= ""width:200px""alt=""img"">
                            </div>
                        </div>","50","","0","images/gray_05.png","","","","disturbing"
"","","","","","html-slider-response","165","30356559","0.0-161.0","nx7lkusyw1","NaN","<div style=""width:500px;"">
                            <p style=""font-size:50px; font-weight:bold;""
                            >disturbing</p>
                            <div style=""width:240px; margin: auto;"">
                                <img src=""images/gray_09.png"" style= ""width:200px""alt=""img"">
                            </div>
                        </div>","-73","","0","images/gray_09.png","","","","disturbing"
"","","","","","html-slider-response","166","30357527","0.0-162.0","nx7lkusyw1","NaN","<div style=""width:500px;"">
                            <p style=""font-size:50px; font-weight:bold;""
                            >disturbing</p>
                            <div style=""width:240px; margin: auto;"">
                                <img src=""images/gray_03.png"" style= ""width:200px""alt=""img"">
                            </div>
                        </div>","-124","","0","images/gray_03.png","","","","disturbing"
"","","","","","html-slider-response","167","30358325","0.0-163.0","nx7lkusyw1","NaN","<div style=""width:500px;"">
                            <p style=""font-size:50px; font-weight:bold;""
                            >disturbing</p>
                            <div style=""width:240px; margin: auto;"">
                                <img src=""images/gray_23.png"" style= ""width:200px""alt=""img"">
                            </div>
                        </div>","114","","0","images/gray_23.png","","","","disturbing"
"","","","","","html-slider-response","168","30359041","0.0-164.0","nx7lkusyw1","NaN","<div style=""width:500px;"">
                            <p style=""font-size:50px; font-weight:bold;""
                            >disturbing</p>
                            <div style=""width:240px; margin: auto;"">
                                <img src=""images/gray_18.png"" style= ""width:200px""alt=""img"">
                            </div>
                        </div>","-86","","0","images/gray_18.png","","","","disturbing"
"","","","","","html-slider-response","169","30359720","0.0-165.0","nx7lkusyw1","NaN","<div style=""width:500px;"">
                            <p style=""font-size:50px; font-weight:bold;""
                            >disturbing</p>
                            <div style=""width:240px; margin: auto;"">
                                <img src=""images/gray_38.png"" style= ""width:200px""alt=""img"">
                            </div>
                        </div>","58","","0","images/gray_38.png","","","","disturbing"
"","","","","","html-slider-response","170","30360919","0.0-166.0","nx7lkusyw1","NaN","<div style=""width:500px;"">
                            <p style=""font-size:50px; font-weight:bold;""
                            >disturbing</p>
                            <div style=""width:240px; margin: auto;"">
                                <img src=""images/gray_06.png"" style= ""width:200px""alt=""img"">
                            </div>
                        </div>","-183","","0","images/gray_06.png","","","","disturbing"
"","","","","","html-slider-response","171","30371902","0.0-167.0","nx7lkusyw1","NaN","<div style=""width:500px;"">
                            <p style=""font-size:50px; font-weight:bold;""
                            >disturbing</p>
                            <div style=""width:240px; margin: auto;"">
                                <img src=""images/gray_04.png"" style= ""width:200px""alt=""img"">
                            </div>
                        </div>","97","","0","images/gray_04.png","","","","disturbing"
"","","","","","html-slider-response","172","30372896","0.0-168.0","nx7lkusyw1","NaN","<div style=""width:500px;"">
                            <p style=""font-size:50px; font-weight:bold;""
                            >disturbing</p>
                            <div style=""width:240px; margin: auto;"">
                                <img src=""images/gray_22.png"" style= ""width:200px""alt=""img"">
                            </div>
                        </div>","-33","","0","images/gray_22.png","","","","disturbing"
"","","","","","html-slider-response","173","30373576","0.0-169.0","nx7lkusyw1","NaN","<div style=""width:500px;"">
                            <p style=""font-size:50px; font-weight:bold;""
                            >disturbing</p>
                            <div style=""width:240px; margin: auto;"">
                                <img src=""images/gray_25.png"" style= ""width:200px""alt=""img"">
                            </div>
                        </div>","-112","","0","images/gray_25.png","","","","disturbing"
"","","","","","html-slider-response","174","30374396","0.0-170.0","nx7lkusyw1","NaN","<div style=""width:500px;"">
                            <p style=""font-size:50px; font-weight:bold;""
                            >disturbing</p>
                            <div style=""width:240px; margin: auto;"">
                                <img src=""images/gray_41.png"" style= ""width:200px""alt=""img"">
                            </div>
                        </div>","-165","","0","images/gray_41.png","","","","disturbing"
"","","","","","html-slider-response","175","30528846","0.0-171.0","nx7lkusyw1","NaN","<div style=""width:500px;"">
                            <p style=""font-size:50px; font-weight:bold;""
                            >disturbing</p>
                            <div style=""width:240px; margin: auto;"">
                                <img src=""images/gray_21.png"" style= ""width:200px""alt=""img"">
                            </div>
                        </div>","91","","0","images/gray_21.png","","","","disturbing"
"","","","","","html-slider-response","176","30531263","0.0-172.0","nx7lkusyw1","NaN","<div style=""width:500px;"">
                            <p style=""font-size:50px; font-weight:bold;""
                            >disturbing</p>
                            <div style=""width:240px; margin: auto;"">
                                <img src=""images/gray_10.png"" style= ""width:200px""alt=""img"">
                            </div>
                        </div>","94","","0","images/gray_10.png","","","","disturbing"
"","","","","","html-slider-response","177","30532659","0.0-173.0","nx7lkusyw1","NaN","<div style=""width:500px;"">
                            <p style=""font-size:50px; font-weight:bold;""
                            >disturbing</p>
                            <div style=""width:240px; margin: auto;"">
                                <img src=""images/gray_32.png"" style= ""width:200px""alt=""img"">
                            </div>
                        </div>","-40","","0","images/gray_32.png","","","","disturbing"
"","","","","","html-slider-response","178","30533628","0.0-174.0","nx7lkusyw1","NaN","<div style=""width:500px;"">
                            <p style=""font-size:50px; font-weight:bold;""
                            >disturbing</p>
                            <div style=""width:240px; margin: auto;"">
                                <img src=""images/gray_37.png"" style= ""width:200px""alt=""img"">
                            </div>
                        </div>","-132","","0","images/gray_37.png","","","","disturbing"
"","","","","","html-slider-response","179","30535051","0.0-175.0","nx7lkusyw1","NaN","<div style=""width:500px;"">
                            <p style=""font-size:50px; font-weight:bold;""
                            >disturbing</p>
                            <div style=""width:240px; margin: auto;"">
                                <img src=""images/gray_01.png"" style= ""width:200px""alt=""img"">
                            </div>
                        </div>","-47","","0","images/gray_01.png","","","","disturbing"
"","","","","","html-slider-response","180","30536110","0.0-176.0","nx7lkusyw1","NaN","<div style=""width:500px;"">
                            <p style=""font-size:50px; font-weight:bold;""
                            >disturbing</p>
                            <div style=""width:240px; margin: auto;"">
                                <img src=""images/gray_02.png"" style= ""width:200px""alt=""img"">
                            </div>
                        </div>","166","","0","images/gray_02.png","","","","disturbing"
"","","","","","html-slider-response","181","30537244","0.0-177.0","nx7lkusyw1","NaN","<div style=""width:500px;"">
                            <p style=""font-size:50px; font-weight:bold;""
                            >disturbing</p>
                            <div style=""width:240px; margin: auto;"">
                                <img src=""images/gray_24.png"" style= ""width:200px""alt=""img"">
                            </div>
                        </div>","-153","","0","images/gray_24.png","","","","disturbing"
"","","","","","html-slider-response","182","30537978","0.0-178.0","nx7lkusyw1","NaN","<div style=""width:500px;"">
                            <p style=""font-size:50px; font-weight:bold;""
                            >disturbing</p>
                            <div style=""width:240px; margin: auto;"">
                                <img src=""images/gray_42.png"" style= ""width:200px""alt=""img"">
                            </div>
                        </div>","-98","","0","images/gray_42.png","","","","disturbing"
"","","","","","html-slider-response","183","30538585","0.0-179.0","nx7lkusyw1","NaN","<div style=""width:500px;"">
                            <p style=""font-size:50px; font-weight:bold;""
                            >disturbing</p>
                            <div style=""width:240px; margin: auto;"">
                                <img src=""images/gray_44.png"" style= ""width:200px""alt=""img"">
                            </div>
                        </div>","-24","","0","images/gray_44.png","","","","disturbing"
"","","","","","html-slider-response","184","30539247","0.0-180.0","nx7lkusyw1","NaN","<div style=""width:500px;"">
                            <p style=""font-size:50px; font-weight:bold;""
                            >disturbing</p>
                            <div style=""width:240px; margin: auto;"">
                                <img src=""images/gray_30.png"" style= ""width:200px""alt=""img"">
                            </div>
                        </div>","-109","","0","images/gray_30.png","","","","disturbing"
"","","","","","html-slider-response","185","30539951","0.0-181.0","nx7lkusyw1","NaN","<div style=""width:500px;"">
                            <p style=""font-size:50px; font-weight:bold;""
                            >disturbing</p>
                            <div style=""width:240px; margin: auto;"">
                                <img src=""images/gray_43.png"" style= ""width:200px""alt=""img"">
                            </div>
                        </div>","-64","","0","images/gray_43.png","","","","disturbing"
"","","","","","html-slider-response","186","30540581","0.0-182.0","nx7lkusyw1","NaN","<div style=""width:500px;"">
                            <p style=""font-size:50px; font-weight:bold;""
                            >disturbing</p>
                            <div style=""width:240px; margin: auto;"">
                                <img src=""images/gray_19.png"" style= ""width:200px""alt=""img"">
                            </div>
                        </div>","-151","","0","images/gray_19.png","","","","disturbing"
"","","","","","html-slider-response","187","30541299","0.0-183.0","nx7lkusyw1","NaN","<div style=""width:500px;"">
                            <p style=""font-size:50px; font-weight:bold;""
                            >disturbing</p>
                            <div style=""width:240px; margin: auto;"">
                                <img src=""images/gray_34.png"" style= ""width:200px""alt=""img"">
                            </div>
                        </div>","70","","0","images/gray_34.png","","","","disturbing"
"","","","","","html-slider-response","188","30541955","0.0-184.0","nx7lkusyw1","NaN","<div style=""width:500px;"">
                            <p style=""font-size:50px; font-weight:bold;""
                            >disturbing</p>
                            <div style=""width:240px; margin: auto;"">
                                <img src=""images/gray_40.png"" style= ""width:200px""alt=""img"">
                            </div>
                        </div>","-96","","0","images/gray_40.png","","","","disturbing"
"","","","","","html-slider-response","189","30542989","0.0-185.0","nx7lkusyw1","NaN","<div style=""width:500px;"">
                            <p style=""font-size:50px; font-weight:bold;""
                            >disturbing</p>
                            <div style=""width:240px; margin: auto;"">
                                <img src=""images/gray_35.png"" style= ""width:200px""alt=""img"">
                            </div>
                        </div>","-53","","0","images/gray_35.png","","","","disturbing"
"","","","","","html-slider-response","190","30543667","0.0-186.0","nx7lkusyw1","NaN","<div style=""width:500px;"">
                            <p style=""font-size:50px; font-weight:bold;""
                            >disturbing</p>
                            <div style=""width:240px; margin: auto;"">
                                <img src=""images/gray_29.png"" style= ""width:200px""alt=""img"">
                            </div>
                        </div>","-132","","0","images/gray_29.png","","","","disturbing"
"","","","","","html-slider-response","191","30544417","0.0-187.0","nx7lkusyw1","NaN","<div style=""width:500px;"">
                            <p style=""font-size:50px; font-weight:bold;""
                            >disturbing</p>
                            <div style=""width:240px; margin: auto;"">
                                <img src=""images/gray_12.png"" style= ""width:200px""alt=""img"">
                            </div>
                        </div>","105","","0","images/gray_12.png","","","","disturbing"
"","","","","","html-slider-response","192","30545237","0.0-188.0","nx7lkusyw1","NaN","<div style=""width:500px;"">
                            <p style=""font-size:50px; font-weight:bold;""
                            >disturbing</p>
                            <div style=""width:240px; margin: auto;"">
                                <img src=""images/gray_13.png"" style= ""width:200px""alt=""img"">
                            </div>
                        </div>","150","","0","images/gray_13.png","","","","disturbing"
"","","","","","html-slider-response","193","30545884","0.0-189.0","nx7lkusyw1","NaN","<div style=""width:500px;"">
                            <p style=""font-size:50px; font-weight:bold;""
                            >disturbing</p>
                            <div style=""width:240px; margin: auto;"">
                                <img src=""images/gray_08.png"" style= ""width:200px""alt=""img"">
                            </div>
                        </div>","58","","0","images/gray_08.png","","","","disturbing"
"","","","","","html-slider-response","194","30546634","0.0-190.0","nx7lkusyw1","NaN","<div style=""width:500px;"">
                            <p style=""font-size:50px; font-weight:bold;""
                            >disturbing</p>
                            <div style=""width:240px; margin: auto;"">
                                <img src=""images/gray_31.png"" style= ""width:200px""alt=""img"">
                            </div>
                        </div>","-81","","0","images/gray_31.png","","","","disturbing"
"","","","","","html-slider-response","195","30547343","0.0-191.0","nx7lkusyw1","NaN","<div style=""width:500px;"">
                            <p style=""font-size:50px; font-weight:bold;""
                            >disturbing</p>
                            <div style=""width:240px; margin: auto;"">
                                <img src=""images/gray_36.png"" style= ""width:200px""alt=""img"">
                            </div>
                        </div>","97","","0","images/gray_36.png","","","","disturbing"
"","","","","","html-slider-response","196","30548653","0.0-192.0","nx7lkusyw1","NaN","<div style=""width:500px;"">
                            <p style=""font-size:50px; font-weight:bold;""
                            >disturbing</p>
                            <div style=""width:240px; margin: auto;"">
                                <img src=""images/gray_14.png"" style= ""width:200px""alt=""img"">
                            </div>
                        </div>","49","","0","images/gray_14.png","","","","disturbing"
"","","","","","html-slider-response","197","30549553","0.0-193.0","nx7lkusyw1","NaN","<div style=""width:500px;"">
                            <p style=""font-size:50px; font-weight:bold;""
                            >disturbing</p>
