"success","timeout","failed_images","failed_audio","failed_video","trial_type","trial_index","time_elapsed","internal_node_id","subject_id","rt","stimulus","response","question_order","slider_start","image_path","practiceTrial","practiceTrialNum","correct","concept"
"true","false","[]","[]","[]","preload","0","865","0.0-0.0","vvpn2pqqtp","","","","","","","","","",""
"","","","","","html-button-response","1","2012","0.0-1.0","vvpn2pqqtp","1145","Welcome to our experiment!<p>At the bottom of this screen, you will see a button that says ""Begin Experiment"".<br>Please only click that button when you are ready to complete the 25 minute experiment in one sitting.</p><p> Once you click that button, it will not be possible to restart the experiment.","0","","","","","","",""
"true","","","","","fullscreen","2","4536","0.0-2.0","vvpn2pqqtp","1520","","","","","","","","",""
"","","","","","survey-multi-select","3","20360","0.0-3.0","vvpn2pqqtp","15818","","{""Consent"":[""<strong>I consent</strong>""]}","[0]","","","","","",""
"","","","","","html-button-response","4","23202","0.0-4.0","vvpn2pqqtp","2837","Welcome! <p> This experiment involves two parts: demographic information, followed by the experimental task.<p> It will take about 25 minutes to complete both parts.","0","","","","","","",""
"","","","","","survey-text","5","32061","0.0-5.0","vvpn2pqqtp","8848","","{""Age"":""19"",""Gender"":""female"",""Race/ethnicity"":""white"",""Languages"":""english, italian""}","","","","","","",""
"","","","","","html-slider-response","6","47983","0.0-6.0","vvpn2pqqtp","15920","
            <div style='text-align:left; font-size:20px; line-height:25px; width: 1200px;'>
                During this experiment you will be asked to rate how much you associate maps with    different concepts.<br> Below, you can see some examples of the maps you will be asked to rate. Next to the maps
    is the list of concepts.<br>You will be asked    to rate how much you associate each map with each concept on a scale from 'not at all' to 'very much' like the
    one below. <br><br>
    Now, please look at the list of concepts and maps. For each concept, think about the map you associate 'very
    much' with the concept.<br>     When you see that map during the experiment, please rate it near the 'very much' endpoint of the
    scale.<br>Now, please think about which map you associate 'not at all'     with each concept. When you see that map during the experiment, please rate it near the 'not at all' endpoint
    of the scale.<br>
    Please use the full range of the scale. That is, if a map is somewhat associated with the concept, you would
    click partway between the middle point and right side of the scale.    You will be asked to rate each map for a given concept before moving on to the next concept.<br><br>Press the
    'Continue' button for instructions on how to use the slider.    <br><br>
</div>

<div style=""width: 500px; margin: 0 auto;"">
    <div style=""text-align: left; width: 200px; float: left;"">
        <p style=""font-size:25px; line-height:18px;"">calm</p>
        <p style=""font-size:25px; line-height:18px;"">exciting</p>
        <p style=""font-size:25px;line-height:18px;"">positive</p>
        <p style=""font-size:25px;line-height:18px;"">negative</p>
        <p style=""font-size:25px;line-height:18px;"">serious</p>
        <p style=""font-size:25px;line-height:18px;"">playful</p>
        <p style=""font-size:25px;line-height:18px;"">trustworthy</p>
        <p style=""font-size:25px;line-height:18px;"">disturbing</p>
    </div>
    <div style=""width: 200px; float: right; padding-top:15px; padding-right:40px"">
        <br>
        <br>
        <img src=""maps_anchoring.png"" alt=""img"" style=""max-width:500px"">
    </div>
    <div style=""clear: both;""></div>
</div>
            ","-200","","0","maps_anchoring.png","true","","",""
"","","","","","html-button-response","7","50814","0.0-7.0","vvpn2pqqtp","2829","<div style=""width:800px;""><p style=""text-align:left"">To move the slider, click and drag your cursor to the location of the scale where you would like to make your rating and then let go. When you let go of the slider, your response will be recorded and the next trial will begin. <br>
            We are interested in your initial impressions of each map for the given concept, so please go with your first intuition. <br>
            Before you begin the experiment, there will be four training trials for you to practice using the scale. <br>
             When you are ready to start the training trials, please click ""Continue"".</p><br></div>","0","","","","","","",""
"","","","","","html-slider-response","8","54039","0.0-8.0-0.0","vvpn2pqqtp","NaN","<div style=""width:500px;"">
                            <p style=""font-size:25px;"">Please move the slider all the way to the <br> right endpoint of the scale</p>

                            </div>
                        </div>","200","","0","","true","0","true",""
"","","","","","html-button-response","9","55500","0.0-8.0-1.0","vvpn2pqqtp","957","<p align='center'><b>Good job!</b> Click on 'Continue' to proceed.</p>","0","","","","","","",""
"","","","","","html-slider-response","10","57143","0.0-9.0-0.0","vvpn2pqqtp","NaN","<div style=""width:500px;"">
                            <p style=""font-size:25px;"">Please move the slider all the way to the <br> left endpoint of the scale</p>

                            </div>
                        </div>","-200","","0","","true","1","true",""
"","","","","","html-button-response","11","58834","0.0-9.0-1.0","vvpn2pqqtp","1188","<p align='center'><b>Good job!</b> Click on 'Continue' to proceed.</p>","0","","","","","","",""
"","","","","","html-slider-response","12","63241","0.0-10.0-0.0","vvpn2pqqtp","NaN","<div style=""width:500px;"">
                            <p style=""font-size:25px;"">Please move the slider halfway between the center and right endpoint of the scale</p>

                            </div>
                        </div>","103","","0","","true","2","true",""
"","","","","","html-button-response","13","64542","0.0-10.0-1.0","vvpn2pqqtp","794","<p align='center'><b>Good job!</b> Click on 'Continue' to proceed.</p>","0","","","","","","",""
"","","","","","html-slider-response","14","66920","0.0-11.0-0.0","vvpn2pqqtp","NaN","<div style=""width:500px;"">
                            <p style=""font-size:25px;"">Please move the slider halfway between the center and left endpoint of the scale</p>

                            </div>
                        </div>","-102","","0","","true","3","true",""
"","","","","","html-button-response","15","68155","0.0-11.0-1.0","vvpn2pqqtp","732","<p align='center'><b>Good job!</b> Click on 'Continue' to proceed.</p>","0","","","","","","",""
"","","","","","html-button-response","16","69460","0.0-12.0","vvpn2pqqtp","1304","<p>Great job! You've completed the practice trials. Now you will begin the main task.</p>","0","","","","","","",""
"","","","","","html-button-response","17","71540","0.0-13.0","vvpn2pqqtp","2079","<p>In this block of trials, you will be asked to rate how much you associate each map with:</p > <p style = 'font-size:150%; font-weight: bold'>playful</p><br></br>","0","","","","","","",""
"","","","","","html-slider-response","18","76252","0.0-14.0","vvpn2pqqtp","NaN","<div style=""width:500px;"">
                            <p style=""font-size:50px; font-weight:bold;""
                            >playful</p>
                            <div style=""width:240px; margin: auto;"">
                                <img src=""images/gray_20.png"" style= ""width:200px""alt=""img"">
                            </div>
                        </div>","-98","","0","images/gray_20.png","","","","playful"
"","","","","","html-slider-response","19","81683","0.0-15.0","vvpn2pqqtp","NaN","<div style=""width:500px;"">
                            <p style=""font-size:50px; font-weight:bold;""
                            >playful</p>
                            <div style=""width:240px; margin: auto;"">
                                <img src=""images/gray_33.png"" style= ""width:200px""alt=""img"">
                            </div>
                        </div>","-2","","0","images/gray_33.png","","","","playful"
"","","","","","html-slider-response","20","83789","0.0-16.0","vvpn2pqqtp","NaN","<div style=""width:500px;"">
                            <p style=""font-size:50px; font-weight:bold;""
                            >playful</p>
                            <div style=""width:240px; margin: auto;"">
                                <img src=""images/gray_42.png"" style= ""width:200px""alt=""img"">
                            </div>
                        </div>","0","","0","images/gray_42.png","","","","playful"
"","","","","","html-slider-response","21","85706","0.0-17.0","vvpn2pqqtp","NaN","<div style=""width:500px;"">
                            <p style=""font-size:50px; font-weight:bold;""
                            >playful</p>
                            <div style=""width:240px; margin: auto;"">
                                <img src=""images/gray_18.png"" style= ""width:200px""alt=""img"">
                            </div>
                        </div>","1","","0","images/gray_18.png","","","","playful"
"","","","","","html-slider-response","22","87268","0.0-18.0","vvpn2pqqtp","NaN","<div style=""width:500px;"">
                            <p style=""font-size:50px; font-weight:bold;""
                            >playful</p>
                            <div style=""width:240px; margin: auto;"">
                                <img src=""images/gray_28.png"" style= ""width:200px""alt=""img"">
                            </div>
                        </div>","1","","0","images/gray_28.png","","","","playful"
"","","","","","html-slider-response","23","89526","0.0-19.0","vvpn2pqqtp","NaN","<div style=""width:500px;"">
                            <p style=""font-size:50px; font-weight:bold;""
                            >playful</p>
                            <div style=""width:240px; margin: auto;"">
                                <img src=""images/gray_21.png"" style= ""width:200px""alt=""img"">
                            </div>
                        </div>","34","","0","images/gray_21.png","","","","playful"
"","","","","","html-slider-response","24","92524","0.0-20.0","vvpn2pqqtp","NaN","<div style=""width:500px;"">
                            <p style=""font-size:50px; font-weight:bold;""
                            >playful</p>
                            <div style=""width:240px; margin: auto;"">
                                <img src=""images/gray_06.png"" style= ""width:200px""alt=""img"">
                            </div>
                        </div>","-19","","0","images/gray_06.png","","","","playful"
"","","","","","html-slider-response","25","96103","0.0-21.0","vvpn2pqqtp","NaN","<div style=""width:500px;"">
                            <p style=""font-size:50px; font-weight:bold;""
                            >playful</p>
                            <div style=""width:240px; margin: auto;"">
                                <img src=""images/gray_30.png"" style= ""width:200px""alt=""img"">
                            </div>
                        </div>","-39","","0","images/gray_30.png","","","","playful"
"","","","","","html-slider-response","26","98052","0.0-22.0","vvpn2pqqtp","NaN","<div style=""width:500px;"">
                            <p style=""font-size:50px; font-weight:bold;""
                            >playful</p>
                            <div style=""width:240px; margin: auto;"">
                                <img src=""images/gray_03.png"" style= ""width:200px""alt=""img"">
                            </div>
                        </div>","-53","","0","images/gray_03.png","","","","playful"
"","","","","","html-slider-response","27","99999","0.0-23.0","vvpn2pqqtp","NaN","<div style=""width:500px;"">
                            <p style=""font-size:50px; font-weight:bold;""
                            >playful</p>
                            <div style=""width:240px; margin: auto;"">
                                <img src=""images/gray_12.png"" style= ""width:200px""alt=""img"">
                            </div>
                        </div>","18","","0","images/gray_12.png","","","","playful"
"","","","","","html-slider-response","28","101676","0.0-24.0","vvpn2pqqtp","NaN","<div style=""width:500px;"">
                            <p style=""font-size:50px; font-weight:bold;""
                            >playful</p>
                            <div style=""width:240px; margin: auto;"">
                                <img src=""images/gray_16.png"" style= ""width:200px""alt=""img"">
                            </div>
                        </div>","-25","","0","images/gray_16.png","","","","playful"
"","","","","","html-slider-response","29","103502","0.0-25.0","vvpn2pqqtp","NaN","<div style=""width:500px;"">
                            <p style=""font-size:50px; font-weight:bold;""
                            >playful</p>
                            <div style=""width:240px; margin: auto;"">
                                <img src=""images/gray_37.png"" style= ""width:200px""alt=""img"">
                            </div>
                        </div>","-26","","0","images/gray_37.png","","","","playful"
"","","","","","html-slider-response","30","105185","0.0-26.0","vvpn2pqqtp","NaN","<div style=""width:500px;"">
                            <p style=""font-size:50px; font-weight:bold;""
                            >playful</p>
                            <div style=""width:240px; margin: auto;"">
                                <img src=""images/gray_23.png"" style= ""width:200px""alt=""img"">
                            </div>
                        </div>","24","","0","images/gray_23.png","","","","playful"
"","","","","","html-slider-response","31","107109","0.0-27.0","vvpn2pqqtp","NaN","<div style=""width:500px;"">
                            <p style=""font-size:50px; font-weight:bold;""
                            >playful</p>
                            <div style=""width:240px; margin: auto;"">
                                <img src=""images/gray_31.png"" style= ""width:200px""alt=""img"">
                            </div>
                        </div>","26","","0","images/gray_31.png","","","","playful"
"","","","","","html-slider-response","32","108838","0.0-28.0","vvpn2pqqtp","NaN","<div style=""width:500px;"">
                            <p style=""font-size:50px; font-weight:bold;""
                            >playful</p>
                            <div style=""width:240px; margin: auto;"">
                                <img src=""images/gray_05.png"" style= ""width:200px""alt=""img"">
                            </div>
                        </div>","43","","0","images/gray_05.png","","","","playful"
"","","","","","html-slider-response","33","110465","0.0-29.0","vvpn2pqqtp","NaN","<div style=""width:500px;"">
                            <p style=""font-size:50px; font-weight:bold;""
                            >playful</p>
                            <div style=""width:240px; margin: auto;"">
                                <img src=""images/gray_24.png"" style= ""width:200px""alt=""img"">
                            </div>
                        </div>","-33","","0","images/gray_24.png","","","","playful"
"","","","","","html-slider-response","34","112478","0.0-30.0","vvpn2pqqtp","NaN","<div style=""width:500px;"">
                            <p style=""font-size:50px; font-weight:bold;""
                            >playful</p>
                            <div style=""width:240px; margin: auto;"">
                                <img src=""images/gray_22.png"" style= ""width:200px""alt=""img"">
                            </div>
                        </div>","-27","","0","images/gray_22.png","","","","playful"
"","","","","","html-slider-response","35","114372","0.0-31.0","vvpn2pqqtp","NaN","<div style=""width:500px;"">
                            <p style=""font-size:50px; font-weight:bold;""
                            >playful</p>
                            <div style=""width:240px; margin: auto;"">
                                <img src=""images/gray_38.png"" style= ""width:200px""alt=""img"">
                            </div>
                        </div>","-34","","0","images/gray_38.png","","","","playful"
"","","","","","html-slider-response","36","116476","0.0-32.0","vvpn2pqqtp","NaN","<div style=""width:500px;"">
                            <p style=""font-size:50px; font-weight:bold;""
                            >playful</p>
                            <div style=""width:240px; margin: auto;"">
                                <img src=""images/gray_02.png"" style= ""width:200px""alt=""img"">
                            </div>
                        </div>","24","","0","images/gray_02.png","","","","playful"
"","","","","","html-slider-response","37","118487","0.0-33.0","vvpn2pqqtp","NaN","<div style=""width:500px;"">
                            <p style=""font-size:50px; font-weight:bold;""
                            >playful</p>
                            <div style=""width:240px; margin: auto;"">
                                <img src=""images/gray_15.png"" style= ""width:200px""alt=""img"">
                            </div>
                        </div>","-54","","0","images/gray_15.png","","","","playful"
"","","","","","html-slider-response","38","120081","0.0-34.0","vvpn2pqqtp","NaN","<div style=""width:500px;"">
                            <p style=""font-size:50px; font-weight:bold;""
                            >playful</p>
                            <div style=""width:240px; margin: auto;"">
                                <img src=""images/gray_43.png"" style= ""width:200px""alt=""img"">
                            </div>
                        </div>","38","","0","images/gray_43.png","","","","playful"
"","","","","","html-slider-response","39","121834","0.0-35.0","vvpn2pqqtp","NaN","<div style=""width:500px;"">
                            <p style=""font-size:50px; font-weight:bold;""
                            >playful</p>
                            <div style=""width:240px; margin: auto;"">
                                <img src=""images/gray_14.png"" style= ""width:200px""alt=""img"">
                            </div>
                        </div>","52","","0","images/gray_14.png","","","","playful"
"","","","","","html-slider-response","40","123803","0.0-36.0","vvpn2pqqtp","NaN","<div style=""width:500px;"">
                            <p style=""font-size:50px; font-weight:bold;""
                            >playful</p>
                            <div style=""width:240px; margin: auto;"">
                                <img src=""images/gray_08.png"" style= ""width:200px""alt=""img"">
                            </div>
                        </div>","39","","0","images/gray_08.png","","","","playful"
"","","","","","html-slider-response","41","125461","0.0-37.0","vvpn2pqqtp","NaN","<div style=""width:500px;"">
                            <p style=""font-size:50px; font-weight:bold;""
                            >playful</p>
                            <div style=""width:240px; margin: auto;"">
                                <img src=""images/gray_32.png"" style= ""width:200px""alt=""img"">
                            </div>
                        </div>","44","","0","images/gray_32.png","","","","playful"
"","","","","","html-slider-response","42","127361","0.0-38.0","vvpn2pqqtp","NaN","<div style=""width:500px;"">
                            <p style=""font-size:50px; font-weight:bold;""
                            >playful</p>
                            <div style=""width:240px; margin: auto;"">
                                <img src=""images/gray_29.png"" style= ""width:200px""alt=""img"">
                            </div>
                        </div>","-122","","0","images/gray_29.png","","","","playful"
"","","","","","html-slider-response","43","129040","0.0-39.0","vvpn2pqqtp","NaN","<div style=""width:500px;"">
                            <p style=""font-size:50px; font-weight:bold;""
                            >playful</p>
                            <div style=""width:240px; margin: auto;"">
                                <img src=""images/gray_26.png"" style= ""width:200px""alt=""img"">
                            </div>
                        </div>","54","","0","images/gray_26.png","","","","playful"
"","","","","","html-slider-response","44","130716","0.0-40.0","vvpn2pqqtp","NaN","<div style=""width:500px;"">
                            <p style=""font-size:50px; font-weight:bold;""
                            >playful</p>
                            <div style=""width:240px; margin: auto;"">
                                <img src=""images/gray_44.png"" style= ""width:200px""alt=""img"">
                            </div>
                        </div>","50","","0","images/gray_44.png","","","","playful"
"","","","","","html-slider-response","45","132760","0.0-41.0","vvpn2pqqtp","NaN","<div style=""width:500px;"">
                            <p style=""font-size:50px; font-weight:bold;""
                            >playful</p>
                            <div style=""width:240px; margin: auto;"">
                                <img src=""images/gray_39.png"" style= ""width:200px""alt=""img"">
                            </div>
                        </div>","-52","","0","images/gray_39.png","","","","playful"
"","","","","","html-slider-response","46","134524","0.0-42.0","vvpn2pqqtp","NaN","<div style=""width:500px;"">
                            <p style=""font-size:50px; font-weight:bold;""
                            >playful</p>
                            <div style=""width:240px; margin: auto;"">
                                <img src=""images/gray_10.png"" style= ""width:200px""alt=""img"">
                            </div>
                        </div>","55","","0","images/gray_10.png","","","","playful"
"","","","","","html-slider-response","47","136407","0.0-43.0","vvpn2pqqtp","NaN","<div style=""width:500px;"">
                            <p style=""font-size:50px; font-weight:bold;""
                            >playful</p>
                            <div style=""width:240px; margin: auto;"">
                                <img src=""images/gray_09.png"" style= ""width:200px""alt=""img"">
                            </div>
                        </div>","59","","0","images/gray_09.png","","","","playful"
"","","","","","html-slider-response","48","138573","0.0-44.0","vvpn2pqqtp","NaN","<div style=""width:500px;"">
                            <p style=""font-size:50px; font-weight:bold;""
                            >playful</p>
                            <div style=""width:240px; margin: auto;"">
                                <img src=""images/gray_34.png"" style= ""width:200px""alt=""img"">
                            </div>
                        </div>","-60","","0","images/gray_34.png","","","","playful"
"","","","","","html-slider-response","49","140819","0.0-45.0","vvpn2pqqtp","NaN","<div style=""width:500px;"">
                            <p style=""font-size:50px; font-weight:bold;""
                            >playful</p>
                            <div style=""width:240px; margin: auto;"">
                                <img src=""images/gray_11.png"" style= ""width:200px""alt=""img"">
                            </div>
                        </div>","41","","0","images/gray_11.png","","","","playful"
"","","","","","html-slider-response","50","143183","0.0-46.0","vvpn2pqqtp","NaN","<div style=""width:500px;"">
                            <p style=""font-size:50px; font-weight:bold;""
                            >playful</p>
                            <div style=""width:240px; margin: auto;"">
                                <img src=""images/gray_01.png"" style= ""width:200px""alt=""img"">
                            </div>
                        </div>","46","","0","images/gray_01.png","","","","playful"
"","","","","","html-slider-response","51","145405","0.0-47.0","vvpn2pqqtp","NaN","<div style=""width:500px;"">
                            <p style=""font-size:50px; font-weight:bold;""
                            >playful</p>
                            <div style=""width:240px; margin: auto;"">
                                <img src=""images/gray_27.png"" style= ""width:200px""alt=""img"">
                            </div>
                        </div>","71","","0","images/gray_27.png","","","","playful"
"","","","","","html-slider-response","52","147198","0.0-48.0","vvpn2pqqtp","NaN","<div style=""width:500px;"">
                            <p style=""font-size:50px; font-weight:bold;""
                            >playful</p>
                            <div style=""width:240px; margin: auto;"">
                                <img src=""images/gray_17.png"" style= ""width:200px""alt=""img"">
                            </div>
                        </div>","42","","0","images/gray_17.png","","","","playful"
"","","","","","html-slider-response","53","149190","0.0-49.0","vvpn2pqqtp","NaN","<div style=""width:500px;"">
                            <p style=""font-size:50px; font-weight:bold;""
                            >playful</p>
                            <div style=""width:240px; margin: auto;"">
                                <img src=""images/gray_36.png"" style= ""width:200px""alt=""img"">
                            </div>
                        </div>","-91","","0","images/gray_36.png","","","","playful"
"","","","","","html-slider-response","54","150977","0.0-50.0","vvpn2pqqtp","NaN","<div style=""width:500px;"">
                            <p style=""font-size:50px; font-weight:bold;""
                            >playful</p>
                            <div style=""width:240px; margin: auto;"">
                                <img src=""images/gray_07.png"" style= ""width:200px""alt=""img"">
                            </div>
                        </div>","64","","0","images/gray_07.png","","","","playful"
"","","","","","html-slider-response","55","152911","0.0-51.0","vvpn2pqqtp","NaN","<div style=""width:500px;"">
                            <p style=""font-size:50px; font-weight:bold;""
                            >playful</p>
                            <div style=""width:240px; margin: auto;"">
                                <img src=""images/gray_25.png"" style= ""width:200px""alt=""img"">
                            </div>
                        </div>","86","","0","images/gray_25.png","","","","playful"
"","","","","","html-slider-response","56","154584","0.0-52.0","vvpn2pqqtp","NaN","<div style=""width:500px;"">
                            <p style=""font-size:50px; font-weight:bold;""
                            >playful</p>
                            <div style=""width:240px; margin: auto;"">
                                <img src=""images/gray_41.png"" style= ""width:200px""alt=""img"">
                            </div>
                        </div>","56","","0","images/gray_41.png","","","","playful"
"","","","","","html-slider-response","57","156236","0.0-53.0","vvpn2pqqtp","NaN","<div style=""width:500px;"">
                            <p style=""font-size:50px; font-weight:bold;""
                            >playful</p>
                            <div style=""width:240px; margin: auto;"">
                                <img src=""images/gray_13.png"" style= ""width:200px""alt=""img"">
                            </div>
                        </div>","-46","","0","images/gray_13.png","","","","playful"
"","","","","","html-slider-response","58","157874","0.0-54.0","vvpn2pqqtp","NaN","<div style=""width:500px;"">
                            <p style=""font-size:50px; font-weight:bold;""
                            >playful</p>
                            <div style=""width:240px; margin: auto;"">
                                <img src=""images/gray_40.png"" style= ""width:200px""alt=""img"">
                            </div>
                        </div>","-62","","0","images/gray_40.png","","","","playful"
"","","","","","html-slider-response","59","160207","0.0-55.0","vvpn2pqqtp","NaN","<div style=""width:500px;"">
                            <p style=""font-size:50px; font-weight:bold;""
                            >playful</p>
                            <div style=""width:240px; margin: auto;"">
                                <img src=""images/gray_19.png"" style= ""width:200px""alt=""img"">
                            </div>
                        </div>","-72","","0","images/gray_19.png","","","","playful"
"","","","","","html-slider-response","60","161816","0.0-56.0","vvpn2pqqtp","NaN","<div style=""width:500px;"">
                            <p style=""font-size:50px; font-weight:bold;""
                            >playful</p>
                            <div style=""width:240px; margin: auto;"">
                                <img src=""images/gray_35.png"" style= ""width:200px""alt=""img"">
                            </div>
                        </div>","61","","0","images/gray_35.png","","","","playful"
"","","","","","html-slider-response","61","163748","0.0-57.0","vvpn2pqqtp","NaN","<div style=""width:500px;"">
                            <p style=""font-size:50px; font-weight:bold;""
                            >playful</p>
                            <div style=""width:240px; margin: auto;"">
                                <img src=""images/gray_04.png"" style= ""width:200px""alt=""img"">
                            </div>
                        </div>","59","","0","images/gray_04.png","","","","playful"
"","","","","","html-button-response","62","166177","0.0-58.0","vvpn2pqqtp","1924","<p>Great Job! You've finished block 1.<br></br> You have 7 block(s) left to go.<br></br></p>","0","","","","","","",""
"","","","","","html-button-response","63","167854","0.0-59.0","vvpn2pqqtp","1677","<p>In this block of trials, you will be asked to rate how much you associate each map with:</p > <p style = 'font-size:150%; font-weight: bold'>serious</p><br></br>","0","","","","","","",""
"","","","","","html-slider-response","64","169971","0.0-60.0","vvpn2pqqtp","NaN","<div style=""width:500px;"">
                            <p style=""font-size:50px; font-weight:bold;""
                            >serious</p>
                            <div style=""width:240px; margin: auto;"">
                                <img src=""images/gray_37.png"" style= ""width:200px""alt=""img"">
                            </div>
                        </div>","52","","0","images/gray_37.png","","","","serious"
"","","","","","html-slider-response","65","171864","0.0-61.0","vvpn2pqqtp","NaN","<div style=""width:500px;"">
                            <p style=""font-size:50px; font-weight:bold;""
                            >serious</p>
                            <div style=""width:240px; margin: auto;"">
                                <img src=""images/gray_13.png"" style= ""width:200px""alt=""img"">
                            </div>
                        </div>","71","","0","images/gray_13.png","","","","serious"
"","","","","","html-slider-response","66","174097","0.0-62.0","vvpn2pqqtp","NaN","<div style=""width:500px;"">
                            <p style=""font-size:50px; font-weight:bold;""
                            >serious</p>
                            <div style=""width:240px; margin: auto;"">
                                <img src=""images/gray_14.png"" style= ""width:200px""alt=""img"">
                            </div>
                        </div>","-96","","0","images/gray_14.png","","","","serious"
"","","","","","html-slider-response","67","176556","0.0-63.0","vvpn2pqqtp","NaN","<div style=""width:500px;"">
                            <p style=""font-size:50px; font-weight:bold;""
                            >serious</p>
                            <div style=""width:240px; margin: auto;"">
                                <img src=""images/gray_11.png"" style= ""width:200px""alt=""img"">
                            </div>
                        </div>","-90","","0","images/gray_11.png","","","","serious"
"","","","","","html-slider-response","68","179203","0.0-64.0","vvpn2pqqtp","NaN","<div style=""width:500px;"">
                            <p style=""font-size:50px; font-weight:bold;""
                            >serious</p>
                            <div style=""width:240px; margin: auto;"">
                                <img src=""images/gray_10.png"" style= ""width:200px""alt=""img"">
                            </div>
                        </div>","-98","","0","images/gray_10.png","","","","serious"
"","","","","","html-slider-response","69","181255","0.0-65.0","vvpn2pqqtp","NaN","<div style=""width:500px;"">
                            <p style=""font-size:50px; font-weight:bold;""
                            >serious</p>
                            <div style=""width:240px; margin: auto;"">
                                <img src=""images/gray_31.png"" style= ""width:200px""alt=""img"">
                            </div>
                        </div>","-67","","0","images/gray_31.png","","","","serious"
"","","","","","html-slider-response","70","183384","0.0-66.0","vvpn2pqqtp","NaN","<div style=""width:500px;"">
                            <p style=""font-size:50px; font-weight:bold;""
                            >serious</p>
                            <div style=""width:240px; margin: auto;"">
                                <img src=""images/gray_29.png"" style= ""width:200px""alt=""img"">
                            </div>
                        </div>","-95","","0","images/gray_29.png","","","","serious"
"","","","","","html-slider-response","71","186203","0.0-67.0","vvpn2pqqtp","NaN","<div style=""width:500px;"">
                            <p style=""font-size:50px; font-weight:bold;""
                            >serious</p>
                            <div style=""width:240px; margin: auto;"">
                                <img src=""images/gray_17.png"" style= ""width:200px""alt=""img"">
                            </div>
                        </div>","-90","","0","images/gray_17.png","","","","serious"
"","","","","","html-slider-response","72","188006","0.0-68.0","vvpn2pqqtp","NaN","<div style=""width:500px;"">
                            <p style=""font-size:50px; font-weight:bold;""
                            >serious</p>
                            <div style=""width:240px; margin: auto;"">
                                <img src=""images/gray_04.png"" style= ""width:200px""alt=""img"">
                            </div>
                        </div>","75","","0","images/gray_04.png","","","","serious"
"","","","","","html-slider-response","73","190460","0.0-69.0","vvpn2pqqtp","NaN","<div style=""width:500px;"">
                            <p style=""font-size:50px; font-weight:bold;""
                            >serious</p>
                            <div style=""width:240px; margin: auto;"">
                                <img src=""images/gray_06.png"" style= ""width:200px""alt=""img"">
                            </div>
                        </div>","-129","","0","images/gray_06.png","","","","serious"
"","","","","","html-slider-response","74","192443","0.0-70.0","vvpn2pqqtp","NaN","<div style=""width:500px;"">
                            <p style=""font-size:50px; font-weight:bold;""
                            >serious</p>
                            <div style=""width:240px; margin: auto;"">
                                <img src=""images/gray_43.png"" style= ""width:200px""alt=""img"">
                            </div>
                        </div>","-60","","0","images/gray_43.png","","","","serious"
"","","","","","html-slider-response","75","195004","0.0-71.0","vvpn2pqqtp","NaN","<div style=""width:500px;"">
                            <p style=""font-size:50px; font-weight:bold;""
                            >serious</p>
                            <div style=""width:240px; margin: auto;"">
                                <img src=""images/gray_03.png"" style= ""width:200px""alt=""img"">
                            </div>
                        </div>","-91","","0","images/gray_03.png","","","","serious"
"","","","","","html-slider-response","76","198243","0.0-72.0","vvpn2pqqtp","NaN","<div style=""width:500px;"">
                            <p style=""font-size:50px; font-weight:bold;""
                            >serious</p>
                            <div style=""width:240px; margin: auto;"">
                                <img src=""images/gray_36.png"" style= ""width:200px""alt=""img"">
                            </div>
                        </div>","-78","","0","images/gray_36.png","","","","serious"
"","","","","","html-slider-response","77","201980","0.0-73.0","vvpn2pqqtp","NaN","<div style=""width:500px;"">
                            <p style=""font-size:50px; font-weight:bold;""
                            >serious</p>
                            <div style=""width:240px; margin: auto;"">
                                <img src=""images/gray_16.png"" style= ""width:200px""alt=""img"">
                            </div>
                        </div>","-83","","0","images/gray_16.png","","","","serious"
"","","","","","html-slider-response","78","203908","0.0-74.0","vvpn2pqqtp","NaN","<div style=""width:500px;"">
                            <p style=""font-size:50px; font-weight:bold;""
                            >serious</p>
                            <div style=""width:240px; margin: auto;"">
                                <img src=""images/gray_20.png"" style= ""width:200px""alt=""img"">
                            </div>
                        </div>","71","","0","images/gray_20.png","","","","serious"
"","","","","","html-slider-response","79","205760","0.0-75.0","vvpn2pqqtp","NaN","<div style=""width:500px;"">
                            <p style=""font-size:50px; font-weight:bold;""
                            >serious</p>
                            <div style=""width:240px; margin: auto;"">
                                <img src=""images/gray_18.png"" style= ""width:200px""alt=""img"">
                            </div>
                        </div>","82","","0","images/gray_18.png","","","","serious"
"","","","","","html-slider-response","80","207878","0.0-76.0","vvpn2pqqtp","NaN","<div style=""width:500px;"">
                            <p style=""font-size:50px; font-weight:bold;""
                            >serious</p>
                            <div style=""width:240px; margin: auto;"">
                                <img src=""images/gray_08.png"" style= ""width:200px""alt=""img"">
                            </div>
                        </div>","-81","","0","images/gray_08.png","","","","serious"
"","","","","","html-slider-response","81","210398","0.0-77.0","vvpn2pqqtp","NaN","<div style=""width:500px;"">
                            <p style=""font-size:50px; font-weight:bold;""
                            >serious</p>
                            <div style=""width:240px; margin: auto;"">
                                <img src=""images/gray_44.png"" style= ""width:200px""alt=""img"">
                            </div>
                        </div>","-103","","0","images/gray_44.png","","","","serious"
"","","","","","html-slider-response","82","212486","0.0-78.0","vvpn2pqqtp","NaN","<div style=""width:500px;"">
                            <p style=""font-size:50px; font-weight:bold;""
                            >serious</p>
                            <div style=""width:240px; margin: auto;"">
                                <img src=""images/gray_35.png"" style= ""width:200px""alt=""img"">
                            </div>
                        </div>","-82","","0","images/gray_35.png","","","","serious"
"","","","","","html-slider-response","83","214543","0.0-79.0","vvpn2pqqtp","NaN","<div style=""width:500px;"">
                            <p style=""font-size:50px; font-weight:bold;""
                            >serious</p>
                            <div style=""width:240px; margin: auto;"">
                                <img src=""images/gray_42.png"" style= ""width:200px""alt=""img"">
                            </div>
                        </div>","-80","","0","images/gray_42.png","","","","serious"
"","","","","","html-slider-response","84","216463","0.0-80.0","vvpn2pqqtp","NaN","<div style=""width:500px;"">
                            <p style=""font-size:50px; font-weight:bold;""
                            >serious</p>
                            <div style=""width:240px; margin: auto;"">
                                <img src=""images/gray_26.png"" style= ""width:200px""alt=""img"">
                            </div>
                        </div>","-62","","0","images/gray_26.png","","","","serious"
"","","","","","html-slider-response","85","218453","0.0-81.0","vvpn2pqqtp","NaN","<div style=""width:500px;"">
                            <p style=""font-size:50px; font-weight:bold;""
                            >serious</p>
                            <div style=""width:240px; margin: auto;"">
                                <img src=""images/gray_33.png"" style= ""width:200px""alt=""img"">
                            </div>
                        </div>","59","","0","images/gray_33.png","","","","serious"
"","","","","","html-slider-response","86","219990","0.0-82.0","vvpn2pqqtp","NaN","<div style=""width:500px;"">
                            <p style=""font-size:50px; font-weight:bold;""
                            >serious</p>
                            <div style=""width:240px; margin: auto;"">
                                <img src=""images/gray_02.png"" style= ""width:200px""alt=""img"">
                            </div>
                        </div>","52","","0","images/gray_02.png","","","","serious"
"","","","","","html-slider-response","87","221434","0.0-83.0","vvpn2pqqtp","NaN","<div style=""width:500px;"">
                            <p style=""font-size:50px; font-weight:bold;""
                            >serious</p>
                            <div style=""width:240px; margin: auto;"">
                                <img src=""images/gray_28.png"" style= ""width:200px""alt=""img"">
                            </div>
                        </div>","-66","","0","images/gray_28.png","","","","serious"
"","","","","","html-slider-response","88","223118","0.0-84.0","vvpn2pqqtp","NaN","<div style=""width:500px;"">
                            <p style=""font-size:50px; font-weight:bold;""
                            >serious</p>
                            <div style=""width:240px; margin: auto;"">
                                <img src=""images/gray_01.png"" style= ""width:200px""alt=""img"">
                            </div>
                        </div>","114","","0","images/gray_01.png","","","","serious"
"","","","","","html-slider-response","89","225494","0.0-85.0","vvpn2pqqtp","NaN","<div style=""width:500px;"">
                            <p style=""font-size:50px; font-weight:bold;""
                            >serious</p>
                            <div style=""width:240px; margin: auto;"">
                                <img src=""images/gray_09.png"" style= ""width:200px""alt=""img"">
                            </div>
                        </div>","70","","0","images/gray_09.png","","","","serious"
"","","","","","html-slider-response","90","227507","0.0-86.0","vvpn2pqqtp","NaN","<div style=""width:500px;"">
                            <p style=""font-size:50px; font-weight:bold;""
                            >serious</p>
                            <div style=""width:240px; margin: auto;"">
                                <img src=""images/gray_15.png"" style= ""width:200px""alt=""img"">
                            </div>
                        </div>","83","","0","images/gray_15.png","","","","serious"
"","","","","","html-slider-response","91","229848","0.0-87.0","vvpn2pqqtp","NaN","<div style=""width:500px;"">
                            <p style=""font-size:50px; font-weight:bold;""
                            >serious</p>
                            <div style=""width:240px; margin: auto;"">
                                <img src=""images/gray_12.png"" style= ""width:200px""alt=""img"">
                            </div>
                        </div>","-66","","0","images/gray_12.png","","","","serious"
"","","","","","html-slider-response","92","235529","0.0-88.0","vvpn2pqqtp","NaN","<div style=""width:500px;"">
                            <p style=""font-size:50px; font-weight:bold;""
                            >serious</p>
                            <div style=""width:240px; margin: auto;"">
                                <img src=""images/gray_32.png"" style= ""width:200px""alt=""img"">
                            </div>
                        </div>","73","","0","images/gray_32.png","","","","serious"
"","","","","","html-slider-response","93","237899","0.0-89.0","vvpn2pqqtp","NaN","<div style=""width:500px;"">
                            <p style=""font-size:50px; font-weight:bold;""
                            >serious</p>
                            <div style=""width:240px; margin: auto;"">
                                <img src=""images/gray_21.png"" style= ""width:200px""alt=""img"">
                            </div>
                        </div>","134","","0","images/gray_21.png","","","","serious"
"","","","","","html-slider-response","94","239553","0.0-90.0","vvpn2pqqtp","NaN","<div style=""width:500px;"">
                            <p style=""font-size:50px; font-weight:bold;""
                            >serious</p>
                            <div style=""width:240px; margin: auto;"">
                                <img src=""images/gray_27.png"" style= ""width:200px""alt=""img"">
                            </div>
                        </div>","-78","","0","images/gray_27.png","","","","serious"
"","","","","","html-slider-response","95","241537","0.0-91.0","vvpn2pqqtp","NaN","<div style=""width:500px;"">
                            <p style=""font-size:50px; font-weight:bold;""
                            >serious</p>
                            <div style=""width:240px; margin: auto;"">
                                <img src=""images/gray_38.png"" style= ""width:200px""alt=""img"">
                            </div>
                        </div>","-79","","0","images/gray_38.png","","","","serious"
"","","","","","html-slider-response","96","243920","0.0-92.0","vvpn2pqqtp","NaN","<div style=""width:500px;"">
                            <p style=""font-size:50px; font-weight:bold;""
                            >serious</p>
                            <div style=""width:240px; margin: auto;"">
                                <img src=""images/gray_22.png"" style= ""width:200px""alt=""img"">
                            </div>
                        </div>","-100","","0","images/gray_22.png","","","","serious"
"","","","","","html-slider-response","97","245677","0.0-93.0","vvpn2pqqtp","NaN","<div style=""width:500px;"">
                            <p style=""font-size:50px; font-weight:bold;""
                            >serious</p>
                            <div style=""width:240px; margin: auto;"">
                                <img src=""images/gray_39.png"" style= ""width:200px""alt=""img"">
                            </div>
                        </div>","63","","0","images/gray_39.png","","","","serious"
"","","","","","html-slider-response","98","248311","0.0-94.0","vvpn2pqqtp","NaN","<div style=""width:500px;"">
                            <p style=""font-size:50px; font-weight:bold;""
                            >serious</p>
                            <div style=""width:240px; margin: auto;"">
                                <img src=""images/gray_41.png"" style= ""width:200px""alt=""img"">
                            </div>
                        </div>","-102","","0","images/gray_41.png","","","","serious"
"","","","","","html-slider-response","99","250386","0.0-95.0","vvpn2pqqtp","NaN","<div style=""width:500px;"">
                            <p style=""font-size:50px; font-weight:bold;""
                            >serious</p>
                            <div style=""width:240px; margin: auto;"">
                                <img src=""images/gray_07.png"" style= ""width:200px""alt=""img"">
                            </div>
                        </div>","-86","","0","images/gray_07.png","","","","serious"
"","","","","","html-slider-response","100","253977","0.0-96.0","vvpn2pqqtp","NaN","<div style=""width:500px;"">
                            <p style=""font-size:50px; font-weight:bold;""
                            >serious</p>
                            <div style=""width:240px; margin: auto;"">
                                <img src=""images/gray_05.png"" style= ""width:200px""alt=""img"">
                            </div>
                        </div>","89","","0","images/gray_05.png","","","","serious"
"","","","","","html-slider-response","101","256095","0.0-97.0","vvpn2pqqtp","NaN","<div style=""width:500px;"">
                            <p style=""font-size:50px; font-weight:bold;""
                            >serious</p>
                            <div style=""width:240px; margin: auto;"">
                                <img src=""images/gray_24.png"" style= ""width:200px""alt=""img"">
                            </div>
                        </div>","-76","","0","images/gray_24.png","","","","serious"
"","","","","","html-slider-response","102","258022","0.0-98.0","vvpn2pqqtp","NaN","<div style=""width:500px;"">
                            <p style=""font-size:50px; font-weight:bold;""
                            >serious</p>
                            <div style=""width:240px; margin: auto;"">
                                <img src=""images/gray_23.png"" style= ""width:200px""alt=""img"">
                            </div>
                        </div>","-107","","0","images/gray_23.png","","","","serious"
"","","","","","html-slider-response","103","260910","0.0-99.0","vvpn2pqqtp","NaN","<div style=""width:500px;"">
                            <p style=""font-size:50px; font-weight:bold;""
                            >serious</p>
                            <div style=""width:240px; margin: auto;"">
                                <img src=""images/gray_30.png"" style= ""width:200px""alt=""img"">
                            </div>
                        </div>","-97","","0","images/gray_30.png","","","","serious"
"","","","","","html-slider-response","104","263329","0.0-100.0","vvpn2pqqtp","NaN","<div style=""width:500px;"">
                            <p style=""font-size:50px; font-weight:bold;""
                            >serious</p>
                            <div style=""width:240px; margin: auto;"">
                                <img src=""images/gray_25.png"" style= ""width:200px""alt=""img"">
                            </div>
                        </div>","100","","0","images/gray_25.png","","","","serious"
"","","","","","html-slider-response","105","265051","0.0-101.0","vvpn2pqqtp","NaN","<div style=""width:500px;"">
                            <p style=""font-size:50px; font-weight:bold;""
                            >serious</p>
                            <div style=""width:240px; margin: auto;"">
                                <img src=""images/gray_34.png"" style= ""width:200px""alt=""img"">
                            </div>
                        </div>","-112","","0","images/gray_34.png","","","","serious"
"","","","","","html-slider-response","106","266737","0.0-102.0","vvpn2pqqtp","NaN","<div style=""width:500px;"">
                            <p style=""font-size:50px; font-weight:bold;""
                            >serious</p>
                            <div style=""width:240px; margin: auto;"">
                                <img src=""images/gray_19.png"" style= ""width:200px""alt=""img"">
                            </div>
                        </div>","-1","","0","images/gray_19.png","","","","serious"
"","","","","","html-slider-response","107","268407","0.0-103.0","vvpn2pqqtp","NaN","<div style=""width:500px;"">
                            <p style=""font-size:50px; font-weight:bold;""
                            >serious</p>
                            <div style=""width:240px; margin: auto;"">
                                <img src=""images/gray_40.png"" style= ""width:200px""alt=""img"">
                            </div>
                        </div>","-59","","0","images/gray_40.png","","","","serious"
"","","","","","html-button-response","108","277230","0.0-104.0","vvpn2pqqtp","8318","<p>Great Job! You've finished block 2.<br></br> You have 6 block(s) left to go.<br></br></p>","0","","","","","","",""
"","","","","","html-button-response","109","278943","0.0-105.0","vvpn2pqqtp","1712","<p>In this block of trials, you will be asked to rate how much you associate each map with:</p > <p style = 'font-size:150%; font-weight: bold'>calm</p><br></br>","0","","","","","","",""
"","","","","","html-slider-response","110","280778","0.0-106.0","vvpn2pqqtp","NaN","<div style=""width:500px;"">
                            <p style=""font-size:50px; font-weight:bold;""
                            >calm</p>
                            <div style=""width:240px; margin: auto;"">
                                <img src=""images/gray_03.png"" style= ""width:200px""alt=""img"">
                            </div>
                        </div>","-88","","0","images/gray_03.png","","","","calm"
"","","","","","html-slider-response","111","282708","0.0-107.0","vvpn2pqqtp","NaN","<div style=""width:500px;"">
                            <p style=""font-size:50px; font-weight:bold;""
                            >calm</p>
                            <div style=""width:240px; margin: auto;"">
                                <img src=""images/gray_14.png"" style= ""width:200px""alt=""img"">
                            </div>
                        </div>","96","","0","images/gray_14.png","","","","calm"
"","","","","","html-slider-response","112","284978","0.0-108.0","vvpn2pqqtp","NaN","<div style=""width:500px;"">
                            <p style=""font-size:50px; font-weight:bold;""
                            >calm</p>
                            <div style=""width:240px; margin: auto;"">
                                <img src=""images/gray_44.png"" style= ""width:200px""alt=""img"">
                            </div>
                        </div>","-85","","0","images/gray_44.png","","","","calm"
"","","","","","html-slider-response","113","287053","0.0-109.0","vvpn2pqqtp","NaN","<div style=""width:500px;"">
                            <p style=""font-size:50px; font-weight:bold;""
                            >calm</p>
                            <div style=""width:240px; margin: auto;"">
                                <img src=""images/gray_36.png"" style= ""width:200px""alt=""img"">
                            </div>
                        </div>","-116","","0","images/gray_36.png","","","","calm"
"","","","","","html-slider-response","114","288999","0.0-110.0","vvpn2pqqtp","NaN","<div style=""width:500px;"">
                            <p style=""font-size:50px; font-weight:bold;""
                            >calm</p>
                            <div style=""width:240px; margin: auto;"">
                                <img src=""images/gray_38.png"" style= ""width:200px""alt=""img"">
                            </div>
                        </div>","-112","","0","images/gray_38.png","","","","calm"
"","","","","","html-slider-response","115","291457","0.0-111.0","vvpn2pqqtp","NaN","<div style=""width:500px;"">
                            <p style=""font-size:50px; font-weight:bold;""
                            >calm</p>
                            <div style=""width:240px; margin: auto;"">
                                <img src=""images/gray_07.png"" style= ""width:200px""alt=""img"">
                            </div>
                        </div>","-84","","0","images/gray_07.png","","","","calm"
"","","","","","html-slider-response","116","293594","0.0-112.0","vvpn2pqqtp","NaN","<div style=""width:500px;"">
                            <p style=""font-size:50px; font-weight:bold;""
                            >calm</p>
                            <div style=""width:240px; margin: auto;"">
                                <img src=""images/gray_17.png"" style= ""width:200px""alt=""img"">
                            </div>
                        </div>","-114","","0","images/gray_17.png","","","","calm"
"","","","","","html-slider-response","117","295371","0.0-113.0","vvpn2pqqtp","NaN","<div style=""width:500px;"">
                            <p style=""font-size:50px; font-weight:bold;""
                            >calm</p>
                            <div style=""width:240px; margin: auto;"">
                                <img src=""images/gray_12.png"" style= ""width:200px""alt=""img"">
                            </div>
                        </div>","95","","0","images/gray_12.png","","","","calm"
"","","","","","html-slider-response","118","297446","0.0-114.0","vvpn2pqqtp","NaN","<div style=""width:500px;"">
                            <p style=""font-size:50px; font-weight:bold;""
                            >calm</p>
                            <div style=""width:240px; margin: auto;"">
                                <img src=""images/gray_13.png"" style= ""width:200px""alt=""img"">
                            </div>
                        </div>","-118","","0","images/gray_13.png","","","","calm"
"","","","","","html-slider-response","119","305522","0.0-115.0","vvpn2pqqtp","NaN","<div style=""width:500px;"">
                            <p style=""font-size:50px; font-weight:bold;""
                            >calm</p>
                            <div style=""width:240px; margin: auto;"">
                                <img src=""images/gray_08.png"" style= ""width:200px""alt=""img"">
                            </div>
                        </div>","-97","","0","images/gray_08.png","","","","calm"
"","","","","","html-slider-response","120","307437","0.0-116.0","vvpn2pqqtp","NaN","<div style=""width:500px;"">
                            <p style=""font-size:50px; font-weight:bold;""
                            >calm</p>
                            <div style=""width:240px; margin: auto;"">
                                <img src=""images/gray_18.png"" style= ""width:200px""alt=""img"">
                            </div>
                        </div>","122","","0","images/gray_18.png","","","","calm"
"","","","","","html-slider-response","121","309214","0.0-117.0","vvpn2pqqtp","NaN","<div style=""width:500px;"">
                            <p style=""font-size:50px; font-weight:bold;""
                            >calm</p>
                            <div style=""width:240px; margin: auto;"">
                                <img src=""images/gray_29.png"" style= ""width:200px""alt=""img"">
                            </div>
                        </div>","93","","0","images/gray_29.png","","","","calm"
"","","","","","html-slider-response","122","311905","0.0-118.0","vvpn2pqqtp","NaN","<div style=""width:500px;"">
                            <p style=""font-size:50px; font-weight:bold;""
                            >calm</p>
                            <div style=""width:240px; margin: auto;"">
                                <img src=""images/gray_04.png"" style= ""width:200px""alt=""img"">
                            </div>
                        </div>","-84","","0","images/gray_04.png","","","","calm"
"","","","","","html-slider-response","123","313862","0.0-119.0","vvpn2pqqtp","NaN","<div style=""width:500px;"">
                            <p style=""font-size:50px; font-weight:bold;""
                            >calm</p>
                            <div style=""width:240px; margin: auto;"">
                                <img src=""images/gray_15.png"" style= ""width:200px""alt=""img"">
                            </div>
                        </div>","-99","","0","images/gray_15.png","","","","calm"
"","","","","","html-slider-response","124","315998","0.0-120.0","vvpn2pqqtp","NaN","<div style=""width:500px;"">
                            <p style=""font-size:50px; font-weight:bold;""
                            >calm</p>
                            <div style=""width:240px; margin: auto;"">
                                <img src=""images/gray_32.png"" style= ""width:200px""alt=""img"">
                            </div>
                        </div>","-104","","0","images/gray_32.png","","","","calm"
"","","","","","html-slider-response","125","317814","0.0-121.0","vvpn2pqqtp","NaN","<div style=""width:500px;"">
                            <p style=""font-size:50px; font-weight:bold;""
                            >calm</p>
                            <div style=""width:240px; margin: auto;"">
                                <img src=""images/gray_05.png"" style= ""width:200px""alt=""img"">
                            </div>
                        </div>","102","","0","images/gray_05.png","","","","calm"
"","","","","","html-slider-response","126","319841","0.0-122.0","vvpn2pqqtp","NaN","<div style=""width:500px;"">
                            <p style=""font-size:50px; font-weight:bold;""
                            >calm</p>
                            <div style=""width:240px; margin: auto;"">
                                <img src=""images/gray_33.png"" style= ""width:200px""alt=""img"">
                            </div>
                        </div>","-110","","0","images/gray_33.png","","","","calm"
"","","","","","html-slider-response","127","321846","0.0-123.0","vvpn2pqqtp","NaN","<div style=""width:500px;"">
                            <p style=""font-size:50px; font-weight:bold;""
                            >calm</p>
                            <div style=""width:240px; margin: auto;"">
                                <img src=""images/gray_41.png"" style= ""width:200px""alt=""img"">
                            </div>
                        </div>","-87","","0","images/gray_41.png","","","","calm"
"","","","","","html-slider-response","128","323389","0.0-124.0","vvpn2pqqtp","NaN","<div style=""width:500px;"">
                            <p style=""font-size:50px; font-weight:bold;""
                            >calm</p>
                            <div style=""width:240px; margin: auto;"">
                                <img src=""images/gray_37.png"" style= ""width:200px""alt=""img"">
                            </div>
                        </div>","-95","","0","images/gray_37.png","","","","calm"
"","","","","","html-slider-response","129","325420","0.0-125.0","vvpn2pqqtp","NaN","<div style=""width:500px;"">
                            <p style=""font-size:50px; font-weight:bold;""
                            >calm</p>
                            <div style=""width:240px; margin: auto;"">
                                <img src=""images/gray_21.png"" style= ""width:200px""alt=""img"">
                            </div>
                        </div>","111","","0","images/gray_21.png","","","","calm"
"","","","","","html-slider-response","130","327240","0.0-126.0","vvpn2pqqtp","NaN","<div style=""width:500px;"">
                            <p style=""font-size:50px; font-weight:bold;""
                            >calm</p>
                            <div style=""width:240px; margin: auto;"">
                                <img src=""images/gray_26.png"" style= ""width:200px""alt=""img"">
                            </div>
                        </div>","-121","","0","images/gray_26.png","","","","calm"
"","","","","","html-slider-response","131","329692","0.0-127.0","vvpn2pqqtp","NaN","<div style=""width:500px;"">
                            <p style=""font-size:50px; font-weight:bold;""
                            >calm</p>
                            <div style=""width:240px; margin: auto;"">
                                <img src=""images/gray_09.png"" style= ""width:200px""alt=""img"">
                            </div>
                        </div>","-112","","0","images/gray_09.png","","","","calm"
"","","","","","html-slider-response","132","331831","0.0-128.0","vvpn2pqqtp","NaN","<div style=""width:500px;"">
                            <p style=""font-size:50px; font-weight:bold;""
                            >calm</p>
                            <div style=""width:240px; margin: auto;"">
                                <img src=""images/gray_34.png"" style= ""width:200px""alt=""img"">
                            </div>
                        </div>","110","","0","images/gray_34.png","","","","calm"
"","","","","","html-slider-response","133","333726","0.0-129.0","vvpn2pqqtp","NaN","<div style=""width:500px;"">
                            <p style=""font-size:50px; font-weight:bold;""
                            >calm</p>
                            <div style=""width:240px; margin: auto;"">
                                <img src=""images/gray_01.png"" style= ""width:200px""alt=""img"">
                            </div>
                        </div>","104","","0","images/gray_01.png","","","","calm"
"","","","","","html-slider-response","134","335850","0.0-130.0","vvpn2pqqtp","NaN","<div style=""width:500px;"">
                            <p style=""font-size:50px; font-weight:bold;""
                            >calm</p>
                            <div style=""width:240px; margin: auto;"">
                                <img src=""images/gray_43.png"" style= ""width:200px""alt=""img"">
                            </div>
                        </div>","-110","","0","images/gray_43.png","","","","calm"
"","","","","","html-slider-response","135","338934","0.0-131.0","vvpn2pqqtp","NaN","<div style=""width:500px;"">
                            <p style=""font-size:50px; font-weight:bold;""
                            >calm</p>
                            <div style=""width:240px; margin: auto;"">
                                <img src=""images/gray_40.png"" style= ""width:200px""alt=""img"">
                            </div>
                        </div>","-102","","0","images/gray_40.png","","","","calm"
"","","","","","html-slider-response","136","341351","0.0-132.0","vvpn2pqqtp","NaN","<div style=""width:500px;"">
                            <p style=""font-size:50px; font-weight:bold;""
                            >calm</p>
                            <div style=""width:240px; margin: auto;"">
                                <img src=""images/gray_42.png"" style= ""width:200px""alt=""img"">
                            </div>
                        </div>","-98","","0","images/gray_42.png","","","","calm"
"","","","","","html-slider-response","137","343454","0.0-133.0","vvpn2pqqtp","NaN","<div style=""width:500px;"">
                            <p style=""font-size:50px; font-weight:bold;""
                            >calm</p>
                            <div style=""width:240px; margin: auto;"">
                                <img src=""images/gray_22.png"" style= ""width:200px""alt=""img"">
                            </div>
                        </div>","-106","","0","images/gray_22.png","","","","calm"
"","","","","","html-slider-response","138","346192","0.0-134.0","vvpn2pqqtp","NaN","<div style=""width:500px;"">
                            <p style=""font-size:50px; font-weight:bold;""
                            >calm</p>
                            <div style=""width:240px; margin: auto;"">
                                <img src=""images/gray_19.png"" style= ""width:200px""alt=""img"">
                            </div>
                        </div>","106","","0","images/gray_19.png","","","","calm"
"","","","","","html-slider-response","139","349153","0.0-135.0","vvpn2pqqtp","NaN","<div style=""width:500px;"">
                            <p style=""font-size:50px; font-weight:bold;""
                            >calm</p>
                            <div style=""width:240px; margin: auto;"">
                                <img src=""images/gray_06.png"" style= ""width:200px""alt=""img"">
                            </div>
                        </div>","116","","0","images/gray_06.png","","","","calm"
"","","","","","html-slider-response","140","351694","0.0-136.0","vvpn2pqqtp","NaN","<div style=""width:500px;"">
                            <p style=""font-size:50px; font-weight:bold;""
                            >calm</p>
                            <div style=""width:240px; margin: auto;"">
                                <img src=""images/gray_27.png"" style= ""width:200px""alt=""img"">
                            </div>
                        </div>","111","","0","images/gray_27.png","","","","calm"
"","","","","","html-slider-response","141","353690","0.0-137.0","vvpn2pqqtp","NaN","<div style=""width:500px;"">
                            <p style=""font-size:50px; font-weight:bold;""
                            >calm</p>
                            <div style=""width:240px; margin: auto;"">
                                <img src=""images/gray_31.png"" style= ""width:200px""alt=""img"">
                            </div>
                        </div>","124","","0","images/gray_31.png","","","","calm"
"","","","","","html-slider-response","142","355264","0.0-138.0","vvpn2pqqtp","NaN","<div style=""width:500px;"">
                            <p style=""font-size:50px; font-weight:bold;""
                            >calm</p>
                            <div style=""width:240px; margin: auto;"">
                                <img src=""images/gray_23.png"" style= ""width:200px""alt=""img"">
                            </div>
                        </div>","-26","","0","images/gray_23.png","","","","calm"
"","","","","","html-slider-response","143","357165","0.0-139.0","vvpn2pqqtp","NaN","<div style=""width:500px;"">
                            <p style=""font-size:50px; font-weight:bold;""
                            >calm</p>
                            <div style=""width:240px; margin: auto;"">
                                <img src=""images/gray_11.png"" style= ""width:200px""alt=""img"">
                            </div>
                        </div>","-90","","0","images/gray_11.png","","","","calm"
"","","","","","html-slider-response","144","359255","0.0-140.0","vvpn2pqqtp","NaN","<div style=""width:500px;"">
                            <p style=""font-size:50px; font-weight:bold;""
                            >calm</p>
                            <div style=""width:240px; margin: auto;"">
                                <img src=""images/gray_25.png"" style= ""width:200px""alt=""img"">
                            </div>
                        </div>","135","","0","images/gray_25.png","","","","calm"
"","","","","","html-slider-response","145","361191","0.0-141.0","vvpn2pqqtp","NaN","<div style=""width:500px;"">
                            <p style=""font-size:50px; font-weight:bold;""
                            >calm</p>
                            <div style=""width:240px; margin: auto;"">
                                <img src=""images/gray_28.png"" style= ""width:200px""alt=""img"">
                            </div>
                        </div>","-102","","0","images/gray_28.png","","","","calm"
"","","","","","html-slider-response","146","362576","0.0-142.0","vvpn2pqqtp","NaN","<div style=""width:500px;"">
                            <p style=""font-size:50px; font-weight:bold;""
                            >calm</p>
                            <div style=""width:240px; margin: auto;"">
                                <img src=""images/gray_35.png"" style= ""width:200px""alt=""img"">
                            </div>
                        </div>","-102","","0","images/gray_35.png","","","","calm"
"","","","","","html-slider-response","147","364113","0.0-143.0","vvpn2pqqtp","NaN","<div style=""width:500px;"">
                            <p style=""font-size:50px; font-weight:bold;""
                            >calm</p>
                            <div style=""width:240px; margin: auto;"">
                                <img src=""images/gray_30.png"" style= ""width:200px""alt=""img"">
                            </div>
                        </div>","-102","","0","images/gray_30.png","","","","calm"
"","","","","","html-slider-response","148","365600","0.0-144.0","vvpn2pqqtp","NaN","<div style=""width:500px;"">
                            <p style=""font-size:50px; font-weight:bold;""
                            >calm</p>
                            <div style=""width:240px; margin: auto;"">
                                <img src=""images/gray_16.png"" style= ""width:200px""alt=""img"">
                            </div>
                        </div>","-102","","0","images/gray_16.png","","","","calm"
"","","","","","html-slider-response","149","366848","0.0-145.0","vvpn2pqqtp","NaN","<div style=""width:500px;"">
                            <p style=""font-size:50px; font-weight:bold;""
                            >calm</p>
                            <div style=""width:240px; margin: auto;"">
                                <img src=""images/gray_39.png"" style= ""width:200px""alt=""img"">
                            </div>
                        </div>","-78","","0","images/gray_39.png","","","","calm"
"","","","","","html-slider-response","150","368242","0.0-146.0","vvpn2pqqtp","NaN","<div style=""width:500px;"">
                            <p style=""font-size:50px; font-weight:bold;""
                            >calm</p>
                            <div style=""width:240px; margin: auto;"">
                                <img src=""images/gray_10.png"" style= ""width:200px""alt=""img"">
                            </div>
                        </div>","66","","0","images/gray_10.png","","","","calm"
"","","","","","html-slider-response","151","370111","0.0-147.0","vvpn2pqqtp","NaN","<div style=""width:500px;"">
                            <p style=""font-size:50px; font-weight:bold;""
                            >calm</p>
                            <div style=""width:240px; margin: auto;"">
                                <img src=""images/gray_02.png"" style= ""width:200px""alt=""img"">
                            </div>
                        </div>","-132","","0","images/gray_02.png","","","","calm"
"","","","","","html-slider-response","152","371840","0.0-148.0","vvpn2pqqtp","NaN","<div style=""width:500px;"">
                            <p style=""font-size:50px; font-weight:bold;""
                            >calm</p>
                            <div style=""width:240px; margin: auto;"">
                                <img src=""images/gray_24.png"" style= ""width:200px""alt=""img"">
                            </div>
                        </div>","69","","0","images/gray_24.png","","","","calm"
"","","","","","html-slider-response","153","373331","0.0-149.0","vvpn2pqqtp","NaN","<div style=""width:500px;"">
                            <p style=""font-size:50px; font-weight:bold;""
                            >calm</p>
                            <div style=""width:240px; margin: auto;"">
                                <img src=""images/gray_20.png"" style= ""width:200px""alt=""img"">
                            </div>
                        </div>","100","","0","images/gray_20.png","","","","calm"
"","","","","","html-button-response","154","374904","0.0-150.0","vvpn2pqqtp","1070","<p>Great Job! You've finished block 3.<br></br> You have 5 block(s) left to go.<br></br></p>","0","","","","","","",""
"","","","","","html-button-response","155","375935","0.0-151.0","vvpn2pqqtp","1030","<p>In this block of trials, you will be asked to rate how much you associate each map with:</p > <p style = 'font-size:150%; font-weight: bold'>trustworthy</p><br></br>","0","","","","","","",""
"","","","","","html-slider-response","156","378803","0.0-152.0","vvpn2pqqtp","NaN","<div style=""width:500px;"">
                            <p style=""font-size:50px; font-weight:bold;""
                            >trustworthy</p>
                            <div style=""width:240px; margin: auto;"">
                                <img src=""images/gray_29.png"" style= ""width:200px""alt=""img"">
                            </div>
                        </div>","-137","","0","images/gray_29.png","","","","trustworthy"
"","","","","","html-slider-response","157","380250","0.0-153.0","vvpn2pqqtp","NaN","<div style=""width:500px;"">
                            <p style=""font-size:50px; font-weight:bold;""
                            >trustworthy</p>
                            <div style=""width:240px; margin: auto;"">
                                <img src=""images/gray_40.png"" style= ""width:200px""alt=""img"">
                            </div>
                        </div>","-162","","0","images/gray_40.png","","","","trustworthy"
"","","","","","html-slider-response","158","381737","0.0-154.0","vvpn2pqqtp","NaN","<div style=""width:500px;"">
                            <p style=""font-size:50px; font-weight:bold;""
                            >trustworthy</p>
                            <div style=""width:240px; margin: auto;"">
                                <img src=""images/gray_08.png"" style= ""width:200px""alt=""img"">
                            </div>
                        </div>","-163","","0","images/gray_08.png","","","","trustworthy"
"","","","","","html-slider-response","159","382796","0.0-155.0","vvpn2pqqtp","NaN","<div style=""width:500px;"">
                            <p style=""font-size:50px; font-weight:bold;""
                            >trustworthy</p>
                            <div style=""width:240px; margin: auto;"">
                                <img src=""images/gray_41.png"" style= ""width:200px""alt=""img"">
                            </div>
                        </div>","-162","","0","images/gray_41.png","","","","trustworthy"
"","","","","","html-slider-response","160","383952","0.0-156.0","vvpn2pqqtp","NaN","<div style=""width:500px;"">
                            <p style=""font-size:50px; font-weight:bold;""
                            >trustworthy</p>
                            <div style=""width:240px; margin: auto;"">
                                <img src=""images/gray_23.png"" style= ""width:200px""alt=""img"">
                            </div>
                        </div>","-160","","0","images/gray_23.png","","","","trustworthy"
"","","","","","html-slider-response","161","384944","0.0-157.0","vvpn2pqqtp","NaN","<div style=""width:500px;"">
                            <p style=""font-size:50px; font-weight:bold;""
                            >trustworthy</p>
                            <div style=""width:240px; margin: auto;"">
                                <img src=""images/gray_18.png"" style= ""width:200px""alt=""img"">
                            </div>
                        </div>","-161","","0","images/gray_18.png","","","","trustworthy"
"","","","","","html-slider-response","162","385903","0.0-158.0","vvpn2pqqtp","NaN","<div style=""width:500px;"">
                            <p style=""font-size:50px; font-weight:bold;""
                            >trustworthy</p>
                            <div style=""width:240px; margin: auto;"">
                                <img src=""images/gray_35.png"" style= ""width:200px""alt=""img"">
                            </div>
                        </div>","-161","","0","images/gray_35.png","","","","trustworthy"
"","","","","","html-slider-response","163","386886","0.0-159.0","vvpn2pqqtp","NaN","<div style=""width:500px;"">
                            <p style=""font-size:50px; font-weight:bold;""
                            >trustworthy</p>
                            <div style=""width:240px; margin: auto;"">
                                <img src=""images/gray_19.png"" style= ""width:200px""alt=""img"">
                            </div>
                        </div>","-161","","0","images/gray_19.png","","","","trustworthy"
"","","","","","html-slider-response","164","387825","0.0-160.0","vvpn2pqqtp","NaN","<div style=""width:500px;"">
                            <p style=""font-size:50px; font-weight:bold;""
                            >trustworthy</p>
                            <div style=""width:240px; margin: auto;"">
                                <img src=""images/gray_44.png"" style= ""width:200px""alt=""img"">
                            </div>
                        </div>","-161","","0","images/gray_44.png","","","","trustworthy"
"","","","","","html-slider-response","165","388766","0.0-161.0","vvpn2pqqtp","NaN","<div style=""width:500px;"">
                            <p style=""font-size:50px; font-weight:bold;""
                            >trustworthy</p>
                            <div style=""width:240px; margin: auto;"">
                                <img src=""images/gray_15.png"" style= ""width:200px""alt=""img"">
                            </div>
                        </div>","-161","","0","images/gray_15.png","","","","trustworthy"
"","","","","","html-slider-response","166","389829","0.0-162.0","vvpn2pqqtp","NaN","<div style=""width:500px;"">
                            <p style=""font-size:50px; font-weight:bold;""
                            >trustworthy</p>
                            <div style=""width:240px; margin: auto;"">
                                <img src=""images/gray_31.png"" style= ""width:200px""alt=""img"">
                            </div>
                        </div>","-161","","0","images/gray_31.png","","","","trustworthy"
"","","","","","html-slider-response","167","391151","0.0-163.0","vvpn2pqqtp","NaN","<div style=""width:500px;"">
                            <p style=""font-size:50px; font-weight:bold;""
                            >trustworthy</p>
                            <div style=""width:240px; margin: auto;"">
                                <img src=""images/gray_09.png"" style= ""width:200px""alt=""img"">
                            </div>
                        </div>","-161","","0","images/gray_09.png","","","","trustworthy"
"","","","","","html-slider-response","168","392561","0.0-164.0","vvpn2pqqtp","NaN","<div style=""width:500px;"">
                            <p style=""font-size:50px; font-weight:bold;""
                            >trustworthy</p>
                            <div style=""width:240px; margin: auto;"">
                                <img src=""images/gray_20.png"" style= ""width:200px""alt=""img"">
                            </div>
                        </div>","-166","","0","images/gray_20.png","","","","trustworthy"
"","","","","","html-slider-response","169","393838","0.0-165.0","vvpn2pqqtp","NaN","<div style=""width:500px;"">
                            <p style=""font-size:50px; font-weight:bold;""
                            >trustworthy</p>
                            <div style=""width:240px; margin: auto;"">
                                <img src=""images/gray_01.png"" style= ""width:200px""alt=""img"">
                            </div>
                        </div>","-169","","0","images/gray_01.png","","","","trustworthy"
"","","","","","html-slider-response","170","395225","0.0-166.0","vvpn2pqqtp","NaN","<div style=""width:500px;"">
                            <p style=""font-size:50px; font-weight:bold;""
                            >trustworthy</p>
                            <div style=""width:240px; margin: auto;"">
                                <img src=""images/gray_42.png"" style= ""width:200px""alt=""img"">
                            </div>
                        </div>","-170","","0","images/gray_42.png","","","","trustworthy"
"","","","","","html-slider-response","171","396548","0.0-167.0","vvpn2pqqtp","NaN","<div style=""width:500px;"">
                            <p style=""font-size:50px; font-weight:bold;""
                            >trustworthy</p>
                            <div style=""width:240px; margin: auto;"">
                                <img src=""images/gray_37.png"" style= ""width:200px""alt=""img"">
                            </div>
                        </div>","-179","","0","images/gray_37.png","","","","trustworthy"
"","","","","","html-slider-response","172","397700","0.0-168.0","vvpn2pqqtp","NaN","<div style=""width:500px;"">
                            <p style=""font-size:50px; font-weight:bold;""
                            >trustworthy</p>
                            <div style=""width:240px; margin: auto;"">
                                <img src=""images/gray_30.png"" style= ""width:200px""alt=""img"">
                            </div>
                        </div>","-174","","0","images/gray_30.png","","","","trustworthy"
"","","","","","html-slider-response","173","399058","0.0-169.0","vvpn2pqqtp","NaN","<div style=""width:500px;"">
                            <p style=""font-size:50px; font-weight:bold;""
                            >trustworthy</p>
                            <div style=""width:240px; margin: auto;"">
                                <img src=""images/gray_07.png"" style= ""width:200px""alt=""img"">
                            </div>
                        </div>","-180","","0","images/gray_07.png","","","","trustworthy"
"","","","","","html-slider-response","174","400119","0.0-170.0","vvpn2pqqtp","NaN","<div style=""width:500px;"">
                            <p style=""font-size:50px; font-weight:bold;""
                            >trustworthy</p>
                            <div style=""width:240px; margin: auto;"">
                                <img src=""images/gray_34.png"" style= ""width:200px""alt=""img"">
                            </div>
                        </div>","-180","","0","images/gray_34.png","","","","trustworthy"
"","","","","","html-slider-response","175","401414","0.0-171.0","vvpn2pqqtp","NaN","<div style=""width:500px;"">
                            <p style=""font-size:50px; font-weight:bold;""
                            >trustworthy</p>
                            <div style=""width:240px; margin: auto;"">
                                <img src=""images/gray_36.png"" style= ""width:200px""alt=""img"">
                            </div>
                        </div>","-180","","0","images/gray_36.png","","","","trustworthy"
"","","","","","html-slider-response","176","402503","0.0-172.0","vvpn2pqqtp","NaN","<div style=""width:500px;"">
                            <p style=""font-size:50px; font-weight:bold;""
                            >trustworthy</p>
                            <div style=""width:240px; margin: auto;"">
                                <img src=""images/gray_33.png"" style= ""width:200px""alt=""img"">
                            </div>
                        </div>","-181","","0","images/gray_33.png","","","","trustworthy"
"","","","","","html-slider-response","177","403594","0.0-173.0","vvpn2pqqtp","NaN","<div style=""width:500px;"">
                            <p style=""font-size:50px; font-weight:bold;""
                            >trustworthy</p>
                            <div style=""width:240px; margin: auto;"">
                                <img src=""images/gray_12.png"" style= ""width:200px""alt=""img"">
                            </div>
                        </div>","-182","","0","images/gray_12.png","","","","trustworthy"
"","","","","","html-slider-response","178","404636","0.0-174.0","vvpn2pqqtp","NaN","<div style=""width:500px;"">
                            <p style=""font-size:50px; font-weight:bold;""
                            >trustworthy</p>
                            <div style=""width:240px; margin: auto;"">
                                <img src=""images/gray_27.png"" style= ""width:200px""alt=""img"">
                            </div>
                        </div>","-182","","0","images/gray_27.png","","","","trustworthy"
"","","","","","html-slider-response","179","405642","0.0-175.0","vvpn2pqqtp","NaN","<div style=""width:500px;"">
                            <p style=""font-size:50px; font-weight:bold;""
                            >trustworthy</p>
                            <div style=""width:240px; margin: auto;"">
                                <img src=""images/gray_04.png"" style= ""width:200px""alt=""img"">
                            </div>
                        </div>","-182","","0","images/gray_04.png","","","","trustworthy"
"","","","","","html-slider-response","180","406648","0.0-176.0","vvpn2pqqtp","NaN","<div style=""width:500px;"">
                            <p style=""font-size:50px; font-weight:bold;""
                            >trustworthy</p>
                            <div style=""width:240px; margin: auto;"">
                                <img src=""images/gray_17.png"" style= ""width:200px""alt=""img"">
                            </div>
                        </div>","-180","","0","images/gray_17.png","","","","trustworthy"
"","","","","","html-slider-response","181","407641","0.0-177.0","vvpn2pqqtp","NaN","<div style=""width:500px;"">
                            <p style=""font-size:50px; font-weight:bold;""
                            >trustworthy</p>
                            <div style=""width:240px; margin: auto;"">
                                <img src=""images/gray_24.png"" style= ""width:200px""alt=""img"">
                            </div>
                        </div>","-180","","0","images/gray_24.png","","","","trustworthy"
"","","","","","html-slider-response","182","408618","0.0-178.0","vvpn2pqqtp","NaN","<div style=""width:500px;"">
                            <p style=""font-size:50px; font-weight:bold;""
                            >trustworthy</p>
                            <div style=""width:240px; margin: auto;"">
                                <img src=""images/gray_43.png"" style= ""width:200px""alt=""img"">
                            </div>
                        </div>","-180","","0","images/gray_43.png","","","","trustworthy"
"","","","","","html-slider-response","183","409559","0.0-179.0","vvpn2pqqtp","NaN","<div style=""width:500px;"">
                            <p style=""font-size:50px; font-weight:bold;""
                            >trustworthy</p>
                            <div style=""width:240px; margin: auto;"">
                                <img src=""images/gray_05.png"" style= ""width:200px""alt=""img"">
                            </div>
                        </div>","-180","","0","images/gray_05.png","","","","trustworthy"
"","","","","","html-slider-response","184","410567","0.0-180.0","vvpn2pqqtp","NaN","<div style=""width:500px;"">
                            <p style=""font-size:50px; font-weight:bold;""
                            >trustworthy</p>
                            <div style=""width:240px; margin: auto;"">
                                <img src=""images/gray_22.png"" style= ""width:200px""alt=""img"">
                            </div>
                        </div>","-180","","0","images/gray_22.png","","","","trustworthy"
"","","","","","html-slider-response","185","411388","0.0-181.0","vvpn2pqqtp","NaN","<div style=""width:500px;"">
                            <p style=""font-size:50px; font-weight:bold;""
                            >trustworthy</p>
                            <div style=""width:240px; margin: auto;"">
                                <img src=""images/gray_03.png"" style= ""width:200px""alt=""img"">
                            </div>
                        </div>","-180","","0","images/gray_03.png","","","","trustworthy"
"","","","","","html-slider-response","186","412092","0.0-182.0","vvpn2pqqtp","NaN","<div style=""width:500px;"">
                            <p style=""font-size:50px; font-weight:bold;""
                            >trustworthy</p>
                            <div style=""width:240px; margin: auto;"">
                                <img src=""images/gray_11.png"" style= ""width:200px""alt=""img"">
                            </div>
                        </div>","-180","","0","images/gray_11.png","","","","trustworthy"
"","","","","","html-slider-response","187","412961","0.0-183.0","vvpn2pqqtp","NaN","<div style=""width:500px;"">
                            <p style=""font-size:50px; font-weight:bold;""
                            >trustworthy</p>
                            <div style=""width:240px; margin: auto;"">
                                <img src=""images/gray_39.png"" style= ""width:200px""alt=""img"">
                            </div>
                        </div>","-180","","0","images/gray_39.png","","","","trustworthy"
"","","","","","html-slider-response","188","413878","0.0-184.0","vvpn2pqqtp","NaN","<div style=""width:500px;"">
                            <p style=""font-size:50px; font-weight:bold;""
                            >trustworthy</p>
                            <div style=""width:240px; margin: auto;"">
                                <img src=""images/gray_16.png"" style= ""width:200px""alt=""img"">
                            </div>
                        </div>","-180","","0","images/gray_16.png","","","","trustworthy"
"","","","","","html-slider-response","189","414834","0.0-185.0","vvpn2pqqtp","NaN","<div style=""width:500px;"">
                            <p style=""font-size:50px; font-weight:bold;""
                            >trustworthy</p>
                            <div style=""width:240px; margin: auto;"">
                                <img src=""images/gray_28.png"" style= ""width:200px""alt=""img"">
                            </div>
                        </div>","-180","","0","images/gray_28.png","","","","trustworthy"
"","","","","","html-slider-response","190","415594","0.0-186.0","vvpn2pqqtp","NaN","<div style=""width:500px;"">
                            <p style=""font-size:50px; font-weight:bold;""
                            >trustworthy</p>
                            <div style=""width:240px; margin: auto;"">
                                <img src=""images/gray_06.png"" style= ""width:200px""alt=""img"">
                            </div>
                        </div>","-180","","0","images/gray_06.png","","","","trustworthy"
"","","","","","html-slider-response","191","416198","0.0-187.0","vvpn2pqqtp","NaN","<div style=""width:500px;"">
                            <p style=""font-size:50px; font-weight:bold;""
                            >trustworthy</p>
                            <div style=""width:240px; margin: auto;"">
                                <img src=""images/gray_13.png"" style= ""width:200px""alt=""img"">
                            </div>
                        </div>","-180","","0","images/gray_13.png","","","","trustworthy"
"","","","","","html-slider-response","192","416908","0.0-188.0","vvpn2pqqtp","NaN","<div style=""width:500px;"">
                            <p style=""font-size:50px; font-weight:bold;""
                            >trustworthy</p>
                            <div style=""width:240px; margin: auto;"">
                                <img src=""images/gray_10.png"" style= ""width:200px""alt=""img"">
                            </div>
                        </div>","-180","","0","images/gray_10.png","","","","trustworthy"
"","","","","","html-slider-response","193","417649","0.0-189.0","vvpn2pqqtp","NaN","<div style=""width:500px;"">
                            <p style=""font-size:50px; font-weight:bold;""
                            >trustworthy</p>
                            <div style=""width:240px; margin: auto;"">
                                <img src=""images/gray_14.png"" style= ""width:200px""alt=""img"">
                            </div>
                        </div>","-180","","0","images/gray_14.png","","","","trustworthy"
"","","","","","html-slider-response","194","418252","0.0-190.0","vvpn2pqqtp","NaN","<div style=""width:500px;"">
                            <p style=""font-size:50px; font-weight:bold;""
                            >trustworthy</p>
                            <div style=""width:240px; margin: auto;"">
                                <img src=""images/gray_02.png"" style= ""width:200px""alt=""img"">
                            </div>
                        </div>","-181","","0","images/gray_02.png","","","","trustworthy"
"","","","","","html-slider-response","195","418896","0.0-191.0","vvpn2pqqtp","NaN","<div style=""width:500px;"">
                            <p style=""font-size:50px; font-weight:bold;""
                            >trustworthy</p>
                            <div style=""width:240px; margin: auto;"">
                                <img src=""images/gray_32.png"" style= ""width:200px""alt=""img"">
                            </div>
                        </div>","-181","","0","images/gray_32.png","","","","trustworthy"
"","","","","","html-slider-response","196","420090","0.0-192.0","vvpn2pqqtp","NaN","<div style=""width:500px;"">
                            <p style=""font-size:50px; font-weight:bold;""
                            >trustworthy</p>
                            <div style=""width:240px; margin: auto;"">
                                <img src=""images/gray_26.png"" style= ""width:200px""alt=""img"">
                            </div>
                        </div>","-181","","0","images/gray_26.png","","","","trustworthy"
"","","","","","html-slider-response","197","420897","0.0-193.0","vvpn2pqqtp","NaN","<div style=""width:500px;"">
                            <p style=""font-size:50px; font-weight:bold;""
                            >trustworthy</p>
                            <div style=""width:240px; margin: auto;"">
                                <img src=""images/gray_25.png"" style= ""width:200px""alt=""img"">
                            </div>
                        </div>","-181","","0","images/gray_25.png","","","","trustworthy"
"","","","","","html-slider-response","198","421763","0.0-194.0","vvpn2pqqtp","NaN","<div style=""width:500px;"">
                            <p style=""font-size:50px; font-weight:bold;""
                            >trustworthy</p>
                            <div style=""width:240px; margin: auto;"">
                                <img src=""images/gray_38.png"" style= ""width:200px""alt=""img"">
                            </div>
                        </div>","-181","","0","images/gray_38.png","","","","trustworthy"
"","","","","","html-slider-response","199","422704","0.0-195.0","vvpn2pqqtp","NaN","<div style=""width:500px;"">
