"success","timeout","failed_images","failed_audio","failed_video","trial_type","trial_index","time_elapsed","internal_node_id","subject_id","rt","stimulus","response","question_order","slider_start","image_path","practiceTrial","practiceTrialNum","correct","concept"
"true","false","[]","[]","[]","preload","0","896","0.0-0.0","wl6qgj0927","","","","","","","","","",""
"","","","","","html-button-response","1","5915","0.0-1.0","wl6qgj0927","5018","Welcome to our experiment!<p>At the bottom of this screen, you will see a button that says ""Begin Experiment"".<br>Please only click that button when you are ready to complete the 25 minute experiment in one sitting.</p><p> Once you click that button, it will not be possible to restart the experiment.","0","","","","","","",""
"true","","","","","fullscreen","2","8243","0.0-2.0","wl6qgj0927","1324","","","","","","","","",""
"","","","","","survey-multi-select","3","54796","0.0-3.0","wl6qgj0927","46548","","{""Consent"":[""<strong>I consent</strong>""]}","[0]","","","","","",""
"","","","","","html-button-response","4","56934","0.0-4.0","wl6qgj0927","2136","Welcome! <p> This experiment involves two parts: demographic information, followed by the experimental task.<p> It will take about 25 minutes to complete both parts.","0","","","","","","",""
"","","","","","survey-text","5","71065","0.0-5.0","wl6qgj0927","14121","","{""Age"":""18"",""Gender"":""female"",""Race/ethnicity"":""white"",""Languages"":""english""}","","","","","","",""
"","","","","","html-slider-response","6","182656","0.0-6.0","wl6qgj0927","111589","
            <div style='text-align:left; font-size:20px; line-height:25px; width: 1200px;'>
                During this experiment you will be asked to rate how much you associate maps with    different concepts.<br> Below, you can see some examples of the maps you will be asked to rate. Next to the maps
    is the list of concepts.<br>You will be asked    to rate how much you associate each map with each concept on a scale from 'not at all' to 'very much' like the
    one below. <br><br>
    Now, please look at the list of concepts and maps. For each concept, think about the map you associate 'very
    much' with the concept.<br>     When you see that map during the experiment, please rate it near the 'very much' endpoint of the
    scale.<br>Now, please think about which map you associate 'not at all'     with each concept. When you see that map during the experiment, please rate it near the 'not at all' endpoint
    of the scale.<br>
    Please use the full range of the scale. That is, if a map is somewhat associated with the concept, you would
    click partway between the middle point and right side of the scale.    You will be asked to rate each map for a given concept before moving on to the next concept.<br><br>Press the
    'Continue' button for instructions on how to use the slider.    <br><br>
</div>

<div style=""width: 500px; margin: 0 auto;"">
    <div style=""text-align: left; width: 200px; float: left;"">
        <p style=""font-size:25px; line-height:18px;"">calm</p>
        <p style=""font-size:25px; line-height:18px;"">exciting</p>
        <p style=""font-size:25px;line-height:18px;"">positive</p>
        <p style=""font-size:25px;line-height:18px;"">negative</p>
        <p style=""font-size:25px;line-height:18px;"">serious</p>
        <p style=""font-size:25px;line-height:18px;"">playful</p>
        <p style=""font-size:25px;line-height:18px;"">trustworthy</p>
        <p style=""font-size:25px;line-height:18px;"">disturbing</p>
    </div>
    <div style=""width: 200px; float: right; padding-top:15px; padding-right:40px"">
        <br>
        <br>
        <img src=""maps_anchoring.png"" alt=""img"" style=""max-width:500px"">
    </div>
    <div style=""clear: both;""></div>
</div>
            ","null","","0","maps_anchoring.png","true","","",""
"","","","","","html-button-response","7","185387","0.0-7.0","wl6qgj0927","2728","<div style=""width:800px;""><p style=""text-align:left"">To move the slider, click and drag your cursor to the location of the scale where you would like to make your rating and then let go. When you let go of the slider, your response will be recorded and the next trial will begin. <br>
            We are interested in your initial impressions of each map for the given concept, so please go with your first intuition. <br>
            Before you begin the experiment, there will be four training trials for you to practice using the scale. <br>
             When you are ready to start the training trials, please click ""Continue"".</p><br></div>","0","","","","","","",""
"","","","","","html-slider-response","8","188379","0.0-8.0-0.0","wl6qgj0927","NaN","<div style=""width:500px;"">
                            <p style=""font-size:25px;"">Please move the slider all the way to the <br> right endpoint of the scale</p>

                            </div>
                        </div>","200","","0","","true","0","true",""
"","","","","","html-button-response","9","190246","0.0-8.0-1.0","wl6qgj0927","1365","<p align='center'><b>Good job!</b> Click on 'Continue' to proceed.</p>","0","","","","","","",""
"","","","","","html-slider-response","10","192660","0.0-9.0-0.0","wl6qgj0927","NaN","<div style=""width:500px;"">
                            <p style=""font-size:25px;"">Please move the slider all the way to the <br> left endpoint of the scale</p>

                            </div>
                        </div>","-200","","0","","true","1","true",""
"","","","","","html-button-response","11","194274","0.0-9.0-1.0","wl6qgj0927","1112","<p align='center'><b>Good job!</b> Click on 'Continue' to proceed.</p>","0","","","","","","",""
"","","","","","html-slider-response","12","199710","0.0-10.0-0.0","wl6qgj0927","NaN","<div style=""width:500px;"">
                            <p style=""font-size:25px;"">Please move the slider halfway between the center and right endpoint of the scale</p>

                            </div>
                        </div>","102","","0","","true","2","true",""
"","","","","","html-button-response","13","201173","0.0-10.0-1.0","wl6qgj0927","949","<p align='center'><b>Good job!</b> Click on 'Continue' to proceed.</p>","0","","","","","","",""
"","","","","","html-slider-response","14","204182","0.0-11.0-0.0","wl6qgj0927","NaN","<div style=""width:500px;"">
                            <p style=""font-size:25px;"">Please move the slider halfway between the center and left endpoint of the scale</p>

                            </div>
                        </div>","-108","","0","","true","3","true",""
"","","","","","html-button-response","15","205485","0.0-11.0-1.0","wl6qgj0927","785","<p align='center'><b>Good job!</b> Click on 'Continue' to proceed.</p>","0","","","","","","",""
"","","","","","html-button-response","16","206802","0.0-12.0","wl6qgj0927","1313","<p>Great job! You've completed the practice trials. Now you will begin the main task.</p>","0","","","","","","",""
"","","","","","html-button-response","17","208977","0.0-13.0","wl6qgj0927","2173","<p>In this block of trials, you will be asked to rate how much you associate each map with:</p > <p style = 'font-size:150%; font-weight: bold'>disturbing</p><br></br>","0","","","","","","",""
"","","","","","html-slider-response","18","212265","0.0-14.0","wl6qgj0927","NaN","<div style=""width:500px;"">
                            <p style=""font-size:50px; font-weight:bold;""
                            >disturbing</p>
                            <div style=""width:240px; margin: auto;"">
                                <img src=""images/gray_19.png"" style= ""width:200px""alt=""img"">
                            </div>
                        </div>","-99","","0","images/gray_19.png","","","","disturbing"
"","","","","","html-slider-response","19","215350","0.0-15.0","wl6qgj0927","NaN","<div style=""width:500px;"">
                            <p style=""font-size:50px; font-weight:bold;""
                            >disturbing</p>
                            <div style=""width:240px; margin: auto;"">
                                <img src=""images/gray_03.png"" style= ""width:200px""alt=""img"">
                            </div>
                        </div>","16","","0","images/gray_03.png","","","","disturbing"
"","","","","","html-slider-response","20","217944","0.0-16.0","wl6qgj0927","NaN","<div style=""width:500px;"">
                            <p style=""font-size:50px; font-weight:bold;""
                            >disturbing</p>
                            <div style=""width:240px; margin: auto;"">
                                <img src=""images/gray_11.png"" style= ""width:200px""alt=""img"">
                            </div>
                        </div>","119","","0","images/gray_11.png","","","","disturbing"
"","","","","","html-slider-response","21","220088","0.0-17.0","wl6qgj0927","NaN","<div style=""width:500px;"">
                            <p style=""font-size:50px; font-weight:bold;""
                            >disturbing</p>
                            <div style=""width:240px; margin: auto;"">
                                <img src=""images/gray_01.png"" style= ""width:200px""alt=""img"">
                            </div>
                        </div>","8","","0","images/gray_01.png","","","","disturbing"
"","","","","","html-slider-response","22","222178","0.0-18.0","wl6qgj0927","NaN","<div style=""width:500px;"">
                            <p style=""font-size:50px; font-weight:bold;""
                            >disturbing</p>
                            <div style=""width:240px; margin: auto;"">
                                <img src=""images/gray_25.png"" style= ""width:200px""alt=""img"">
                            </div>
                        </div>","-30","","0","images/gray_25.png","","","","disturbing"
"","","","","","html-slider-response","23","228919","0.0-19.0","wl6qgj0927","NaN","<div style=""width:500px;"">
                            <p style=""font-size:50px; font-weight:bold;""
                            >disturbing</p>
                            <div style=""width:240px; margin: auto;"">
                                <img src=""images/gray_31.png"" style= ""width:200px""alt=""img"">
                            </div>
                        </div>","-168","","0","images/gray_31.png","","","","disturbing"
"","","","","","html-slider-response","24","230919","0.0-20.0","wl6qgj0927","NaN","<div style=""width:500px;"">
                            <p style=""font-size:50px; font-weight:bold;""
                            >disturbing</p>
                            <div style=""width:240px; margin: auto;"">
                                <img src=""images/gray_04.png"" style= ""width:200px""alt=""img"">
                            </div>
                        </div>","22","","0","images/gray_04.png","","","","disturbing"
"","","","","","html-slider-response","25","233047","0.0-21.0","wl6qgj0927","NaN","<div style=""width:500px;"">
                            <p style=""font-size:50px; font-weight:bold;""
                            >disturbing</p>
                            <div style=""width:240px; margin: auto;"">
                                <img src=""images/gray_18.png"" style= ""width:200px""alt=""img"">
                            </div>
                        </div>","106","","0","images/gray_18.png","","","","disturbing"
"","","","","","html-slider-response","26","235100","0.0-22.0","wl6qgj0927","NaN","<div style=""width:500px;"">
                            <p style=""font-size:50px; font-weight:bold;""
                            >disturbing</p>
                            <div style=""width:240px; margin: auto;"">
                                <img src=""images/gray_37.png"" style= ""width:200px""alt=""img"">
                            </div>
                        </div>","22","","0","images/gray_37.png","","","","disturbing"
"","","","","","html-slider-response","27","237021","0.0-23.0","wl6qgj0927","NaN","<div style=""width:500px;"">
                            <p style=""font-size:50px; font-weight:bold;""
                            >disturbing</p>
                            <div style=""width:240px; margin: auto;"">
                                <img src=""images/gray_08.png"" style= ""width:200px""alt=""img"">
                            </div>
                        </div>","16","","0","images/gray_08.png","","","","disturbing"
"","","","","","html-slider-response","28","238605","0.0-24.0","wl6qgj0927","NaN","<div style=""width:500px;"">
                            <p style=""font-size:50px; font-weight:bold;""
                            >disturbing</p>
                            <div style=""width:240px; margin: auto;"">
                                <img src=""images/gray_14.png"" style= ""width:200px""alt=""img"">
                            </div>
                        </div>","128","","0","images/gray_14.png","","","","disturbing"
"","","","","","html-slider-response","29","240816","0.0-25.0","wl6qgj0927","NaN","<div style=""width:500px;"">
                            <p style=""font-size:50px; font-weight:bold;""
                            >disturbing</p>
                            <div style=""width:240px; margin: auto;"">
                                <img src=""images/gray_28.png"" style= ""width:200px""alt=""img"">
                            </div>
                        </div>","200","","0","images/gray_28.png","","","","disturbing"
"","","","","","html-slider-response","30","242992","0.0-26.0","wl6qgj0927","NaN","<div style=""width:500px;"">
                            <p style=""font-size:50px; font-weight:bold;""
                            >disturbing</p>
                            <div style=""width:240px; margin: auto;"">
                                <img src=""images/gray_33.png"" style= ""width:200px""alt=""img"">
                            </div>
                        </div>","200","","0","images/gray_33.png","","","","disturbing"
"","","","","","html-slider-response","31","244973","0.0-27.0","wl6qgj0927","NaN","<div style=""width:500px;"">
                            <p style=""font-size:50px; font-weight:bold;""
                            >disturbing</p>
                            <div style=""width:240px; margin: auto;"">
                                <img src=""images/gray_22.png"" style= ""width:200px""alt=""img"">
                            </div>
                        </div>","-24","","0","images/gray_22.png","","","","disturbing"
"","","","","","html-slider-response","32","246998","0.0-28.0","wl6qgj0927","NaN","<div style=""width:500px;"">
                            <p style=""font-size:50px; font-weight:bold;""
                            >disturbing</p>
                            <div style=""width:240px; margin: auto;"">
                                <img src=""images/gray_35.png"" style= ""width:200px""alt=""img"">
                            </div>
                        </div>","-24","","0","images/gray_35.png","","","","disturbing"
"","","","","","html-slider-response","33","249148","0.0-29.0","wl6qgj0927","NaN","<div style=""width:500px;"">
                            <p style=""font-size:50px; font-weight:bold;""
                            >disturbing</p>
                            <div style=""width:240px; margin: auto;"">
                                <img src=""images/gray_26.png"" style= ""width:200px""alt=""img"">
                            </div>
                        </div>","-22","","0","images/gray_26.png","","","","disturbing"
"","","","","","html-slider-response","34","250958","0.0-30.0","wl6qgj0927","NaN","<div style=""width:500px;"">
                            <p style=""font-size:50px; font-weight:bold;""
                            >disturbing</p>
                            <div style=""width:240px; margin: auto;"">
                                <img src=""images/gray_24.png"" style= ""width:200px""alt=""img"">
                            </div>
                        </div>","-31","","0","images/gray_24.png","","","","disturbing"
"","","","","","html-slider-response","35","252977","0.0-31.0","wl6qgj0927","NaN","<div style=""width:500px;"">
                            <p style=""font-size:50px; font-weight:bold;""
                            >disturbing</p>
                            <div style=""width:240px; margin: auto;"">
                                <img src=""images/gray_38.png"" style= ""width:200px""alt=""img"">
                            </div>
                        </div>","-51","","0","images/gray_38.png","","","","disturbing"
"","","","","","html-slider-response","36","258448","0.0-32.0","wl6qgj0927","NaN","<div style=""width:500px;"">
                            <p style=""font-size:50px; font-weight:bold;""
                            >disturbing</p>
                            <div style=""width:240px; margin: auto;"">
                                <img src=""images/gray_17.png"" style= ""width:200px""alt=""img"">
                            </div>
                        </div>","24","","0","images/gray_17.png","","","","disturbing"
"","","","","","html-slider-response","37","260138","0.0-33.0","wl6qgj0927","NaN","<div style=""width:500px;"">
                            <p style=""font-size:50px; font-weight:bold;""
                            >disturbing</p>
                            <div style=""width:240px; margin: auto;"">
                                <img src=""images/gray_34.png"" style= ""width:200px""alt=""img"">
                            </div>
                        </div>","26","","0","images/gray_34.png","","","","disturbing"
"","","","","","html-slider-response","38","262059","0.0-34.0","wl6qgj0927","NaN","<div style=""width:500px;"">
                            <p style=""font-size:50px; font-weight:bold;""
                            >disturbing</p>
                            <div style=""width:240px; margin: auto;"">
                                <img src=""images/gray_13.png"" style= ""width:200px""alt=""img"">
                            </div>
                        </div>","200","","0","images/gray_13.png","","","","disturbing"
"","","","","","html-slider-response","39","264430","0.0-35.0","wl6qgj0927","NaN","<div style=""width:500px;"">
                            <p style=""font-size:50px; font-weight:bold;""
                            >disturbing</p>
                            <div style=""width:240px; margin: auto;"">
                                <img src=""images/gray_36.png"" style= ""width:200px""alt=""img"">
                            </div>
                        </div>","200","","0","images/gray_36.png","","","","disturbing"
"","","","","","html-slider-response","40","266719","0.0-36.0","wl6qgj0927","NaN","<div style=""width:500px;"">
                            <p style=""font-size:50px; font-weight:bold;""
                            >disturbing</p>
                            <div style=""width:240px; margin: auto;"">
                                <img src=""images/gray_16.png"" style= ""width:200px""alt=""img"">
                            </div>
                        </div>","30","","0","images/gray_16.png","","","","disturbing"
"","","","","","html-slider-response","41","268664","0.0-37.0","wl6qgj0927","NaN","<div style=""width:500px;"">
                            <p style=""font-size:50px; font-weight:bold;""
                            >disturbing</p>
                            <div style=""width:240px; margin: auto;"">
                                <img src=""images/gray_27.png"" style= ""width:200px""alt=""img"">
                            </div>
                        </div>","200","","0","images/gray_27.png","","","","disturbing"
"","","","","","html-slider-response","42","271235","0.0-38.0","wl6qgj0927","NaN","<div style=""width:500px;"">
                            <p style=""font-size:50px; font-weight:bold;""
                            >disturbing</p>
                            <div style=""width:240px; margin: auto;"">
                                <img src=""images/gray_05.png"" style= ""width:200px""alt=""img"">
                            </div>
                        </div>","91","","0","images/gray_05.png","","","","disturbing"
"","","","","","html-slider-response","43","273300","0.0-39.0","wl6qgj0927","NaN","<div style=""width:500px;"">
                            <p style=""font-size:50px; font-weight:bold;""
                            >disturbing</p>
                            <div style=""width:240px; margin: auto;"">
                                <img src=""images/gray_44.png"" style= ""width:200px""alt=""img"">
                            </div>
                        </div>","142","","0","images/gray_44.png","","","","disturbing"
"","","","","","html-slider-response","44","275178","0.0-40.0","wl6qgj0927","NaN","<div style=""width:500px;"">
                            <p style=""font-size:50px; font-weight:bold;""
                            >disturbing</p>
                            <div style=""width:240px; margin: auto;"">
                                <img src=""images/gray_42.png"" style= ""width:200px""alt=""img"">
                            </div>
                        </div>","-59","","0","images/gray_42.png","","","","disturbing"
"","","","","","html-slider-response","45","278770","0.0-41.0","wl6qgj0927","NaN","<div style=""width:500px;"">
                            <p style=""font-size:50px; font-weight:bold;""
                            >disturbing</p>
                            <div style=""width:240px; margin: auto;"">
                                <img src=""images/gray_29.png"" style= ""width:200px""alt=""img"">
                            </div>
                        </div>","99","","0","images/gray_29.png","","","","disturbing"
"","","","","","html-slider-response","46","280467","0.0-42.0","wl6qgj0927","NaN","<div style=""width:500px;"">
                            <p style=""font-size:50px; font-weight:bold;""
                            >disturbing</p>
                            <div style=""width:240px; margin: auto;"">
                                <img src=""images/gray_23.png"" style= ""width:200px""alt=""img"">
                            </div>
                        </div>","99","","0","images/gray_23.png","","","","disturbing"
"","","","","","html-slider-response","47","282111","0.0-43.0","wl6qgj0927","NaN","<div style=""width:500px;"">
                            <p style=""font-size:50px; font-weight:bold;""
                            >disturbing</p>
                            <div style=""width:240px; margin: auto;"">
                                <img src=""images/gray_06.png"" style= ""width:200px""alt=""img"">
                            </div>
                        </div>","72","","0","images/gray_06.png","","","","disturbing"
"","","","","","html-slider-response","48","283877","0.0-44.0","wl6qgj0927","NaN","<div style=""width:500px;"">
                            <p style=""font-size:50px; font-weight:bold;""
                            >disturbing</p>
                            <div style=""width:240px; margin: auto;"">
                                <img src=""images/gray_30.png"" style= ""width:200px""alt=""img"">
                            </div>
                        </div>","200","","0","images/gray_30.png","","","","disturbing"
"","","","","","html-slider-response","49","285698","0.0-45.0","wl6qgj0927","NaN","<div style=""width:500px;"">
                            <p style=""font-size:50px; font-weight:bold;""
                            >disturbing</p>
                            <div style=""width:240px; margin: auto;"">
                                <img src=""images/gray_32.png"" style= ""width:200px""alt=""img"">
                            </div>
                        </div>","200","","0","images/gray_32.png","","","","disturbing"
"","","","","","html-slider-response","50","287546","0.0-46.0","wl6qgj0927","NaN","<div style=""width:500px;"">
                            <p style=""font-size:50px; font-weight:bold;""
                            >disturbing</p>
                            <div style=""width:240px; margin: auto;"">
                                <img src=""images/gray_15.png"" style= ""width:200px""alt=""img"">
                            </div>
                        </div>","-29","","0","images/gray_15.png","","","","disturbing"
"","","","","","html-slider-response","51","294964","0.0-47.0","wl6qgj0927","NaN","<div style=""width:500px;"">
                            <p style=""font-size:50px; font-weight:bold;""
                            >disturbing</p>
                            <div style=""width:240px; margin: auto;"">
                                <img src=""images/gray_43.png"" style= ""width:200px""alt=""img"">
                            </div>
                        </div>","-36","","0","images/gray_43.png","","","","disturbing"
"","","","","","html-slider-response","52","297184","0.0-48.0","wl6qgj0927","NaN","<div style=""width:500px;"">
                            <p style=""font-size:50px; font-weight:bold;""
                            >disturbing</p>
                            <div style=""width:240px; margin: auto;"">
                                <img src=""images/gray_12.png"" style= ""width:200px""alt=""img"">
                            </div>
                        </div>","-4","","0","images/gray_12.png","","","","disturbing"
"","","","","","html-slider-response","53","300923","0.0-49.0","wl6qgj0927","NaN","<div style=""width:500px;"">
                            <p style=""font-size:50px; font-weight:bold;""
                            >disturbing</p>
                            <div style=""width:240px; margin: auto;"">
                                <img src=""images/gray_09.png"" style= ""width:200px""alt=""img"">
                            </div>
                        </div>","-54","","0","images/gray_09.png","","","","disturbing"
"","","","","","html-slider-response","54","303899","0.0-50.0","wl6qgj0927","NaN","<div style=""width:500px;"">
                            <p style=""font-size:50px; font-weight:bold;""
                            >disturbing</p>
                            <div style=""width:240px; margin: auto;"">
                                <img src=""images/gray_21.png"" style= ""width:200px""alt=""img"">
                            </div>
                        </div>","38","","0","images/gray_21.png","","","","disturbing"
"","","","","","html-slider-response","55","306076","0.0-51.0","wl6qgj0927","NaN","<div style=""width:500px;"">
                            <p style=""font-size:50px; font-weight:bold;""
                            >disturbing</p>
                            <div style=""width:240px; margin: auto;"">
                                <img src=""images/gray_10.png"" style= ""width:200px""alt=""img"">
                            </div>
                        </div>","90","","0","images/gray_10.png","","","","disturbing"
"","","","","","html-slider-response","56","308072","0.0-52.0","wl6qgj0927","NaN","<div style=""width:500px;"">
                            <p style=""font-size:50px; font-weight:bold;""
                            >disturbing</p>
                            <div style=""width:240px; margin: auto;"">
                                <img src=""images/gray_39.png"" style= ""width:200px""alt=""img"">
                            </div>
                        </div>","-31","","0","images/gray_39.png","","","","disturbing"
"","","","","","html-slider-response","57","310110","0.0-53.0","wl6qgj0927","NaN","<div style=""width:500px;"">
                            <p style=""font-size:50px; font-weight:bold;""
                            >disturbing</p>
                            <div style=""width:240px; margin: auto;"">
                                <img src=""images/gray_02.png"" style= ""width:200px""alt=""img"">
                            </div>
                        </div>","38","","0","images/gray_02.png","","","","disturbing"
"","","","","","html-slider-response","58","312153","0.0-54.0","wl6qgj0927","NaN","<div style=""width:500px;"">
                            <p style=""font-size:50px; font-weight:bold;""
                            >disturbing</p>
                            <div style=""width:240px; margin: auto;"">
                                <img src=""images/gray_07.png"" style= ""width:200px""alt=""img"">
                            </div>
                        </div>","200","","0","images/gray_07.png","","","","disturbing"
"","","","","","html-slider-response","59","317113","0.0-55.0","wl6qgj0927","NaN","<div style=""width:500px;"">
                            <p style=""font-size:50px; font-weight:bold;""
                            >disturbing</p>
                            <div style=""width:240px; margin: auto;"">
                                <img src=""images/gray_41.png"" style= ""width:200px""alt=""img"">
                            </div>
                        </div>","156","","0","images/gray_41.png","","","","disturbing"
"","","","","","html-slider-response","60","319423","0.0-56.0","wl6qgj0927","NaN","<div style=""width:500px;"">
                            <p style=""font-size:50px; font-weight:bold;""
                            >disturbing</p>
                            <div style=""width:240px; margin: auto;"">
                                <img src=""images/gray_20.png"" style= ""width:200px""alt=""img"">
                            </div>
                        </div>","75","","0","images/gray_20.png","","","","disturbing"
"","","","","","html-slider-response","61","320860","0.0-57.0","wl6qgj0927","NaN","<div style=""width:500px;"">
                            <p style=""font-size:50px; font-weight:bold;""
                            >disturbing</p>
                            <div style=""width:240px; margin: auto;"">
                                <img src=""images/gray_40.png"" style= ""width:200px""alt=""img"">
                            </div>
                        </div>","78","","0","images/gray_40.png","","","","disturbing"
"","","","","","html-button-response","62","331247","0.0-58.0","wl6qgj0927","9870","<p>Great Job! You've finished block 1.<br></br> You have 7 block(s) left to go.<br></br></p>","0","","","","","","",""
"","","","","","html-button-response","63","332609","0.0-59.0","wl6qgj0927","1359","<p>In this block of trials, you will be asked to rate how much you associate each map with:</p > <p style = 'font-size:150%; font-weight: bold'>serious</p><br></br>","0","","","","","","",""
"","","","","","html-slider-response","64","335040","0.0-60.0","wl6qgj0927","NaN","<div style=""width:500px;"">
                            <p style=""font-size:50px; font-weight:bold;""
                            >serious</p>
                            <div style=""width:240px; margin: auto;"">
                                <img src=""images/gray_43.png"" style= ""width:200px""alt=""img"">
                            </div>
                        </div>","-113","","0","images/gray_43.png","","","","serious"
"","","","","","html-slider-response","65","337075","0.0-61.0","wl6qgj0927","NaN","<div style=""width:500px;"">
                            <p style=""font-size:50px; font-weight:bold;""
                            >serious</p>
                            <div style=""width:240px; margin: auto;"">
                                <img src=""images/gray_12.png"" style= ""width:200px""alt=""img"">
                            </div>
                        </div>","126","","0","images/gray_12.png","","","","serious"
"","","","","","html-slider-response","66","339836","0.0-62.0","wl6qgj0927","NaN","<div style=""width:500px;"">
                            <p style=""font-size:50px; font-weight:bold;""
                            >serious</p>
                            <div style=""width:240px; margin: auto;"">
                                <img src=""images/gray_42.png"" style= ""width:200px""alt=""img"">
                            </div>
                        </div>","23","","0","images/gray_42.png","","","","serious"
"","","","","","html-slider-response","67","341873","0.0-63.0","wl6qgj0927","NaN","<div style=""width:500px;"">
                            <p style=""font-size:50px; font-weight:bold;""
                            >serious</p>
                            <div style=""width:240px; margin: auto;"">
                                <img src=""images/gray_07.png"" style= ""width:200px""alt=""img"">
                            </div>
                        </div>","142","","0","images/gray_07.png","","","","serious"
"","","","","","html-slider-response","68","343742","0.0-64.0","wl6qgj0927","NaN","<div style=""width:500px;"">
                            <p style=""font-size:50px; font-weight:bold;""
                            >serious</p>
                            <div style=""width:240px; margin: auto;"">
                                <img src=""images/gray_25.png"" style= ""width:200px""alt=""img"">
                            </div>
                        </div>","-48","","0","images/gray_25.png","","","","serious"
"","","","","","html-slider-response","69","345460","0.0-65.0","wl6qgj0927","NaN","<div style=""width:500px;"">
                            <p style=""font-size:50px; font-weight:bold;""
                            >serious</p>
                            <div style=""width:240px; margin: auto;"">
                                <img src=""images/gray_05.png"" style= ""width:200px""alt=""img"">
                            </div>
                        </div>","74","","0","images/gray_05.png","","","","serious"
"","","","","","html-slider-response","70","347271","0.0-66.0","wl6qgj0927","NaN","<div style=""width:500px;"">
                            <p style=""font-size:50px; font-weight:bold;""
                            >serious</p>
                            <div style=""width:240px; margin: auto;"">
                                <img src=""images/gray_30.png"" style= ""width:200px""alt=""img"">
                            </div>
                        </div>","163","","0","images/gray_30.png","","","","serious"
"","","","","","html-slider-response","71","349085","0.0-67.0","wl6qgj0927","NaN","<div style=""width:500px;"">
                            <p style=""font-size:50px; font-weight:bold;""
                            >serious</p>
                            <div style=""width:240px; margin: auto;"">
                                <img src=""images/gray_22.png"" style= ""width:200px""alt=""img"">
                            </div>
                        </div>","150","","0","images/gray_22.png","","","","serious"
"","","","","","html-slider-response","72","351019","0.0-68.0","wl6qgj0927","NaN","<div style=""width:500px;"">
                            <p style=""font-size:50px; font-weight:bold;""
                            >serious</p>
                            <div style=""width:240px; margin: auto;"">
                                <img src=""images/gray_19.png"" style= ""width:200px""alt=""img"">
                            </div>
                        </div>","-9","","0","images/gray_19.png","","","","serious"
"","","","","","html-slider-response","73","356831","0.0-69.0","wl6qgj0927","NaN","<div style=""width:500px;"">
                            <p style=""font-size:50px; font-weight:bold;""
                            >serious</p>
                            <div style=""width:240px; margin: auto;"">
                                <img src=""images/gray_14.png"" style= ""width:200px""alt=""img"">
                            </div>
                        </div>","46","","0","images/gray_14.png","","","","serious"
"","","","","","html-slider-response","74","359451","0.0-70.0","wl6qgj0927","NaN","<div style=""width:500px;"">
                            <p style=""font-size:50px; font-weight:bold;""
                            >serious</p>
                            <div style=""width:240px; margin: auto;"">
                                <img src=""images/gray_15.png"" style= ""width:200px""alt=""img"">
                            </div>
                        </div>","18","","0","images/gray_15.png","","","","serious"
"","","","","","html-slider-response","75","363876","0.0-71.0","wl6qgj0927","NaN","<div style=""width:500px;"">
                            <p style=""font-size:50px; font-weight:bold;""
                            >serious</p>
                            <div style=""width:240px; margin: auto;"">
                                <img src=""images/gray_27.png"" style= ""width:200px""alt=""img"">
                            </div>
                        </div>","31","","0","images/gray_27.png","","","","serious"
"","","","","","html-slider-response","76","470177","0.0-72.0","wl6qgj0927","NaN","<div style=""width:500px;"">
                            <p style=""font-size:50px; font-weight:bold;""
                            >serious</p>
                            <div style=""width:240px; margin: auto;"">
                                <img src=""images/gray_10.png"" style= ""width:200px""alt=""img"">
                            </div>
                        </div>","48","","0","images/gray_10.png","","","","serious"
"","","","","","html-slider-response","77","474327","0.0-73.0","wl6qgj0927","NaN","<div style=""width:500px;"">
                            <p style=""font-size:50px; font-weight:bold;""
                            >serious</p>
                            <div style=""width:240px; margin: auto;"">
                                <img src=""images/gray_28.png"" style= ""width:200px""alt=""img"">
                            </div>
                        </div>","74","","0","images/gray_28.png","","","","serious"
"","","","","","html-slider-response","78","476802","0.0-74.0","wl6qgj0927","NaN","<div style=""width:500px;"">
                            <p style=""font-size:50px; font-weight:bold;""
                            >serious</p>
                            <div style=""width:240px; margin: auto;"">
                                <img src=""images/gray_02.png"" style= ""width:200px""alt=""img"">
                            </div>
                        </div>","56","","0","images/gray_02.png","","","","serious"
"","","","","","html-slider-response","79","478976","0.0-75.0","wl6qgj0927","NaN","<div style=""width:500px;"">
                            <p style=""font-size:50px; font-weight:bold;""
                            >serious</p>
                            <div style=""width:240px; margin: auto;"">
                                <img src=""images/gray_40.png"" style= ""width:200px""alt=""img"">
                            </div>
                        </div>","81","","0","images/gray_40.png","","","","serious"
"","","","","","html-slider-response","80","480831","0.0-76.0","wl6qgj0927","NaN","<div style=""width:500px;"">
                            <p style=""font-size:50px; font-weight:bold;""
                            >serious</p>
                            <div style=""width:240px; margin: auto;"">
                                <img src=""images/gray_17.png"" style= ""width:200px""alt=""img"">
                            </div>
                        </div>","50","","0","images/gray_17.png","","","","serious"
"","","","","","html-slider-response","81","482350","0.0-77.0","wl6qgj0927","NaN","<div style=""width:500px;"">
                            <p style=""font-size:50px; font-weight:bold;""
                            >serious</p>
                            <div style=""width:240px; margin: auto;"">
                                <img src=""images/gray_11.png"" style= ""width:200px""alt=""img"">
                            </div>
                        </div>","48","","0","images/gray_11.png","","","","serious"
"","","","","","html-slider-response","82","484050","0.0-78.0","wl6qgj0927","NaN","<div style=""width:500px;"">
                            <p style=""font-size:50px; font-weight:bold;""
                            >serious</p>
                            <div style=""width:240px; margin: auto;"">
                                <img src=""images/gray_08.png"" style= ""width:200px""alt=""img"">
                            </div>
                        </div>","78","","0","images/gray_08.png","","","","serious"
"","","","","","html-slider-response","83","485534","0.0-79.0","wl6qgj0927","NaN","<div style=""width:500px;"">
                            <p style=""font-size:50px; font-weight:bold;""
                            >serious</p>
                            <div style=""width:240px; margin: auto;"">
                                <img src=""images/gray_09.png"" style= ""width:200px""alt=""img"">
                            </div>
                        </div>","-45","","0","images/gray_09.png","","","","serious"
"","","","","","html-slider-response","84","487341","0.0-80.0","wl6qgj0927","NaN","<div style=""width:500px;"">
                            <p style=""font-size:50px; font-weight:bold;""
                            >serious</p>
                            <div style=""width:240px; margin: auto;"">
                                <img src=""images/gray_03.png"" style= ""width:200px""alt=""img"">
                            </div>
                        </div>","-127","","0","images/gray_03.png","","","","serious"
"","","","","","html-slider-response","85","489562","0.0-81.0","wl6qgj0927","NaN","<div style=""width:500px;"">
                            <p style=""font-size:50px; font-weight:bold;""
                            >serious</p>
                            <div style=""width:240px; margin: auto;"">
                                <img src=""images/gray_26.png"" style= ""width:200px""alt=""img"">
                            </div>
                        </div>","54","","0","images/gray_26.png","","","","serious"
"","","","","","html-slider-response","86","491738","0.0-82.0","wl6qgj0927","NaN","<div style=""width:500px;"">
                            <p style=""font-size:50px; font-weight:bold;""
                            >serious</p>
                            <div style=""width:240px; margin: auto;"">
                                <img src=""images/gray_44.png"" style= ""width:200px""alt=""img"">
                            </div>
                        </div>","-144","","0","images/gray_44.png","","","","serious"
"","","","","","html-slider-response","87","494357","0.0-83.0","wl6qgj0927","NaN","<div style=""width:500px;"">
                            <p style=""font-size:50px; font-weight:bold;""
                            >serious</p>
                            <div style=""width:240px; margin: auto;"">
                                <img src=""images/gray_29.png"" style= ""width:200px""alt=""img"">
                            </div>
                        </div>","-45","","0","images/gray_29.png","","","","serious"
"","","","","","html-slider-response","88","496030","0.0-84.0","wl6qgj0927","NaN","<div style=""width:500px;"">
                            <p style=""font-size:50px; font-weight:bold;""
                            >serious</p>
                            <div style=""width:240px; margin: auto;"">
                                <img src=""images/gray_41.png"" style= ""width:200px""alt=""img"">
                            </div>
                        </div>","42","","0","images/gray_41.png","","","","serious"
"","","","","","html-slider-response","89","498102","0.0-85.0","wl6qgj0927","NaN","<div style=""width:500px;"">
                            <p style=""font-size:50px; font-weight:bold;""
                            >serious</p>
                            <div style=""width:240px; margin: auto;"">
                                <img src=""images/gray_38.png"" style= ""width:200px""alt=""img"">
                            </div>
                        </div>","-113","","0","images/gray_38.png","","","","serious"
"","","","","","html-slider-response","90","499707","0.0-86.0","wl6qgj0927","NaN","<div style=""width:500px;"">
                            <p style=""font-size:50px; font-weight:bold;""
                            >serious</p>
                            <div style=""width:240px; margin: auto;"">
                                <img src=""images/gray_33.png"" style= ""width:200px""alt=""img"">
                            </div>
                        </div>","86","","0","images/gray_33.png","","","","serious"
"","","","","","html-slider-response","91","501458","0.0-87.0","wl6qgj0927","NaN","<div style=""width:500px;"">
                            <p style=""font-size:50px; font-weight:bold;""
                            >serious</p>
                            <div style=""width:240px; margin: auto;"">
                                <img src=""images/gray_04.png"" style= ""width:200px""alt=""img"">
                            </div>
                        </div>","112","","0","images/gray_04.png","","","","serious"
"","","","","","html-slider-response","92","503221","0.0-88.0","wl6qgj0927","NaN","<div style=""width:500px;"">
                            <p style=""font-size:50px; font-weight:bold;""
                            >serious</p>
                            <div style=""width:240px; margin: auto;"">
                                <img src=""images/gray_13.png"" style= ""width:200px""alt=""img"">
                            </div>
                        </div>","165","","0","images/gray_13.png","","","","serious"
"","","","","","html-slider-response","93","504868","0.0-89.0","wl6qgj0927","NaN","<div style=""width:500px;"">
                            <p style=""font-size:50px; font-weight:bold;""
                            >serious</p>
                            <div style=""width:240px; margin: auto;"">
                                <img src=""images/gray_37.png"" style= ""width:200px""alt=""img"">
                            </div>
                        </div>","185","","0","images/gray_37.png","","","","serious"
"","","","","","html-slider-response","94","506577","0.0-90.0","wl6qgj0927","NaN","<div style=""width:500px;"">
                            <p style=""font-size:50px; font-weight:bold;""
                            >serious</p>
                            <div style=""width:240px; margin: auto;"">
                                <img src=""images/gray_24.png"" style= ""width:200px""alt=""img"">
                            </div>
                        </div>","102","","0","images/gray_24.png","","","","serious"
"","","","","","html-slider-response","95","508314","0.0-91.0","wl6qgj0927","NaN","<div style=""width:500px;"">
                            <p style=""font-size:50px; font-weight:bold;""
                            >serious</p>
                            <div style=""width:240px; margin: auto;"">
                                <img src=""images/gray_36.png"" style= ""width:200px""alt=""img"">
                            </div>
                        </div>","200","","0","images/gray_36.png","","","","serious"
"","","","","","html-slider-response","96","551641","0.0-92.0","wl6qgj0927","NaN","<div style=""width:500px;"">
                            <p style=""font-size:50px; font-weight:bold;""
                            >serious</p>
                            <div style=""width:240px; margin: auto;"">
                                <img src=""images/gray_16.png"" style= ""width:200px""alt=""img"">
                            </div>
                        </div>","-93","","0","images/gray_16.png","","","","serious"
"","","","","","html-slider-response","97","553423","0.0-93.0","wl6qgj0927","NaN","<div style=""width:500px;"">
                            <p style=""font-size:50px; font-weight:bold;""
                            >serious</p>
                            <div style=""width:240px; margin: auto;"">
                                <img src=""images/gray_35.png"" style= ""width:200px""alt=""img"">
                            </div>
                        </div>","124","","0","images/gray_35.png","","","","serious"
"","","","","","html-slider-response","98","561427","0.0-94.0","wl6qgj0927","NaN","<div style=""width:500px;"">
                            <p style=""font-size:50px; font-weight:bold;""
                            >serious</p>
                            <div style=""width:240px; margin: auto;"">
                                <img src=""images/gray_31.png"" style= ""width:200px""alt=""img"">
                            </div>
                        </div>","82","","0","images/gray_31.png","","","","serious"
"","","","","","html-slider-response","99","563191","0.0-95.0","wl6qgj0927","NaN","<div style=""width:500px;"">
                            <p style=""font-size:50px; font-weight:bold;""
                            >serious</p>
                            <div style=""width:240px; margin: auto;"">
                                <img src=""images/gray_21.png"" style= ""width:200px""alt=""img"">
                            </div>
                        </div>","61","","0","images/gray_21.png","","","","serious"
"","","","","","html-slider-response","100","565140","0.0-96.0","wl6qgj0927","NaN","<div style=""width:500px;"">
                            <p style=""font-size:50px; font-weight:bold;""
                            >serious</p>
                            <div style=""width:240px; margin: auto;"">
                                <img src=""images/gray_32.png"" style= ""width:200px""alt=""img"">
                            </div>
                        </div>","-13","","0","images/gray_32.png","","","","serious"
"","","","","","html-slider-response","101","566756","0.0-97.0","wl6qgj0927","NaN","<div style=""width:500px;"">
                            <p style=""font-size:50px; font-weight:bold;""
                            >serious</p>
                            <div style=""width:240px; margin: auto;"">
                                <img src=""images/gray_20.png"" style= ""width:200px""alt=""img"">
                            </div>
                        </div>","173","","0","images/gray_20.png","","","","serious"
"","","","","","html-slider-response","102","568561","0.0-98.0","wl6qgj0927","NaN","<div style=""width:500px;"">
                            <p style=""font-size:50px; font-weight:bold;""
                            >serious</p>
                            <div style=""width:240px; margin: auto;"">
                                <img src=""images/gray_06.png"" style= ""width:200px""alt=""img"">
                            </div>
                        </div>","170","","0","images/gray_06.png","","","","serious"
"","","","","","html-slider-response","103","571257","0.0-99.0","wl6qgj0927","NaN","<div style=""width:500px;"">
                            <p style=""font-size:50px; font-weight:bold;""
                            >serious</p>
                            <div style=""width:240px; margin: auto;"">
                                <img src=""images/gray_23.png"" style= ""width:200px""alt=""img"">
                            </div>
                        </div>","106","","0","images/gray_23.png","","","","serious"
"","","","","","html-slider-response","104","573273","0.0-100.0","wl6qgj0927","NaN","<div style=""width:500px;"">
                            <p style=""font-size:50px; font-weight:bold;""
                            >serious</p>
                            <div style=""width:240px; margin: auto;"">
                                <img src=""images/gray_39.png"" style= ""width:200px""alt=""img"">
                            </div>
                        </div>","-122","","0","images/gray_39.png","","","","serious"
"","","","","","html-slider-response","105","575209","0.0-101.0","wl6qgj0927","NaN","<div style=""width:500px;"">
                            <p style=""font-size:50px; font-weight:bold;""
                            >serious</p>
                            <div style=""width:240px; margin: auto;"">
                                <img src=""images/gray_01.png"" style= ""width:200px""alt=""img"">
                            </div>
                        </div>","56","","0","images/gray_01.png","","","","serious"
"","","","","","html-slider-response","106","576741","0.0-102.0","wl6qgj0927","NaN","<div style=""width:500px;"">
                            <p style=""font-size:50px; font-weight:bold;""
                            >serious</p>
                            <div style=""width:240px; margin: auto;"">
                                <img src=""images/gray_34.png"" style= ""width:200px""alt=""img"">
                            </div>
                        </div>","131","","0","images/gray_34.png","","","","serious"
"","","","","","html-slider-response","107","578477","0.0-103.0","wl6qgj0927","NaN","<div style=""width:500px;"">
                            <p style=""font-size:50px; font-weight:bold;""
                            >serious</p>
                            <div style=""width:240px; margin: auto;"">
                                <img src=""images/gray_18.png"" style= ""width:200px""alt=""img"">
                            </div>
                        </div>","-125","","0","images/gray_18.png","","","","serious"
"","","","","","html-button-response","108","586704","0.0-104.0","wl6qgj0927","7726","<p>Great Job! You've finished block 2.<br></br> You have 6 block(s) left to go.<br></br></p>","0","","","","","","",""
"","","","","","html-button-response","109","587352","0.0-105.0","wl6qgj0927","647","<p>In this block of trials, you will be asked to rate how much you associate each map with:</p > <p style = 'font-size:150%; font-weight: bold'>trustworthy</p><br></br>","0","","","","","","",""
"","","","","","html-slider-response","110","588897","0.0-106.0","wl6qgj0927","NaN","<div style=""width:500px;"">
                            <p style=""font-size:50px; font-weight:bold;""
                            >trustworthy</p>
                            <div style=""width:240px; margin: auto;"">
                                <img src=""images/gray_29.png"" style= ""width:200px""alt=""img"">
                            </div>
                        </div>","-96","","0","images/gray_29.png","","","","trustworthy"
"","","","","","html-slider-response","111","590873","0.0-107.0","wl6qgj0927","NaN","<div style=""width:500px;"">
                            <p style=""font-size:50px; font-weight:bold;""
                            >trustworthy</p>
                            <div style=""width:240px; margin: auto;"">
                                <img src=""images/gray_38.png"" style= ""width:200px""alt=""img"">
                            </div>
                        </div>","139","","0","images/gray_38.png","","","","trustworthy"
"","","","","","html-slider-response","112","593251","0.0-108.0","wl6qgj0927","NaN","<div style=""width:500px;"">
                            <p style=""font-size:50px; font-weight:bold;""
                            >trustworthy</p>
                            <div style=""width:240px; margin: auto;"">
                                <img src=""images/gray_33.png"" style= ""width:200px""alt=""img"">
                            </div>
                        </div>","-200","","0","images/gray_33.png","","","","trustworthy"
"","","","","","html-slider-response","113","595181","0.0-109.0","wl6qgj0927","NaN","<div style=""width:500px;"">
                            <p style=""font-size:50px; font-weight:bold;""
                            >trustworthy</p>
                            <div style=""width:240px; margin: auto;"">
                                <img src=""images/gray_12.png"" style= ""width:200px""alt=""img"">
                            </div>
                        </div>","79","","0","images/gray_12.png","","","","trustworthy"
"","","","","","html-slider-response","114","597236","0.0-110.0","wl6qgj0927","NaN","<div style=""width:500px;"">
                            <p style=""font-size:50px; font-weight:bold;""
                            >trustworthy</p>
                            <div style=""width:240px; margin: auto;"">
                                <img src=""images/gray_40.png"" style= ""width:200px""alt=""img"">
                            </div>
                        </div>","160","","0","images/gray_40.png","","","","trustworthy"
"","","","","","html-slider-response","115","599187","0.0-111.0","wl6qgj0927","NaN","<div style=""width:500px;"">
                            <p style=""font-size:50px; font-weight:bold;""
                            >trustworthy</p>
                            <div style=""width:240px; margin: auto;"">
                                <img src=""images/gray_03.png"" style= ""width:200px""alt=""img"">
                            </div>
                        </div>","-114","","0","images/gray_03.png","","","","trustworthy"
"","","","","","html-slider-response","116","601115","0.0-112.0","wl6qgj0927","NaN","<div style=""width:500px;"">
                            <p style=""font-size:50px; font-weight:bold;""
                            >trustworthy</p>
                            <div style=""width:240px; margin: auto;"">
                                <img src=""images/gray_43.png"" style= ""width:200px""alt=""img"">
                            </div>
                        </div>","-186","","0","images/gray_43.png","","","","trustworthy"
"","","","","","html-slider-response","117","602758","0.0-113.0","wl6qgj0927","NaN","<div style=""width:500px;"">
                            <p style=""font-size:50px; font-weight:bold;""
                            >trustworthy</p>
                            <div style=""width:240px; margin: auto;"">
                                <img src=""images/gray_39.png"" style= ""width:200px""alt=""img"">
                            </div>
                        </div>","-79","","0","images/gray_39.png","","","","trustworthy"
"","","","","","html-slider-response","118","610750","0.0-114.0","wl6qgj0927","NaN","<div style=""width:500px;"">
                            <p style=""font-size:50px; font-weight:bold;""
                            >trustworthy</p>
                            <div style=""width:240px; margin: auto;"">
                                <img src=""images/gray_02.png"" style= ""width:200px""alt=""img"">
                            </div>
                        </div>","51","","0","images/gray_02.png","","","","trustworthy"
"","","","","","html-slider-response","119","612470","0.0-115.0","wl6qgj0927","NaN","<div style=""width:500px;"">
                            <p style=""font-size:50px; font-weight:bold;""
                            >trustworthy</p>
                            <div style=""width:240px; margin: auto;"">
                                <img src=""images/gray_41.png"" style= ""width:200px""alt=""img"">
                            </div>
                        </div>","52","","0","images/gray_41.png","","","","trustworthy"
"","","","","","html-slider-response","120","614166","0.0-116.0","wl6qgj0927","NaN","<div style=""width:500px;"">
                            <p style=""font-size:50px; font-weight:bold;""
                            >trustworthy</p>
                            <div style=""width:240px; margin: auto;"">
                                <img src=""images/gray_35.png"" style= ""width:200px""alt=""img"">
                            </div>
                        </div>","60","","0","images/gray_35.png","","","","trustworthy"
"","","","","","html-slider-response","121","615948","0.0-117.0","wl6qgj0927","NaN","<div style=""width:500px;"">
                            <p style=""font-size:50px; font-weight:bold;""
                            >trustworthy</p>
                            <div style=""width:240px; margin: auto;"">
                                <img src=""images/gray_10.png"" style= ""width:200px""alt=""img"">
                            </div>
                        </div>","66","","0","images/gray_10.png","","","","trustworthy"
"","","","","","html-slider-response","122","628749","0.0-118.0","wl6qgj0927","NaN","<div style=""width:500px;"">
                            <p style=""font-size:50px; font-weight:bold;""
                            >trustworthy</p>
                            <div style=""width:240px; margin: auto;"">
                                <img src=""images/gray_05.png"" style= ""width:200px""alt=""img"">
                            </div>
                        </div>","73","","0","images/gray_05.png","","","","trustworthy"
"","","","","","html-slider-response","123","630613","0.0-119.0","wl6qgj0927","NaN","<div style=""width:500px;"">
                            <p style=""font-size:50px; font-weight:bold;""
                            >trustworthy</p>
                            <div style=""width:240px; margin: auto;"">
                                <img src=""images/gray_20.png"" style= ""width:200px""alt=""img"">
                            </div>
                        </div>","200","","0","images/gray_20.png","","","","trustworthy"
"","","","","","html-slider-response","124","632325","0.0-120.0","wl6qgj0927","NaN","<div style=""width:500px;"">
                            <p style=""font-size:50px; font-weight:bold;""
                            >trustworthy</p>
                            <div style=""width:240px; margin: auto;"">
                                <img src=""images/gray_13.png"" style= ""width:200px""alt=""img"">
                            </div>
                        </div>","-142","","0","images/gray_13.png","","","","trustworthy"
"","","","","","html-slider-response","125","642171","0.0-121.0","wl6qgj0927","NaN","<div style=""width:500px;"">
                            <p style=""font-size:50px; font-weight:bold;""
                            >trustworthy</p>
                            <div style=""width:240px; margin: auto;"">
                                <img src=""images/gray_28.png"" style= ""width:200px""alt=""img"">
                            </div>
                        </div>","-200","","0","images/gray_28.png","","","","trustworthy"
"","","","","","html-slider-response","126","645547","0.0-122.0","wl6qgj0927","NaN","<div style=""width:500px;"">
                            <p style=""font-size:50px; font-weight:bold;""
                            >trustworthy</p>
                            <div style=""width:240px; margin: auto;"">
                                <img src=""images/gray_14.png"" style= ""width:200px""alt=""img"">
                            </div>
                        </div>","90","","0","images/gray_14.png","","","","trustworthy"
"","","","","","html-slider-response","127","647409","0.0-123.0","wl6qgj0927","NaN","<div style=""width:500px;"">
                            <p style=""font-size:50px; font-weight:bold;""
                            >trustworthy</p>
                            <div style=""width:240px; margin: auto;"">
                                <img src=""images/gray_30.png"" style= ""width:200px""alt=""img"">
                            </div>
                        </div>","200","","0","images/gray_30.png","","","","trustworthy"
"","","","","","html-slider-response","128","673367","0.0-124.0","wl6qgj0927","NaN","<div style=""width:500px;"">
                            <p style=""font-size:50px; font-weight:bold;""
                            >trustworthy</p>
                            <div style=""width:240px; margin: auto;"">
                                <img src=""images/gray_31.png"" style= ""width:200px""alt=""img"">
                            </div>
                        </div>","-42","","0","images/gray_31.png","","","","trustworthy"
"","","","","","html-slider-response","129","674875","0.0-125.0","wl6qgj0927","NaN","<div style=""width:500px;"">
                            <p style=""font-size:50px; font-weight:bold;""
                            >trustworthy</p>
                            <div style=""width:240px; margin: auto;"">
                                <img src=""images/gray_06.png"" style= ""width:200px""alt=""img"">
                            </div>
                        </div>","-115","","0","images/gray_06.png","","","","trustworthy"
"","","","","","html-slider-response","130","677433","0.0-126.0","wl6qgj0927","NaN","<div style=""width:500px;"">
                            <p style=""font-size:50px; font-weight:bold;""
                            >trustworthy</p>
                            <div style=""width:240px; margin: auto;"">
                                <img src=""images/gray_34.png"" style= ""width:200px""alt=""img"">
                            </div>
                        </div>","-114","","0","images/gray_34.png","","","","trustworthy"
"","","","","","html-slider-response","131","679037","0.0-127.0","wl6qgj0927","NaN","<div style=""width:500px;"">
                            <p style=""font-size:50px; font-weight:bold;""
                            >trustworthy</p>
                            <div style=""width:240px; margin: auto;"">
                                <img src=""images/gray_09.png"" style= ""width:200px""alt=""img"">
                            </div>
                        </div>","87","","0","images/gray_09.png","","","","trustworthy"
"","","","","","html-slider-response","132","680005","0.0-128.0","wl6qgj0927","NaN","<div style=""width:500px;"">
                            <p style=""font-size:50px; font-weight:bold;""
                            >trustworthy</p>
                            <div style=""width:240px; margin: auto;"">
                                <img src=""images/gray_32.png"" style= ""width:200px""alt=""img"">
                            </div>
                        </div>","87","","0","images/gray_32.png","","","","trustworthy"
"","","","","","html-slider-response","133","680801","0.0-129.0","wl6qgj0927","NaN","<div style=""width:500px;"">
                            <p style=""font-size:50px; font-weight:bold;""
                            >trustworthy</p>
                            <div style=""width:240px; margin: auto;"">
                                <img src=""images/gray_25.png"" style= ""width:200px""alt=""img"">
                            </div>
                        </div>","87","","0","images/gray_25.png","","","","trustworthy"
"","","","","","html-slider-response","134","681572","0.0-130.0","wl6qgj0927","NaN","<div style=""width:500px;"">
                            <p style=""font-size:50px; font-weight:bold;""
                            >trustworthy</p>
                            <div style=""width:240px; margin: auto;"">
                                <img src=""images/gray_42.png"" style= ""width:200px""alt=""img"">
                            </div>
                        </div>","87","","0","images/gray_42.png","","","","trustworthy"
"","","","","","html-slider-response","135","682282","0.0-131.0","wl6qgj0927","NaN","<div style=""width:500px;"">
                            <p style=""font-size:50px; font-weight:bold;""
                            >trustworthy</p>
                            <div style=""width:240px; margin: auto;"">
                                <img src=""images/gray_26.png"" style= ""width:200px""alt=""img"">
                            </div>
                        </div>","87","","0","images/gray_26.png","","","","trustworthy"
"","","","","","html-slider-response","136","683254","0.0-132.0","wl6qgj0927","NaN","<div style=""width:500px;"">
                            <p style=""font-size:50px; font-weight:bold;""
                            >trustworthy</p>
                            <div style=""width:240px; margin: auto;"">
                                <img src=""images/gray_21.png"" style= ""width:200px""alt=""img"">
                            </div>
                        </div>","102","","0","images/gray_21.png","","","","trustworthy"
"","","","","","html-slider-response","137","684227","0.0-133.0","wl6qgj0927","NaN","<div style=""width:500px;"">
                            <p style=""font-size:50px; font-weight:bold;""
                            >trustworthy</p>
                            <div style=""width:240px; margin: auto;"">
                                <img src=""images/gray_17.png"" style= ""width:200px""alt=""img"">
                            </div>
                        </div>","119","","0","images/gray_17.png","","","","trustworthy"
"","","","","","html-slider-response","138","685152","0.0-134.0","wl6qgj0927","NaN","<div style=""width:500px;"">
                            <p style=""font-size:50px; font-weight:bold;""
                            >trustworthy</p>
                            <div style=""width:240px; margin: auto;"">
                                <img src=""images/gray_08.png"" style= ""width:200px""alt=""img"">
                            </div>
                        </div>","131","","0","images/gray_08.png","","","","trustworthy"
"","","","","","html-slider-response","139","686209","0.0-135.0","wl6qgj0927","NaN","<div style=""width:500px;"">
                            <p style=""font-size:50px; font-weight:bold;""
                            >trustworthy</p>
                            <div style=""width:240px; margin: auto;"">
                                <img src=""images/gray_11.png"" style= ""width:200px""alt=""img"">
                            </div>
                        </div>","166","","0","images/gray_11.png","","","","trustworthy"
"","","","","","html-slider-response","140","687128","0.0-136.0","wl6qgj0927","NaN","<div style=""width:500px;"">
                            <p style=""font-size:50px; font-weight:bold;""
                            >trustworthy</p>
                            <div style=""width:240px; margin: auto;"">
                                <img src=""images/gray_04.png"" style= ""width:200px""alt=""img"">
                            </div>
                        </div>","-91","","0","images/gray_04.png","","","","trustworthy"
"","","","","","html-slider-response","141","688013","0.0-137.0","wl6qgj0927","NaN","<div style=""width:500px;"">
                            <p style=""font-size:50px; font-weight:bold;""
                            >trustworthy</p>
                            <div style=""width:240px; margin: auto;"">
                                <img src=""images/gray_37.png"" style= ""width:200px""alt=""img"">
                            </div>
                        </div>","-91","","0","images/gray_37.png","","","","trustworthy"
"","","","","","html-slider-response","142","688875","0.0-138.0","wl6qgj0927","NaN","<div style=""width:500px;"">
                            <p style=""font-size:50px; font-weight:bold;""
                            >trustworthy</p>
                            <div style=""width:240px; margin: auto;"">
                                <img src=""images/gray_27.png"" style= ""width:200px""alt=""img"">
                            </div>
                        </div>","-35","","0","images/gray_27.png","","","","trustworthy"
"","","","","","html-slider-response","143","689766","0.0-139.0","wl6qgj0927","NaN","<div style=""width:500px;"">
                            <p style=""font-size:50px; font-weight:bold;""
                            >trustworthy</p>
                            <div style=""width:240px; margin: auto;"">
                                <img src=""images/gray_23.png"" style= ""width:200px""alt=""img"">
                            </div>
                        </div>","3","","0","images/gray_23.png","","","","trustworthy"
"","","","","","html-slider-response","144","690572","0.0-140.0","wl6qgj0927","NaN","<div style=""width:500px;"">
                            <p style=""font-size:50px; font-weight:bold;""
                            >trustworthy</p>
                            <div style=""width:240px; margin: auto;"">
                                <img src=""images/gray_44.png"" style= ""width:200px""alt=""img"">
                            </div>
                        </div>","23","","0","images/gray_44.png","","","","trustworthy"
"","","","","","html-slider-response","145","691596","0.0-141.0","wl6qgj0927","NaN","<div style=""width:500px;"">
                            <p style=""font-size:50px; font-weight:bold;""
                            >trustworthy</p>
                            <div style=""width:240px; margin: auto;"">
                                <img src=""images/gray_19.png"" style= ""width:200px""alt=""img"">
                            </div>
                        </div>","62","","0","images/gray_19.png","","","","trustworthy"
"","","","","","html-slider-response","146","692771","0.0-142.0","wl6qgj0927","NaN","<div style=""width:500px;"">
                            <p style=""font-size:50px; font-weight:bold;""
                            >trustworthy</p>
                            <div style=""width:240px; margin: auto;"">
                                <img src=""images/gray_36.png"" style= ""width:200px""alt=""img"">
                            </div>
                        </div>","78","","0","images/gray_36.png","","","","trustworthy"
"","","","","","html-slider-response","147","694331","0.0-143.0","wl6qgj0927","NaN","<div style=""width:500px;"">
                            <p style=""font-size:50px; font-weight:bold;""
                            >trustworthy</p>
                            <div style=""width:240px; margin: auto;"">
                                <img src=""images/gray_22.png"" style= ""width:200px""alt=""img"">
                            </div>
                        </div>","124","","0","images/gray_22.png","","","","trustworthy"
"","","","","","html-slider-response","148","695448","0.0-144.0","wl6qgj0927","NaN","<div style=""width:500px;"">
                            <p style=""font-size:50px; font-weight:bold;""
                            >trustworthy</p>
                            <div style=""width:240px; margin: auto;"">
                                <img src=""images/gray_15.png"" style= ""width:200px""alt=""img"">
                            </div>
                        </div>","182","","0","images/gray_15.png","","","","trustworthy"
"","","","","","html-slider-response","149","698856","0.0-145.0","wl6qgj0927","NaN","<div style=""width:500px;"">
                            <p style=""font-size:50px; font-weight:bold;""
                            >trustworthy</p>
                            <div style=""width:240px; margin: auto;"">
                                <img src=""images/gray_07.png"" style= ""width:200px""alt=""img"">
                            </div>
                        </div>","200","","0","images/gray_07.png","","","","trustworthy"
"","","","","","html-slider-response","150","699920","0.0-146.0","wl6qgj0927","NaN","<div style=""width:500px;"">
                            <p style=""font-size:50px; font-weight:bold;""
                            >trustworthy</p>
                            <div style=""width:240px; margin: auto;"">
                                <img src=""images/gray_01.png"" style= ""width:200px""alt=""img"">
                            </div>
                        </div>","96","","0","images/gray_01.png","","","","trustworthy"
"","","","","","html-slider-response","151","700896","0.0-147.0","wl6qgj0927","NaN","<div style=""width:500px;"">
                            <p style=""font-size:50px; font-weight:bold;""
                            >trustworthy</p>
                            <div style=""width:240px; margin: auto;"">
                                <img src=""images/gray_24.png"" style= ""width:200px""alt=""img"">
                            </div>
                        </div>","65","","0","images/gray_24.png","","","","trustworthy"
"","","","","","html-slider-response","152","702007","0.0-148.0","wl6qgj0927","NaN","<div style=""width:500px;"">
                            <p style=""font-size:50px; font-weight:bold;""
                            >trustworthy</p>
                            <div style=""width:240px; margin: auto;"">
                                <img src=""images/gray_18.png"" style= ""width:200px""alt=""img"">
                            </div>
                        </div>","-56","","0","images/gray_18.png","","","","trustworthy"
"","","","","","html-slider-response","153","702946","0.0-149.0","wl6qgj0927","NaN","<div style=""width:500px;"">
                            <p style=""font-size:50px; font-weight:bold;""
                            >trustworthy</p>
                            <div style=""width:240px; margin: auto;"">
                                <img src=""images/gray_16.png"" style= ""width:200px""alt=""img"">
                            </div>
                        </div>","-21","","0","images/gray_16.png","","","","trustworthy"
"","","","","","html-button-response","154","726930","0.0-150.0","wl6qgj0927","23474","<p>Great Job! You've finished block 3.<br></br> You have 5 block(s) left to go.<br></br></p>","0","","","","","","",""
"","","","","","html-button-response","155","727784","0.0-151.0","wl6qgj0927","851","<p>In this block of trials, you will be asked to rate how much you associate each map with:</p > <p style = 'font-size:150%; font-weight: bold'>negative</p><br></br>","0","","","","","","",""
"","","","","","html-slider-response","156","729857","0.0-152.0","wl6qgj0927","NaN","<div style=""width:500px;"">
                            <p style=""font-size:50px; font-weight:bold;""
                            >negative</p>
                            <div style=""width:240px; margin: auto;"">
                                <img src=""images/gray_17.png"" style= ""width:200px""alt=""img"">
                            </div>
                        </div>","200","","0","images/gray_17.png","","","","negative"
"","","","","","html-slider-response","157","731476","0.0-153.0","wl6qgj0927","NaN","<div style=""width:500px;"">
                            <p style=""font-size:50px; font-weight:bold;""
                            >negative</p>
                            <div style=""width:240px; margin: auto;"">
                                <img src=""images/gray_08.png"" style= ""width:200px""alt=""img"">
                            </div>
                        </div>","171","","0","images/gray_08.png","","","","negative"
"","","","","","html-slider-response","158","732457","0.0-154.0","wl6qgj0927","NaN","<div style=""width:500px;"">
                            <p style=""font-size:50px; font-weight:bold;""
                            >negative</p>
                            <div style=""width:240px; margin: auto;"">
                                <img src=""images/gray_03.png"" style= ""width:200px""alt=""img"">
                            </div>
                        </div>","171","","0","images/gray_03.png","","","","negative"
"","","","","","html-slider-response","159","733345","0.0-155.0","wl6qgj0927","NaN","<div style=""width:500px;"">
                            <p style=""font-size:50px; font-weight:bold;""
                            >negative</p>
                            <div style=""width:240px; margin: auto;"">
                                <img src=""images/gray_23.png"" style= ""width:200px""alt=""img"">
                            </div>
                        </div>","171","","0","images/gray_23.png","","","","negative"
"","","","","","html-slider-response","160","734326","0.0-156.0","wl6qgj0927","NaN","<div style=""width:500px;"">
                            <p style=""font-size:50px; font-weight:bold;""
                            >negative</p>
                            <div style=""width:240px; margin: auto;"">
                                <img src=""images/gray_09.png"" style= ""width:200px""alt=""img"">
                            </div>
                        </div>","130","","0","images/gray_09.png","","","","negative"
"","","","","","html-slider-response","161","735257","0.0-157.0","wl6qgj0927","NaN","<div style=""width:500px;"">
                            <p style=""font-size:50px; font-weight:bold;""
                            >negative</p>
                            <div style=""width:240px; margin: auto;"">
                                <img src=""images/gray_27.png"" style= ""width:200px""alt=""img"">
                            </div>
                        </div>","93","","0","images/gray_27.png","","","","negative"
"","","","","","html-slider-response","162","736784","0.0-158.0","wl6qgj0927","NaN","<div style=""width:500px;"">
                            <p style=""font-size:50px; font-weight:bold;""
                            >negative</p>
                            <div style=""width:240px; margin: auto;"">
                                <img src=""images/gray_05.png"" style= ""width:200px""alt=""img"">
                            </div>
                        </div>","-66","","0","images/gray_05.png","","","","negative"
"","","","","","html-slider-response","163","738058","0.0-159.0","wl6qgj0927","NaN","<div style=""width:500px;"">
                            <p style=""font-size:50px; font-weight:bold;""
                            >negative</p>
                            <div style=""width:240px; margin: auto;"">
                                <img src=""images/gray_20.png"" style= ""width:200px""alt=""img"">
                            </div>
                        </div>","-66","","0","images/gray_20.png","","","","negative"
"","","","","","html-slider-response","164","740278","0.0-160.0","wl6qgj0927","NaN","<div style=""width:500px;"">
                            <p style=""font-size:50px; font-weight:bold;""
                            >negative</p>
                            <div style=""width:240px; margin: auto;"">
                                <img src=""images/gray_22.png"" style= ""width:200px""alt=""img"">
                            </div>
                        </div>","-154","","0","images/gray_22.png","","","","negative"
"","","","","","html-slider-response","165","742204","0.0-161.0","wl6qgj0927","NaN","<div style=""width:500px;"">
                            <p style=""font-size:50px; font-weight:bold;""
                            >negative</p>
                            <div style=""width:240px; margin: auto;"">
                                <img src=""images/gray_37.png"" style= ""width:200px""alt=""img"">
                            </div>
                        </div>","-191","","0","images/gray_37.png","","","","negative"
"","","","","","html-slider-response","166","744207","0.0-162.0","wl6qgj0927","NaN","<div style=""width:500px;"">
                            <p style=""font-size:50px; font-weight:bold;""
                            >negative</p>
                            <div style=""width:240px; margin: auto;"">
                                <img src=""images/gray_07.png"" style= ""width:200px""alt=""img"">
                            </div>
                        </div>","149","","0","images/gray_07.png","","","","negative"
"","","","","","html-slider-response","167","770730","0.0-163.0","wl6qgj0927","NaN","<div style=""width:500px;"">
                            <p style=""font-size:50px; font-weight:bold;""
                            >negative</p>
                            <div style=""width:240px; margin: auto;"">
                                <img src=""images/gray_21.png"" style= ""width:200px""alt=""img"">
                            </div>
                        </div>","51","","0","images/gray_21.png","","","","negative"
"","","","","","html-slider-response","168","772257","0.0-164.0","wl6qgj0927","NaN","<div style=""width:500px;"">
                            <p style=""font-size:50px; font-weight:bold;""
                            >negative</p>
                            <div style=""width:240px; margin: auto;"">
                                <img src=""images/gray_01.png"" style= ""width:200px""alt=""img"">
                            </div>
                        </div>","151","","0","images/gray_01.png","","","","negative"
"","","","","","html-slider-response","169","773574","0.0-165.0","wl6qgj0927","NaN","<div style=""width:500px;"">
                            <p style=""font-size:50px; font-weight:bold;""
                            >negative</p>
                            <div style=""width:240px; margin: auto;"">
                                <img src=""images/gray_19.png"" style= ""width:200px""alt=""img"">
                            </div>
                        </div>","151","","0","images/gray_19.png","","","","negative"
"","","","","","html-slider-response","170","774505","0.0-166.0","wl6qgj0927","NaN","<div style=""width:500px;"">
                            <p style=""font-size:50px; font-weight:bold;""
                            >negative</p>
                            <div style=""width:240px; margin: auto;"">
                                <img src=""images/gray_30.png"" style= ""width:200px""alt=""img"">
                            </div>
                        </div>","151","","0","images/gray_30.png","","","","negative"
"","","","","","html-slider-response","171","775470","0.0-167.0","wl6qgj0927","NaN","<div style=""width:500px;"">
                            <p style=""font-size:50px; font-weight:bold;""
                            >negative</p>
                            <div style=""width:240px; margin: auto;"">
                                <img src=""images/gray_10.png"" style= ""width:200px""alt=""img"">
                            </div>
                        </div>","151","","0","images/gray_10.png","","","","negative"
"","","","","","html-slider-response","172","776620","0.0-168.0","wl6qgj0927","NaN","<div style=""width:500px;"">
                            <p style=""font-size:50px; font-weight:bold;""
                            >negative</p>
                            <div style=""width:240px; margin: auto;"">
                                <img src=""images/gray_29.png"" style= ""width:200px""alt=""img"">
                            </div>
                        </div>","105","","0","images/gray_29.png","","","","negative"
"","","","","","html-slider-response","173","777982","0.0-169.0","wl6qgj0927","NaN","<div style=""width:500px;"">
                            <p style=""font-size:50px; font-weight:bold;""
                            >negative</p>
                            <div style=""width:240px; margin: auto;"">
                                <img src=""images/gray_14.png"" style= ""width:200px""alt=""img"">
                            </div>
                        </div>","198","","0","images/gray_14.png","","","","negative"
"","","","","","html-slider-response","174","779202","0.0-170.0","wl6qgj0927","NaN","<div style=""width:500px;"">
                            <p style=""font-size:50px; font-weight:bold;""
                            >negative</p>
                            <div style=""width:240px; margin: auto;"">
                                <img src=""images/gray_32.png"" style= ""width:200px""alt=""img"">
                            </div>
                        </div>","89","","0","images/gray_32.png","","","","negative"
"","","","","","html-slider-response","175","780455","0.0-171.0","wl6qgj0927","NaN","<div style=""width:500px;"">
                            <p style=""font-size:50px; font-weight:bold;""
                            >negative</p>
                            <div style=""width:240px; margin: auto;"">
                                <img src=""images/gray_24.png"" style= ""width:200px""alt=""img"">
                            </div>
                        </div>","-42","","0","images/gray_24.png","","","","negative"
"","","","","","html-slider-response","176","781478","0.0-172.0","wl6qgj0927","NaN","<div style=""width:500px;"">
                            <p style=""font-size:50px; font-weight:bold;""
                            >negative</p>
                            <div style=""width:240px; margin: auto;"">
                                <img src=""images/gray_16.png"" style= ""width:200px""alt=""img"">
                            </div>
                        </div>","-66","","0","images/gray_16.png","","","","negative"
"","","","","","html-slider-response","177","782465","0.0-173.0","wl6qgj0927","NaN","<div style=""width:500px;"">
                            <p style=""font-size:50px; font-weight:bold;""
                            >negative</p>
                            <div style=""width:240px; margin: auto;"">
                                <img src=""images/gray_31.png"" style= ""width:200px""alt=""img"">
                            </div>
                        </div>","-14","","0","images/gray_31.png","","","","negative"
"","","","","","html-slider-response","178","783390","0.0-174.0","wl6qgj0927","NaN","<div style=""width:500px;"">
                            <p style=""font-size:50px; font-weight:bold;""
                            >negative</p>
                            <div style=""width:240px; margin: auto;"">
                                <img src=""images/gray_39.png"" style= ""width:200px""alt=""img"">
                            </div>
                        </div>","-105","","0","images/gray_39.png","","","","negative"
"","","","","","html-slider-response","179","784286","0.0-175.0","wl6qgj0927","NaN","<div style=""width:500px;"">
                            <p style=""font-size:50px; font-weight:bold;""
                            >negative</p>
                            <div style=""width:240px; margin: auto;"">
                                <img src=""images/gray_43.png"" style= ""width:200px""alt=""img"">
                            </div>
                        </div>","-86","","0","images/gray_43.png","","","","negative"
"","","","","","html-slider-response","180","785155","0.0-176.0","wl6qgj0927","NaN","<div style=""width:500px;"">
                            <p style=""font-size:50px; font-weight:bold;""
                            >negative</p>
                            <div style=""width:240px; margin: auto;"">
                                <img src=""images/gray_04.png"" style= ""width:200px""alt=""img"">
                            </div>
                        </div>","-143","","0","images/gray_04.png","","","","negative"
"","","","","","html-slider-response","181","785961","0.0-177.0","wl6qgj0927","NaN","<div style=""width:500px;"">
                            <p style=""font-size:50px; font-weight:bold;""
                            >negative</p>
                            <div style=""width:240px; margin: auto;"">
                                <img src=""images/gray_34.png"" style= ""width:200px""alt=""img"">
                            </div>
                        </div>","-104","","0","images/gray_34.png","","","","negative"
"","","","","","html-slider-response","182","786745","0.0-178.0","wl6qgj0927","NaN","<div style=""width:500px;"">
                            <p style=""font-size:50px; font-weight:bold;""
                            >negative</p>
                            <div style=""width:240px; margin: auto;"">
                                <img src=""images/gray_11.png"" style= ""width:200px""alt=""img"">
                            </div>
                        </div>","-134","","0","images/gray_11.png","","","","negative"
"","","","","","html-slider-response","183","787571","0.0-179.0","wl6qgj0927","NaN","<div style=""width:500px;"">
                            <p style=""font-size:50px; font-weight:bold;""
                            >negative</p>
                            <div style=""width:240px; margin: auto;"">
                                <img src=""images/gray_12.png"" style= ""width:200px""alt=""img"">
                            </div>
                        </div>","-96","","0","images/gray_12.png","","","","negative"
"","","","","","html-slider-response","184","788570","0.0-180.0","wl6qgj0927","NaN","<div style=""width:500px;"">
                            <p style=""font-size:50px; font-weight:bold;""
                            >negative</p>
                            <div style=""width:240px; margin: auto;"">
                                <img src=""images/gray_06.png"" style= ""width:200px""alt=""img"">
                            </div>
                        </div>","-173","","0","images/gray_06.png","","","","negative"
"","","","","","html-slider-response","185","789775","0.0-181.0","wl6qgj0927","NaN","<div style=""width:500px;"">
                            <p style=""font-size:50px; font-weight:bold;""
                            >negative</p>
                            <div style=""width:240px; margin: auto;"">
                                <img src=""images/gray_33.png"" style= ""width:200px""alt=""img"">
                            </div>
                        </div>","56","","0","images/gray_33.png","","","","negative"
"","","","","","html-slider-response","186","791247","0.0-182.0","wl6qgj0927","NaN","<div style=""width:500px;"">
                            <p style=""font-size:50px; font-weight:bold;""
                            >negative</p>
                            <div style=""width:240px; margin: auto;"">
                                <img src=""images/gray_26.png"" style= ""width:200px""alt=""img"">
                            </div>
                        </div>","151","","0","images/gray_26.png","","","","negative"
"","","","","","html-slider-response","187","792326","0.0-183.0","wl6qgj0927","NaN","<div style=""width:500px;"">
                            <p style=""font-size:50px; font-weight:bold;""
                            >negative</p>
                            <div style=""width:240px; margin: auto;"">
                                <img src=""images/gray_35.png"" style= ""width:200px""alt=""img"">
                            </div>
                        </div>","151","","0","images/gray_35.png","","","","negative"
"","","","","","html-slider-response","188","793351","0.0-184.0","wl6qgj0927","NaN","<div style=""width:500px;"">
                            <p style=""font-size:50px; font-weight:bold;""
                            >negative</p>
                            <div style=""width:240px; margin: auto;"">
                                <img src=""images/gray_38.png"" style= ""width:200px""alt=""img"">
                            </div>
                        </div>","115","","0","images/gray_38.png","","","","negative"
"","","","","","html-slider-response","189","794245","0.0-185.0","wl6qgj0927","NaN","<div style=""width:500px;"">
                            <p style=""font-size:50px; font-weight:bold;""
                            >negative</p>
                            <div style=""width:240px; margin: auto;"">
                                <img src=""images/gray_02.png"" style= ""width:200px""alt=""img"">
                            </div>
                        </div>","65","","0","images/gray_02.png","","","","negative"
"","","","","","html-slider-response","190","795139","0.0-186.0","wl6qgj0927","NaN","<div style=""width:500px;"">
                            <p style=""font-size:50px; font-weight:bold;""
                            >negative</p>
                            <div style=""width:240px; margin: auto;"">
                                <img src=""images/gray_25.png"" style= ""width:200px""alt=""img"">
                            </div>
                        </div>","-1","","0","images/gray_25.png","","","","negative"
"","","","","","html-slider-response","191","796104","0.0-187.0","wl6qgj0927","NaN","<div style=""width:500px;"">
                            <p style=""font-size:50px; font-weight:bold;""
                            >negative</p>
                            <div style=""width:240px; margin: auto;"">
                                <img src=""images/gray_28.png"" style= ""width:200px""alt=""img"">
                            </div>
                        </div>","29","","0","images/gray_28.png","","","","negative"
"","","","","","html-slider-response","192","796975","0.0-188.0","wl6qgj0927","NaN","<div style=""width:500px;"">
                            <p style=""font-size:50px; font-weight:bold;""
                            >negative</p>
                            <div style=""width:240px; margin: auto;"">
                                <img src=""images/gray_40.png"" style= ""width:200px""alt=""img"">
                            </div>
                        </div>","-58","","0","images/gray_40.png","","","","negative"
"","","","","","html-slider-response","193","797801","0.0-189.0","wl6qgj0927","NaN","<div style=""width:500px;"">
                            <p style=""font-size:50px; font-weight:bold;""
                            >negative</p>
                            <div style=""width:240px; margin: auto;"">
                                <img src=""images/gray_41.png"" style= ""width:200px""alt=""img"">
                            </div>
                        </div>","-14","","0","images/gray_41.png","","","","negative"
"","","","","","html-slider-response","194","798683","0.0-190.0","wl6qgj0927","NaN","<div style=""width:500px;"">
                            <p style=""font-size:50px; font-weight:bold;""
                            >negative</p>
                            <div style=""width:240px; margin: auto;"">
                                <img src=""images/gray_36.png"" style= ""width:200px""alt=""img"">
                            </div>
                        </div>","28","","0","images/gray_36.png","","","","negative"
"","","","","","html-slider-response","195","799574","0.0-191.0","wl6qgj0927","NaN","<div style=""width:500px;"">
                            <p style=""font-size:50px; font-weight:bold;""
                            >negative</p>
                            <div style=""width:240px; margin: auto;"">
                                <img src=""images/gray_18.png"" style= ""width:200px""alt=""img"">
                            </div>
                        </div>","71","","0","images/gray_18.png","","","","negative"
"","","","","","html-slider-response","196","800524","0.0-192.0","wl6qgj0927","NaN","<div style=""width:500px;"">
                            <p style=""font-size:50px; font-weight:bold;""
                            >negative</p>
                            <div style=""width:240px; margin: auto;"">
                                <img src=""images/gray_15.png"" style= ""width:200px""alt=""img"">
                            </div>
                        </div>","101","","0","images/gray_15.png","","","","negative"
"","","","","","html-slider-response","197","801471","0.0-193.0","wl6qgj0927","NaN","<div style=""width:500px;"">
                            <p style=""font-size:50px; font-weight:bold;""
                            >negative</p>
                            <div style=""width:240px; margin: auto;"">
                                <img src=""images/gray_44.png"" style= ""width:200px""alt=""img"">
                            </div>
                        </div>","138","","0","images/gray_44.png","","","","negative"
