"success","timeout","failed_images","failed_audio","failed_video","trial_type","trial_index","time_elapsed","internal_node_id","subject_id","rt","stimulus","response","question_order","slider_start","image_path","practiceTrial","practiceTrialNum","correct","concept"
"true","false","[]","[]","[]","preload","0","876","0.0-0.0","xh5k3njecd","","","","","","","","","",""
"","","","","","html-button-response","1","7749","0.0-1.0","xh5k3njecd","6871","Welcome to our experiment!<p>At the bottom of this screen, you will see a button that says ""Begin Experiment"".<br>Please only click that button when you are ready to complete the 25 minute experiment in one sitting.</p><p> Once you click that button, it will not be possible to restart the experiment.","0","","","","","","",""
"true","","","","","fullscreen","2","10090","0.0-2.0","xh5k3njecd","1287","","","","","","","","",""
"","","","","","survey-multi-select","3","18237","0.0-3.0","xh5k3njecd","8134","","{""Consent"":[""<strong>I consent</strong>""]}","[0]","","","","","",""
"","","","","","html-button-response","4","21163","0.0-4.0","xh5k3njecd","2923","Welcome! <p> This experiment involves two parts: demographic information, followed by the experimental task.<p> It will take about 25 minutes to complete both parts.","0","","","","","","",""
"","","","","","survey-text","5","54626","0.0-5.0","xh5k3njecd","33453","","{""Age"":""19"",""Gender"":""Female"",""Race/ethnicity"":""White"",""Languages"":""English""}","","","","","","",""
"","","","","","html-slider-response","6","70369","0.0-6.0","xh5k3njecd","15741","
            <div style='text-align:left; font-size:20px; line-height:25px; width: 1200px;'>
                During this experiment you will be asked to rate how much you associate maps with    different concepts.<br> Below, you can see some examples of the maps you will be asked to rate. Next to the maps
    is the list of concepts.<br>You will be asked    to rate how much you associate each map with each concept on a scale from 'not at all' to 'very much' like the
    one below. <br><br>
    Now, please look at the list of concepts and maps. For each concept, think about the map you associate 'very
    much' with the concept.<br>     When you see that map during the experiment, please rate it near the 'very much' endpoint of the
    scale.<br>Now, please think about which map you associate 'not at all'     with each concept. When you see that map during the experiment, please rate it near the 'not at all' endpoint
    of the scale.<br>
    Please use the full range of the scale. That is, if a map is somewhat associated with the concept, you would
    click partway between the middle point and right side of the scale.    You will be asked to rate each map for a given concept before moving on to the next concept.<br><br>Press the
    'Continue' button for instructions on how to use the slider.    <br><br>
</div>

<div style=""width: 500px; margin: 0 auto;"">
    <div style=""text-align: left; width: 200px; float: left;"">
        <p style=""font-size:25px; line-height:18px;"">calm</p>
        <p style=""font-size:25px; line-height:18px;"">exciting</p>
        <p style=""font-size:25px;line-height:18px;"">positive</p>
        <p style=""font-size:25px;line-height:18px;"">negative</p>
        <p style=""font-size:25px;line-height:18px;"">serious</p>
        <p style=""font-size:25px;line-height:18px;"">playful</p>
        <p style=""font-size:25px;line-height:18px;"">trustworthy</p>
        <p style=""font-size:25px;line-height:18px;"">disturbing</p>
    </div>
    <div style=""width: 200px; float: right; padding-top:15px; padding-right:40px"">
        <br>
        <br>
        <img src=""maps_anchoring.png"" alt=""img"" style=""max-width:500px"">
    </div>
    <div style=""clear: both;""></div>
</div>
            ","-5","","0","maps_anchoring.png","true","","",""
"","","","","","html-button-response","7","73053","0.0-7.0","xh5k3njecd","2682","<div style=""width:800px;""><p style=""text-align:left"">To move the slider, click and drag your cursor to the location of the scale where you would like to make your rating and then let go. When you let go of the slider, your response will be recorded and the next trial will begin. <br>
            We are interested in your initial impressions of each map for the given concept, so please go with your first intuition. <br>
            Before you begin the experiment, there will be four training trials for you to practice using the scale. <br>
             When you are ready to start the training trials, please click ""Continue"".</p><br></div>","0","","","","","","",""
"","","","","","html-slider-response","8","77439","0.0-8.0-0.0","xh5k3njecd","NaN","<div style=""width:500px;"">
                            <p style=""font-size:25px;"">Please move the slider all the way to the <br> right endpoint of the scale</p>

                            </div>
                        </div>","200","","0","","true","0","true",""
"","","","","","html-button-response","9","79657","0.0-8.0-1.0","xh5k3njecd","1710","<p align='center'><b>Good job!</b> Click on 'Continue' to proceed.</p>","0","","","","","","",""
"","","","","","html-slider-response","10","81964","0.0-9.0-0.0","xh5k3njecd","NaN","<div style=""width:500px;"">
                            <p style=""font-size:25px;"">Please move the slider all the way to the <br> left endpoint of the scale</p>

                            </div>
                        </div>","-200","","0","","true","1","true",""
"","","","","","html-button-response","11","83882","0.0-9.0-1.0","xh5k3njecd","1415","<p align='center'><b>Good job!</b> Click on 'Continue' to proceed.</p>","0","","","","","","",""
"","","","","","html-slider-response","12","89406","0.0-10.0-0.0","xh5k3njecd","NaN","<div style=""width:500px;"">
                            <p style=""font-size:25px;"">Please move the slider halfway between the center and right endpoint of the scale</p>

                            </div>
                        </div>","1","","0","","true","2","false",""
"","","","","","html-button-response","13","93214","0.0-10.0-1.0","xh5k3njecd","3295","<p align='center'><b>Not quite!</b> The slider was not placed near the instructed located. Click on 'Continue' to try again. </p>","0","","","","","","",""
"","","","","","html-slider-response","14","98311","0.0-10.1-0.1","xh5k3njecd","NaN","<div style=""width:500px;"">
                            <p style=""font-size:25px;"">Please move the slider halfway between the center and right endpoint of the scale</p>

                            </div>
                        </div>","110","","0","","true","2","true",""
"","","","","","html-button-response","15","99825","0.0-10.1-1.1","xh5k3njecd","1006","<p align='center'><b>Good job!</b> Click on 'Continue' to proceed.</p>","0","","","","","","",""
"","","","","","html-slider-response","16","104162","0.0-11.0-0.0","xh5k3njecd","NaN","<div style=""width:500px;"">
                            <p style=""font-size:25px;"">Please move the slider halfway between the center and left endpoint of the scale</p>

                            </div>
                        </div>","-113","","0","","true","3","false",""
"","","","","","html-button-response","17","106016","0.0-11.0-1.0","xh5k3njecd","1345","<p align='center'><b>Not quite!</b> The slider was not placed near the instructed located. Click on 'Continue' to try again. </p>","0","","","","","","",""
"","","","","","html-slider-response","18","108134","0.0-11.1-0.1","xh5k3njecd","NaN","<div style=""width:500px;"">
                            <p style=""font-size:25px;"">Please move the slider halfway between the center and left endpoint of the scale</p>

                            </div>
                        </div>","-115","","0","","true","3","false",""
"","","","","","html-button-response","19","109864","0.0-11.1-1.1","xh5k3njecd","1212","<p align='center'><b>Not quite!</b> The slider was not placed near the instructed located. Click on 'Continue' to try again. </p>","0","","","","","","",""
"","","","","","html-slider-response","20","116691","0.0-11.2-0.2","xh5k3njecd","NaN","<div style=""width:500px;"">
                            <p style=""font-size:25px;"">Please move the slider halfway between the center and left endpoint of the scale</p>

                            </div>
                        </div>","-102","","0","","true","3","true",""
"","","","","","html-button-response","21","118329","0.0-11.2-1.2","xh5k3njecd","1131","<p align='center'><b>Good job!</b> Click on 'Continue' to proceed.</p>","0","","","","","","",""
"","","","","","html-button-response","22","119130","0.0-12.0","xh5k3njecd","800","<p>Great job! You've completed the practice trials. Now you will begin the main task.</p>","0","","","","","","",""
"","","","","","html-button-response","23","121245","0.0-13.0","xh5k3njecd","2110","<p>In this block of trials, you will be asked to rate how much you associate each map with:</p > <p style = 'font-size:150%; font-weight: bold'>exciting</p><br></br>","0","","","","","","",""
"","","","","","html-slider-response","24","126518","0.0-14.0","xh5k3njecd","NaN","<div style=""width:500px;"">
                            <p style=""font-size:50px; font-weight:bold;""
                            >exciting</p>
                            <div style=""width:240px; margin: auto;"">
                                <img src=""images/gray_11.png"" style= ""width:200px""alt=""img"">
                            </div>
                        </div>","-61","","0","images/gray_11.png","","","","exciting"
"","","","","","html-slider-response","25","129962","0.0-15.0","xh5k3njecd","NaN","<div style=""width:500px;"">
                            <p style=""font-size:50px; font-weight:bold;""
                            >exciting</p>
                            <div style=""width:240px; margin: auto;"">
                                <img src=""images/gray_33.png"" style= ""width:200px""alt=""img"">
                            </div>
                        </div>","-98","","0","images/gray_33.png","","","","exciting"
"","","","","","html-slider-response","26","134358","0.0-16.0","xh5k3njecd","NaN","<div style=""width:500px;"">
                            <p style=""font-size:50px; font-weight:bold;""
                            >exciting</p>
                            <div style=""width:240px; margin: auto;"">
                                <img src=""images/gray_31.png"" style= ""width:200px""alt=""img"">
                            </div>
                        </div>","26","","0","images/gray_31.png","","","","exciting"
"","","","","","html-slider-response","27","137980","0.0-17.0","xh5k3njecd","NaN","<div style=""width:500px;"">
                            <p style=""font-size:50px; font-weight:bold;""
                            >exciting</p>
                            <div style=""width:240px; margin: auto;"">
                                <img src=""images/gray_36.png"" style= ""width:200px""alt=""img"">
                            </div>
                        </div>","36","","0","images/gray_36.png","","","","exciting"
"","","","","","html-slider-response","28","141380","0.0-18.0","xh5k3njecd","NaN","<div style=""width:500px;"">
                            <p style=""font-size:50px; font-weight:bold;""
                            >exciting</p>
                            <div style=""width:240px; margin: auto;"">
                                <img src=""images/gray_28.png"" style= ""width:200px""alt=""img"">
                            </div>
                        </div>","-51","","0","images/gray_28.png","","","","exciting"
"","","","","","html-slider-response","29","143979","0.0-19.0","xh5k3njecd","NaN","<div style=""width:500px;"">
                            <p style=""font-size:50px; font-weight:bold;""
                            >exciting</p>
                            <div style=""width:240px; margin: auto;"">
                                <img src=""images/gray_40.png"" style= ""width:200px""alt=""img"">
                            </div>
                        </div>","-42","","0","images/gray_40.png","","","","exciting"
"","","","","","html-slider-response","30","150880","0.0-20.0","xh5k3njecd","NaN","<div style=""width:500px;"">
                            <p style=""font-size:50px; font-weight:bold;""
                            >exciting</p>
                            <div style=""width:240px; margin: auto;"">
                                <img src=""images/gray_07.png"" style= ""width:200px""alt=""img"">
                            </div>
                        </div>","-48","","0","images/gray_07.png","","","","exciting"
"","","","","","html-slider-response","31","153614","0.0-21.0","xh5k3njecd","NaN","<div style=""width:500px;"">
                            <p style=""font-size:50px; font-weight:bold;""
                            >exciting</p>
                            <div style=""width:240px; margin: auto;"">
                                <img src=""images/gray_41.png"" style= ""width:200px""alt=""img"">
                            </div>
                        </div>","29","","0","images/gray_41.png","","","","exciting"
"","","","","","html-slider-response","32","156246","0.0-22.0","xh5k3njecd","NaN","<div style=""width:500px;"">
                            <p style=""font-size:50px; font-weight:bold;""
                            >exciting</p>
                            <div style=""width:240px; margin: auto;"">
                                <img src=""images/gray_13.png"" style= ""width:200px""alt=""img"">
                            </div>
                        </div>","-34","","0","images/gray_13.png","","","","exciting"
"","","","","","html-slider-response","33","159630","0.0-23.0","xh5k3njecd","NaN","<div style=""width:500px;"">
                            <p style=""font-size:50px; font-weight:bold;""
                            >exciting</p>
                            <div style=""width:240px; margin: auto;"">
                                <img src=""images/gray_10.png"" style= ""width:200px""alt=""img"">
                            </div>
                        </div>","42","","0","images/gray_10.png","","","","exciting"
"","","","","","html-slider-response","34","162246","0.0-24.0","xh5k3njecd","NaN","<div style=""width:500px;"">
                            <p style=""font-size:50px; font-weight:bold;""
                            >exciting</p>
                            <div style=""width:240px; margin: auto;"">
                                <img src=""images/gray_35.png"" style= ""width:200px""alt=""img"">
                            </div>
                        </div>","-33","","0","images/gray_35.png","","","","exciting"
"","","","","","html-slider-response","35","164703","0.0-25.0","xh5k3njecd","NaN","<div style=""width:500px;"">
                            <p style=""font-size:50px; font-weight:bold;""
                            >exciting</p>
                            <div style=""width:240px; margin: auto;"">
                                <img src=""images/gray_18.png"" style= ""width:200px""alt=""img"">
                            </div>
                        </div>","34","","0","images/gray_18.png","","","","exciting"
"","","","","","html-slider-response","36","167009","0.0-26.0","xh5k3njecd","NaN","<div style=""width:500px;"">
                            <p style=""font-size:50px; font-weight:bold;""
                            >exciting</p>
                            <div style=""width:240px; margin: auto;"">
                                <img src=""images/gray_16.png"" style= ""width:200px""alt=""img"">
                            </div>
                        </div>","-42","","0","images/gray_16.png","","","","exciting"
"","","","","","html-slider-response","37","169736","0.0-27.0","xh5k3njecd","NaN","<div style=""width:500px;"">
                            <p style=""font-size:50px; font-weight:bold;""
                            >exciting</p>
                            <div style=""width:240px; margin: auto;"">
                                <img src=""images/gray_25.png"" style= ""width:200px""alt=""img"">
                            </div>
                        </div>","-30","","0","images/gray_25.png","","","","exciting"
"","","","","","html-slider-response","38","172024","0.0-28.0","xh5k3njecd","NaN","<div style=""width:500px;"">
                            <p style=""font-size:50px; font-weight:bold;""
                            >exciting</p>
                            <div style=""width:240px; margin: auto;"">
                                <img src=""images/gray_20.png"" style= ""width:200px""alt=""img"">
                            </div>
                        </div>","22","","0","images/gray_20.png","","","","exciting"
"","","","","","html-slider-response","39","174379","0.0-29.0","xh5k3njecd","NaN","<div style=""width:500px;"">
                            <p style=""font-size:50px; font-weight:bold;""
                            >exciting</p>
                            <div style=""width:240px; margin: auto;"">
                                <img src=""images/gray_26.png"" style= ""width:200px""alt=""img"">
                            </div>
                        </div>","-16","","0","images/gray_26.png","","","","exciting"
"","","","","","html-slider-response","40","176592","0.0-30.0","xh5k3njecd","NaN","<div style=""width:500px;"">
                            <p style=""font-size:50px; font-weight:bold;""
                            >exciting</p>
                            <div style=""width:240px; margin: auto;"">
                                <img src=""images/gray_09.png"" style= ""width:200px""alt=""img"">
                            </div>
                        </div>","-29","","0","images/gray_09.png","","","","exciting"
"","","","","","html-slider-response","41","178911","0.0-31.0","xh5k3njecd","NaN","<div style=""width:500px;"">
                            <p style=""font-size:50px; font-weight:bold;""
                            >exciting</p>
                            <div style=""width:240px; margin: auto;"">
                                <img src=""images/gray_04.png"" style= ""width:200px""alt=""img"">
                            </div>
                        </div>","-31","","0","images/gray_04.png","","","","exciting"
"","","","","","html-slider-response","42","181329","0.0-32.0","xh5k3njecd","NaN","<div style=""width:500px;"">
                            <p style=""font-size:50px; font-weight:bold;""
                            >exciting</p>
                            <div style=""width:240px; margin: auto;"">
                                <img src=""images/gray_02.png"" style= ""width:200px""alt=""img"">
                            </div>
                        </div>","-30","","0","images/gray_02.png","","","","exciting"
"","","","","","html-slider-response","43","184931","0.0-33.0","xh5k3njecd","NaN","<div style=""width:500px;"">
                            <p style=""font-size:50px; font-weight:bold;""
                            >exciting</p>
                            <div style=""width:240px; margin: auto;"">
                                <img src=""images/gray_12.png"" style= ""width:200px""alt=""img"">
                            </div>
                        </div>","-22","","0","images/gray_12.png","","","","exciting"
"","","","","","html-slider-response","44","187333","0.0-34.0","xh5k3njecd","NaN","<div style=""width:500px;"">
                            <p style=""font-size:50px; font-weight:bold;""
                            >exciting</p>
                            <div style=""width:240px; margin: auto;"">
                                <img src=""images/gray_44.png"" style= ""width:200px""alt=""img"">
                            </div>
                        </div>","-32","","0","images/gray_44.png","","","","exciting"
"","","","","","html-slider-response","45","190329","0.0-35.0","xh5k3njecd","NaN","<div style=""width:500px;"">
                            <p style=""font-size:50px; font-weight:bold;""
                            >exciting</p>
                            <div style=""width:240px; margin: auto;"">
                                <img src=""images/gray_30.png"" style= ""width:200px""alt=""img"">
                            </div>
                        </div>","-32","","0","images/gray_30.png","","","","exciting"
"","","","","","html-slider-response","46","193380","0.0-36.0","xh5k3njecd","NaN","<div style=""width:500px;"">
                            <p style=""font-size:50px; font-weight:bold;""
                            >exciting</p>
                            <div style=""width:240px; margin: auto;"">
                                <img src=""images/gray_17.png"" style= ""width:200px""alt=""img"">
                            </div>
                        </div>","41","","0","images/gray_17.png","","","","exciting"
"","","","","","html-slider-response","47","195642","0.0-37.0","xh5k3njecd","NaN","<div style=""width:500px;"">
                            <p style=""font-size:50px; font-weight:bold;""
                            >exciting</p>
                            <div style=""width:240px; margin: auto;"">
                                <img src=""images/gray_03.png"" style= ""width:200px""alt=""img"">
                            </div>
                        </div>","-21","","0","images/gray_03.png","","","","exciting"
"","","","","","html-slider-response","48","197999","0.0-38.0","xh5k3njecd","NaN","<div style=""width:500px;"">
                            <p style=""font-size:50px; font-weight:bold;""
                            >exciting</p>
                            <div style=""width:240px; margin: auto;"">
                                <img src=""images/gray_32.png"" style= ""width:200px""alt=""img"">
                            </div>
                        </div>","-73","","0","images/gray_32.png","","","","exciting"
"","","","","","html-slider-response","49","200027","0.0-39.0","xh5k3njecd","NaN","<div style=""width:500px;"">
                            <p style=""font-size:50px; font-weight:bold;""
                            >exciting</p>
                            <div style=""width:240px; margin: auto;"">
                                <img src=""images/gray_29.png"" style= ""width:200px""alt=""img"">
                            </div>
                        </div>","50","","0","images/gray_29.png","","","","exciting"
"","","","","","html-slider-response","50","202343","0.0-40.0","xh5k3njecd","NaN","<div style=""width:500px;"">
                            <p style=""font-size:50px; font-weight:bold;""
                            >exciting</p>
                            <div style=""width:240px; margin: auto;"">
                                <img src=""images/gray_27.png"" style= ""width:200px""alt=""img"">
                            </div>
                        </div>","-58","","0","images/gray_27.png","","","","exciting"
"","","","","","html-slider-response","51","204526","0.0-41.0","xh5k3njecd","NaN","<div style=""width:500px;"">
                            <p style=""font-size:50px; font-weight:bold;""
                            >exciting</p>
                            <div style=""width:240px; margin: auto;"">
                                <img src=""images/gray_05.png"" style= ""width:200px""alt=""img"">
                            </div>
                        </div>","-45","","0","images/gray_05.png","","","","exciting"
"","","","","","html-slider-response","52","206876","0.0-42.0","xh5k3njecd","NaN","<div style=""width:500px;"">
                            <p style=""font-size:50px; font-weight:bold;""
                            >exciting</p>
                            <div style=""width:240px; margin: auto;"">
                                <img src=""images/gray_15.png"" style= ""width:200px""alt=""img"">
                            </div>
                        </div>","41","","0","images/gray_15.png","","","","exciting"
"","","","","","html-slider-response","53","209059","0.0-43.0","xh5k3njecd","NaN","<div style=""width:500px;"">
                            <p style=""font-size:50px; font-weight:bold;""
                            >exciting</p>
                            <div style=""width:240px; margin: auto;"">
                                <img src=""images/gray_34.png"" style= ""width:200px""alt=""img"">
                            </div>
                        </div>","-34","","0","images/gray_34.png","","","","exciting"
"","","","","","html-slider-response","54","211473","0.0-44.0","xh5k3njecd","NaN","<div style=""width:500px;"">
                            <p style=""font-size:50px; font-weight:bold;""
                            >exciting</p>
                            <div style=""width:240px; margin: auto;"">
                                <img src=""images/gray_24.png"" style= ""width:200px""alt=""img"">
                            </div>
                        </div>","-21","","0","images/gray_24.png","","","","exciting"
"","","","","","html-slider-response","55","213578","0.0-45.0","xh5k3njecd","NaN","<div style=""width:500px;"">
                            <p style=""font-size:50px; font-weight:bold;""
                            >exciting</p>
                            <div style=""width:240px; margin: auto;"">
                                <img src=""images/gray_23.png"" style= ""width:200px""alt=""img"">
                            </div>
                        </div>","-35","","0","images/gray_23.png","","","","exciting"
"","","","","","html-slider-response","56","216038","0.0-46.0","xh5k3njecd","NaN","<div style=""width:500px;"">
                            <p style=""font-size:50px; font-weight:bold;""
                            >exciting</p>
                            <div style=""width:240px; margin: auto;"">
                                <img src=""images/gray_21.png"" style= ""width:200px""alt=""img"">
                            </div>
                        </div>","72","","0","images/gray_21.png","","","","exciting"
"","","","","","html-slider-response","57","218300","0.0-47.0","xh5k3njecd","NaN","<div style=""width:500px;"">
                            <p style=""font-size:50px; font-weight:bold;""
                            >exciting</p>
                            <div style=""width:240px; margin: auto;"">
                                <img src=""images/gray_06.png"" style= ""width:200px""alt=""img"">
                            </div>
                        </div>","-42","","0","images/gray_06.png","","","","exciting"
"","","","","","html-slider-response","58","220285","0.0-48.0","xh5k3njecd","NaN","<div style=""width:500px;"">
                            <p style=""font-size:50px; font-weight:bold;""
                            >exciting</p>
                            <div style=""width:240px; margin: auto;"">
                                <img src=""images/gray_42.png"" style= ""width:200px""alt=""img"">
                            </div>
                        </div>","-45","","0","images/gray_42.png","","","","exciting"
"","","","","","html-slider-response","59","223172","0.0-49.0","xh5k3njecd","NaN","<div style=""width:500px;"">
                            <p style=""font-size:50px; font-weight:bold;""
                            >exciting</p>
                            <div style=""width:240px; margin: auto;"">
                                <img src=""images/gray_19.png"" style= ""width:200px""alt=""img"">
                            </div>
                        </div>","59","","0","images/gray_19.png","","","","exciting"
"","","","","","html-slider-response","60","225720","0.0-50.0","xh5k3njecd","NaN","<div style=""width:500px;"">
                            <p style=""font-size:50px; font-weight:bold;""
                            >exciting</p>
                            <div style=""width:240px; margin: auto;"">
                                <img src=""images/gray_14.png"" style= ""width:200px""alt=""img"">
                            </div>
                        </div>","53","","0","images/gray_14.png","","","","exciting"
"","","","","","html-slider-response","61","228054","0.0-51.0","xh5k3njecd","NaN","<div style=""width:500px;"">
                            <p style=""font-size:50px; font-weight:bold;""
                            >exciting</p>
                            <div style=""width:240px; margin: auto;"">
                                <img src=""images/gray_08.png"" style= ""width:200px""alt=""img"">
                            </div>
                        </div>","50","","0","images/gray_08.png","","","","exciting"
"","","","","","html-slider-response","62","230609","0.0-52.0","xh5k3njecd","NaN","<div style=""width:500px;"">
                            <p style=""font-size:50px; font-weight:bold;""
                            >exciting</p>
                            <div style=""width:240px; margin: auto;"">
                                <img src=""images/gray_01.png"" style= ""width:200px""alt=""img"">
                            </div>
                        </div>","48","","0","images/gray_01.png","","","","exciting"
"","","","","","html-slider-response","63","232962","0.0-53.0","xh5k3njecd","NaN","<div style=""width:500px;"">
                            <p style=""font-size:50px; font-weight:bold;""
                            >exciting</p>
                            <div style=""width:240px; margin: auto;"">
                                <img src=""images/gray_38.png"" style= ""width:200px""alt=""img"">
                            </div>
                        </div>","42","","0","images/gray_38.png","","","","exciting"
"","","","","","html-slider-response","64","234820","0.0-54.0","xh5k3njecd","NaN","<div style=""width:500px;"">
                            <p style=""font-size:50px; font-weight:bold;""
                            >exciting</p>
                            <div style=""width:240px; margin: auto;"">
                                <img src=""images/gray_43.png"" style= ""width:200px""alt=""img"">
                            </div>
                        </div>","-38","","0","images/gray_43.png","","","","exciting"
"","","","","","html-slider-response","65","236832","0.0-55.0","xh5k3njecd","NaN","<div style=""width:500px;"">
                            <p style=""font-size:50px; font-weight:bold;""
                            >exciting</p>
                            <div style=""width:240px; margin: auto;"">
                                <img src=""images/gray_37.png"" style= ""width:200px""alt=""img"">
                            </div>
                        </div>","-48","","0","images/gray_37.png","","","","exciting"
"","","","","","html-slider-response","66","238922","0.0-56.0","xh5k3njecd","NaN","<div style=""width:500px;"">
                            <p style=""font-size:50px; font-weight:bold;""
                            >exciting</p>
                            <div style=""width:240px; margin: auto;"">
                                <img src=""images/gray_39.png"" style= ""width:200px""alt=""img"">
                            </div>
                        </div>","50","","0","images/gray_39.png","","","","exciting"
"","","","","","html-slider-response","67","240759","0.0-57.0","xh5k3njecd","NaN","<div style=""width:500px;"">
                            <p style=""font-size:50px; font-weight:bold;""
                            >exciting</p>
                            <div style=""width:240px; margin: auto;"">
                                <img src=""images/gray_22.png"" style= ""width:200px""alt=""img"">
                            </div>
                        </div>","-58","","0","images/gray_22.png","","","","exciting"
"","","","","","html-button-response","68","259413","0.0-58.0","xh5k3njecd","18148","<p>Great Job! You've finished block 1.<br></br> You have 7 block(s) left to go.<br></br></p>","0","","","","","","",""
"","","","","","html-button-response","69","260328","0.0-59.0","xh5k3njecd","914","<p>In this block of trials, you will be asked to rate how much you associate each map with:</p > <p style = 'font-size:150%; font-weight: bold'>serious</p><br></br>","0","","","","","","",""
"","","","","","html-slider-response","70","262945","0.0-60.0","xh5k3njecd","NaN","<div style=""width:500px;"">
                            <p style=""font-size:50px; font-weight:bold;""
                            >serious</p>
                            <div style=""width:240px; margin: auto;"">
                                <img src=""images/gray_33.png"" style= ""width:200px""alt=""img"">
                            </div>
                        </div>","90","","0","images/gray_33.png","","","","serious"
"","","","","","html-slider-response","71","266908","0.0-61.0","xh5k3njecd","NaN","<div style=""width:500px;"">
                            <p style=""font-size:50px; font-weight:bold;""
                            >serious</p>
                            <div style=""width:240px; margin: auto;"">
                                <img src=""images/gray_28.png"" style= ""width:200px""alt=""img"">
                            </div>
                        </div>","20","","0","images/gray_28.png","","","","serious"
"","","","","","html-slider-response","72","269638","0.0-62.0","xh5k3njecd","NaN","<div style=""width:500px;"">
                            <p style=""font-size:50px; font-weight:bold;""
                            >serious</p>
                            <div style=""width:240px; margin: auto;"">
                                <img src=""images/gray_24.png"" style= ""width:200px""alt=""img"">
                            </div>
                        </div>","45","","0","images/gray_24.png","","","","serious"
"","","","","","html-slider-response","73","272588","0.0-63.0","xh5k3njecd","NaN","<div style=""width:500px;"">
                            <p style=""font-size:50px; font-weight:bold;""
                            >serious</p>
                            <div style=""width:240px; margin: auto;"">
                                <img src=""images/gray_34.png"" style= ""width:200px""alt=""img"">
                            </div>
                        </div>","-62","","0","images/gray_34.png","","","","serious"
"","","","","","html-slider-response","74","275111","0.0-64.0","xh5k3njecd","NaN","<div style=""width:500px;"">
                            <p style=""font-size:50px; font-weight:bold;""
                            >serious</p>
                            <div style=""width:240px; margin: auto;"">
                                <img src=""images/gray_18.png"" style= ""width:200px""alt=""img"">
                            </div>
                        </div>","47","","0","images/gray_18.png","","","","serious"
"","","","","","html-slider-response","75","277553","0.0-65.0","xh5k3njecd","NaN","<div style=""width:500px;"">
                            <p style=""font-size:50px; font-weight:bold;""
                            >serious</p>
                            <div style=""width:240px; margin: auto;"">
                                <img src=""images/gray_01.png"" style= ""width:200px""alt=""img"">
                            </div>
                        </div>","54","","0","images/gray_01.png","","","","serious"
"","","","","","html-slider-response","76","280185","0.0-66.0","xh5k3njecd","NaN","<div style=""width:500px;"">
                            <p style=""font-size:50px; font-weight:bold;""
                            >serious</p>
                            <div style=""width:240px; margin: auto;"">
                                <img src=""images/gray_38.png"" style= ""width:200px""alt=""img"">
                            </div>
                        </div>","54","","0","images/gray_38.png","","","","serious"
"","","","","","html-slider-response","77","282556","0.0-67.0","xh5k3njecd","NaN","<div style=""width:500px;"">
                            <p style=""font-size:50px; font-weight:bold;""
                            >serious</p>
                            <div style=""width:240px; margin: auto;"">
                                <img src=""images/gray_23.png"" style= ""width:200px""alt=""img"">
                            </div>
                        </div>","48","","0","images/gray_23.png","","","","serious"
"","","","","","html-slider-response","78","299117","0.0-68.0","xh5k3njecd","NaN","<div style=""width:500px;"">
                            <p style=""font-size:50px; font-weight:bold;""
                            >serious</p>
                            <div style=""width:240px; margin: auto;"">
                                <img src=""images/gray_22.png"" style= ""width:200px""alt=""img"">
                            </div>
                        </div>","-30","","0","images/gray_22.png","","","","serious"
"","","","","","html-slider-response","79","301541","0.0-69.0","xh5k3njecd","NaN","<div style=""width:500px;"">
                            <p style=""font-size:50px; font-weight:bold;""
                            >serious</p>
                            <div style=""width:240px; margin: auto;"">
                                <img src=""images/gray_20.png"" style= ""width:200px""alt=""img"">
                            </div>
                        </div>","55","","0","images/gray_20.png","","","","serious"
"","","","","","html-slider-response","80","303288","0.0-70.0","xh5k3njecd","NaN","<div style=""width:500px;"">
                            <p style=""font-size:50px; font-weight:bold;""
                            >serious</p>
                            <div style=""width:240px; margin: auto;"">
                                <img src=""images/gray_36.png"" style= ""width:200px""alt=""img"">
                            </div>
                        </div>","61","","0","images/gray_36.png","","","","serious"
"","","","","","html-slider-response","81","305305","0.0-71.0","xh5k3njecd","NaN","<div style=""width:500px;"">
                            <p style=""font-size:50px; font-weight:bold;""
                            >serious</p>
                            <div style=""width:240px; margin: auto;"">
                                <img src=""images/gray_11.png"" style= ""width:200px""alt=""img"">
                            </div>
                        </div>","-45","","0","images/gray_11.png","","","","serious"
"","","","","","html-slider-response","82","307564","0.0-72.0","xh5k3njecd","NaN","<div style=""width:500px;"">
                            <p style=""font-size:50px; font-weight:bold;""
                            >serious</p>
                            <div style=""width:240px; margin: auto;"">
                                <img src=""images/gray_25.png"" style= ""width:200px""alt=""img"">
                            </div>
                        </div>","-50","","0","images/gray_25.png","","","","serious"
"","","","","","html-slider-response","83","309827","0.0-73.0","xh5k3njecd","NaN","<div style=""width:500px;"">
                            <p style=""font-size:50px; font-weight:bold;""
                            >serious</p>
                            <div style=""width:240px; margin: auto;"">
                                <img src=""images/gray_26.png"" style= ""width:200px""alt=""img"">
                            </div>
                        </div>","42","","0","images/gray_26.png","","","","serious"
"","","","","","html-slider-response","84","311738","0.0-74.0","xh5k3njecd","NaN","<div style=""width:500px;"">
                            <p style=""font-size:50px; font-weight:bold;""
                            >serious</p>
                            <div style=""width:240px; margin: auto;"">
                                <img src=""images/gray_32.png"" style= ""width:200px""alt=""img"">
                            </div>
                        </div>","72","","0","images/gray_32.png","","","","serious"
"","","","","","html-slider-response","85","313082","0.0-75.0","xh5k3njecd","NaN","<div style=""width:500px;"">
                            <p style=""font-size:50px; font-weight:bold;""
                            >serious</p>
                            <div style=""width:240px; margin: auto;"">
                                <img src=""images/gray_05.png"" style= ""width:200px""alt=""img"">
                            </div>
                        </div>","72","","0","images/gray_05.png","","","","serious"
"","","","","","html-slider-response","86","314587","0.0-76.0","xh5k3njecd","NaN","<div style=""width:500px;"">
                            <p style=""font-size:50px; font-weight:bold;""
                            >serious</p>
                            <div style=""width:240px; margin: auto;"">
                                <img src=""images/gray_14.png"" style= ""width:200px""alt=""img"">
                            </div>
                        </div>","72","","0","images/gray_14.png","","","","serious"
"","","","","","html-slider-response","87","315837","0.0-77.0","xh5k3njecd","NaN","<div style=""width:500px;"">
                            <p style=""font-size:50px; font-weight:bold;""
                            >serious</p>
                            <div style=""width:240px; margin: auto;"">
                                <img src=""images/gray_10.png"" style= ""width:200px""alt=""img"">
                            </div>
                        </div>","72","","0","images/gray_10.png","","","","serious"
"","","","","","html-slider-response","88","318510","0.0-78.0","xh5k3njecd","NaN","<div style=""width:500px;"">
                            <p style=""font-size:50px; font-weight:bold;""
                            >serious</p>
                            <div style=""width:240px; margin: auto;"">
                                <img src=""images/gray_44.png"" style= ""width:200px""alt=""img"">
                            </div>
                        </div>","41","","0","images/gray_44.png","","","","serious"
"","","","","","html-slider-response","89","320774","0.0-79.0","xh5k3njecd","NaN","<div style=""width:500px;"">
                            <p style=""font-size:50px; font-weight:bold;""
                            >serious</p>
                            <div style=""width:240px; margin: auto;"">
                                <img src=""images/gray_06.png"" style= ""width:200px""alt=""img"">
                            </div>
                        </div>","-39","","0","images/gray_06.png","","","","serious"
"","","","","","html-slider-response","90","323061","0.0-80.0","xh5k3njecd","NaN","<div style=""width:500px;"">
                            <p style=""font-size:50px; font-weight:bold;""
                            >serious</p>
                            <div style=""width:240px; margin: auto;"">
                                <img src=""images/gray_30.png"" style= ""width:200px""alt=""img"">
                            </div>
                        </div>","74","","0","images/gray_30.png","","","","serious"
"","","","","","html-slider-response","91","347819","0.0-81.0","xh5k3njecd","NaN","<div style=""width:500px;"">
                            <p style=""font-size:50px; font-weight:bold;""
                            >serious</p>
                            <div style=""width:240px; margin: auto;"">
                                <img src=""images/gray_42.png"" style= ""width:200px""alt=""img"">
                            </div>
                        </div>","74","","0","images/gray_42.png","","","","serious"
"","","","","","html-slider-response","92","349807","0.0-82.0","xh5k3njecd","NaN","<div style=""width:500px;"">
                            <p style=""font-size:50px; font-weight:bold;""
                            >serious</p>
                            <div style=""width:240px; margin: auto;"">
                                <img src=""images/gray_16.png"" style= ""width:200px""alt=""img"">
                            </div>
                        </div>","50","","0","images/gray_16.png","","","","serious"
"","","","","","html-slider-response","93","352762","0.0-83.0","xh5k3njecd","NaN","<div style=""width:500px;"">
                            <p style=""font-size:50px; font-weight:bold;""
                            >serious</p>
                            <div style=""width:240px; margin: auto;"">
                                <img src=""images/gray_39.png"" style= ""width:200px""alt=""img"">
                            </div>
                        </div>","-26","","0","images/gray_39.png","","","","serious"
"","","","","","html-slider-response","94","354959","0.0-84.0","xh5k3njecd","NaN","<div style=""width:500px;"">
                            <p style=""font-size:50px; font-weight:bold;""
                            >serious</p>
                            <div style=""width:240px; margin: auto;"">
                                <img src=""images/gray_31.png"" style= ""width:200px""alt=""img"">
                            </div>
                        </div>","77","","0","images/gray_31.png","","","","serious"
"","","","","","html-slider-response","95","356380","0.0-85.0","xh5k3njecd","NaN","<div style=""width:500px;"">
                            <p style=""font-size:50px; font-weight:bold;""
                            >serious</p>
                            <div style=""width:240px; margin: auto;"">
                                <img src=""images/gray_13.png"" style= ""width:200px""alt=""img"">
                            </div>
                        </div>","77","","0","images/gray_13.png","","","","serious"
"","","","","","html-slider-response","96","357962","0.0-86.0","xh5k3njecd","NaN","<div style=""width:500px;"">
                            <p style=""font-size:50px; font-weight:bold;""
                            >serious</p>
                            <div style=""width:240px; margin: auto;"">
                                <img src=""images/gray_04.png"" style= ""width:200px""alt=""img"">
                            </div>
                        </div>","52","","0","images/gray_04.png","","","","serious"
"","","","","","html-slider-response","97","360477","0.0-87.0","xh5k3njecd","NaN","<div style=""width:500px;"">
                            <p style=""font-size:50px; font-weight:bold;""
                            >serious</p>
                            <div style=""width:240px; margin: auto;"">
                                <img src=""images/gray_07.png"" style= ""width:200px""alt=""img"">
                            </div>
                        </div>","-32","","0","images/gray_07.png","","","","serious"
"","","","","","html-slider-response","98","362316","0.0-88.0","xh5k3njecd","NaN","<div style=""width:500px;"">
                            <p style=""font-size:50px; font-weight:bold;""
                            >serious</p>
                            <div style=""width:240px; margin: auto;"">
                                <img src=""images/gray_29.png"" style= ""width:200px""alt=""img"">
                            </div>
                        </div>","93","","0","images/gray_29.png","","","","serious"
"","","","","","html-slider-response","99","364712","0.0-89.0","xh5k3njecd","NaN","<div style=""width:500px;"">
                            <p style=""font-size:50px; font-weight:bold;""
                            >serious</p>
                            <div style=""width:240px; margin: auto;"">
                                <img src=""images/gray_43.png"" style= ""width:200px""alt=""img"">
                            </div>
                        </div>","58","","0","images/gray_43.png","","","","serious"
"","","","","","html-slider-response","100","416751","0.0-90.0","xh5k3njecd","NaN","<div style=""width:500px;"">
                            <p style=""font-size:50px; font-weight:bold;""
                            >serious</p>
                            <div style=""width:240px; margin: auto;"">
                                <img src=""images/gray_40.png"" style= ""width:200px""alt=""img"">
                            </div>
                        </div>","-23","","0","images/gray_40.png","","","","serious"
"","","","","","html-slider-response","101","418487","0.0-91.0","xh5k3njecd","NaN","<div style=""width:500px;"">
                            <p style=""font-size:50px; font-weight:bold;""
                            >serious</p>
                            <div style=""width:240px; margin: auto;"">
                                <img src=""images/gray_41.png"" style= ""width:200px""alt=""img"">
                            </div>
                        </div>","-34","","0","images/gray_41.png","","","","serious"
"","","","","","html-slider-response","102","420309","0.0-92.0","xh5k3njecd","NaN","<div style=""width:500px;"">
                            <p style=""font-size:50px; font-weight:bold;""
                            >serious</p>
                            <div style=""width:240px; margin: auto;"">
                                <img src=""images/gray_19.png"" style= ""width:200px""alt=""img"">
                            </div>
                        </div>","30","","0","images/gray_19.png","","","","serious"
"","","","","","html-slider-response","103","422372","0.0-93.0","xh5k3njecd","NaN","<div style=""width:500px;"">
                            <p style=""font-size:50px; font-weight:bold;""
                            >serious</p>
                            <div style=""width:240px; margin: auto;"">
                                <img src=""images/gray_02.png"" style= ""width:200px""alt=""img"">
                            </div>
                        </div>","32","","0","images/gray_02.png","","","","serious"
"","","","","","html-slider-response","104","424993","0.0-94.0","xh5k3njecd","NaN","<div style=""width:500px;"">
                            <p style=""font-size:50px; font-weight:bold;""
                            >serious</p>
                            <div style=""width:240px; margin: auto;"">
                                <img src=""images/gray_27.png"" style= ""width:200px""alt=""img"">
                            </div>
                        </div>","-28","","0","images/gray_27.png","","","","serious"
"","","","","","html-slider-response","105","426615","0.0-95.0","xh5k3njecd","NaN","<div style=""width:500px;"">
                            <p style=""font-size:50px; font-weight:bold;""
                            >serious</p>
                            <div style=""width:240px; margin: auto;"">
                                <img src=""images/gray_37.png"" style= ""width:200px""alt=""img"">
                            </div>
                        </div>","45","","0","images/gray_37.png","","","","serious"
"","","","","","html-slider-response","106","428487","0.0-96.0","xh5k3njecd","NaN","<div style=""width:500px;"">
                            <p style=""font-size:50px; font-weight:bold;""
                            >serious</p>
                            <div style=""width:240px; margin: auto;"">
                                <img src=""images/gray_17.png"" style= ""width:200px""alt=""img"">
                            </div>
                        </div>","45","","0","images/gray_17.png","","","","serious"
"","","","","","html-slider-response","107","430616","0.0-97.0","xh5k3njecd","NaN","<div style=""width:500px;"">
                            <p style=""font-size:50px; font-weight:bold;""
                            >serious</p>
                            <div style=""width:240px; margin: auto;"">
                                <img src=""images/gray_21.png"" style= ""width:200px""alt=""img"">
                            </div>
                        </div>","96","","0","images/gray_21.png","","","","serious"
"","","","","","html-slider-response","108","432291","0.0-98.0","xh5k3njecd","NaN","<div style=""width:500px;"">
                            <p style=""font-size:50px; font-weight:bold;""
                            >serious</p>
                            <div style=""width:240px; margin: auto;"">
                                <img src=""images/gray_12.png"" style= ""width:200px""alt=""img"">
                            </div>
                        </div>","96","","0","images/gray_12.png","","","","serious"
"","","","","","html-slider-response","109","434077","0.0-99.0","xh5k3njecd","NaN","<div style=""width:500px;"">
                            <p style=""font-size:50px; font-weight:bold;""
                            >serious</p>
                            <div style=""width:240px; margin: auto;"">
                                <img src=""images/gray_09.png"" style= ""width:200px""alt=""img"">
                            </div>
                        </div>","-42","","0","images/gray_09.png","","","","serious"
"","","","","","html-slider-response","110","436376","0.0-100.0","xh5k3njecd","NaN","<div style=""width:500px;"">
                            <p style=""font-size:50px; font-weight:bold;""
                            >serious</p>
                            <div style=""width:240px; margin: auto;"">
                                <img src=""images/gray_15.png"" style= ""width:200px""alt=""img"">
                            </div>
                        </div>","61","","0","images/gray_15.png","","","","serious"
"","","","","","html-slider-response","111","438207","0.0-101.0","xh5k3njecd","NaN","<div style=""width:500px;"">
                            <p style=""font-size:50px; font-weight:bold;""
                            >serious</p>
                            <div style=""width:240px; margin: auto;"">
                                <img src=""images/gray_03.png"" style= ""width:200px""alt=""img"">
                            </div>
                        </div>","67","","0","images/gray_03.png","","","","serious"
"","","","","","html-slider-response","112","439427","0.0-102.0","xh5k3njecd","NaN","<div style=""width:500px;"">
                            <p style=""font-size:50px; font-weight:bold;""
                            >serious</p>
                            <div style=""width:240px; margin: auto;"">
                                <img src=""images/gray_08.png"" style= ""width:200px""alt=""img"">
                            </div>
                        </div>","67","","0","images/gray_08.png","","","","serious"
"","","","","","html-slider-response","113","440646","0.0-103.0","xh5k3njecd","NaN","<div style=""width:500px;"">
                            <p style=""font-size:50px; font-weight:bold;""
                            >serious</p>
                            <div style=""width:240px; margin: auto;"">
                                <img src=""images/gray_35.png"" style= ""width:200px""alt=""img"">
                            </div>
                        </div>","67","","0","images/gray_35.png","","","","serious"
"","","","","","html-button-response","114","442310","0.0-104.0","xh5k3njecd","1152","<p>Great Job! You've finished block 2.<br></br> You have 6 block(s) left to go.<br></br></p>","0","","","","","","",""
"","","","","","html-button-response","115","443262","0.0-105.0","xh5k3njecd","950","<p>In this block of trials, you will be asked to rate how much you associate each map with:</p > <p style = 'font-size:150%; font-weight: bold'>calm</p><br></br>","0","","","","","","",""
"","","","","","html-slider-response","116","446231","0.0-106.0","xh5k3njecd","NaN","<div style=""width:500px;"">
                            <p style=""font-size:50px; font-weight:bold;""
                            >calm</p>
                            <div style=""width:240px; margin: auto;"">
                                <img src=""images/gray_13.png"" style= ""width:200px""alt=""img"">
                            </div>
                        </div>","-48","","0","images/gray_13.png","","","","calm"
"","","","","","html-slider-response","117","448376","0.0-107.0","xh5k3njecd","NaN","<div style=""width:500px;"">
                            <p style=""font-size:50px; font-weight:bold;""
                            >calm</p>
                            <div style=""width:240px; margin: auto;"">
                                <img src=""images/gray_01.png"" style= ""width:200px""alt=""img"">
                            </div>
                        </div>","61","","0","images/gray_01.png","","","","calm"
"","","","","","html-slider-response","118","449889","0.0-108.0","xh5k3njecd","NaN","<div style=""width:500px;"">
                            <p style=""font-size:50px; font-weight:bold;""
                            >calm</p>
                            <div style=""width:240px; margin: auto;"">
                                <img src=""images/gray_24.png"" style= ""width:200px""alt=""img"">
                            </div>
                        </div>","61","","0","images/gray_24.png","","","","calm"
"","","","","","html-slider-response","119","451787","0.0-109.0","xh5k3njecd","NaN","<div style=""width:500px;"">
                            <p style=""font-size:50px; font-weight:bold;""
                            >calm</p>
                            <div style=""width:240px; margin: auto;"">
                                <img src=""images/gray_08.png"" style= ""width:200px""alt=""img"">
                            </div>
                        </div>","-44","","0","images/gray_08.png","","","","calm"
"","","","","","html-slider-response","120","453357","0.0-110.0","xh5k3njecd","NaN","<div style=""width:500px;"">
                            <p style=""font-size:50px; font-weight:bold;""
                            >calm</p>
                            <div style=""width:240px; margin: auto;"">
                                <img src=""images/gray_42.png"" style= ""width:200px""alt=""img"">
                            </div>
                        </div>","-63","","0","images/gray_42.png","","","","calm"
"","","","","","html-slider-response","121","455788","0.0-111.0","xh5k3njecd","NaN","<div style=""width:500px;"">
                            <p style=""font-size:50px; font-weight:bold;""
                            >calm</p>
                            <div style=""width:240px; margin: auto;"">
                                <img src=""images/gray_17.png"" style= ""width:200px""alt=""img"">
                            </div>
                        </div>","-33","","0","images/gray_17.png","","","","calm"
"","","","","","html-slider-response","122","457381","0.0-112.0","xh5k3njecd","NaN","<div style=""width:500px;"">
                            <p style=""font-size:50px; font-weight:bold;""
                            >calm</p>
                            <div style=""width:240px; margin: auto;"">
                                <img src=""images/gray_27.png"" style= ""width:200px""alt=""img"">
                            </div>
                        </div>","-82","","0","images/gray_27.png","","","","calm"
"","","","","","html-slider-response","123","459268","0.0-113.0","xh5k3njecd","NaN","<div style=""width:500px;"">
                            <p style=""font-size:50px; font-weight:bold;""
                            >calm</p>
                            <div style=""width:240px; margin: auto;"">
                                <img src=""images/gray_43.png"" style= ""width:200px""alt=""img"">
                            </div>
                        </div>","-74","","0","images/gray_43.png","","","","calm"
"","","","","","html-slider-response","124","461158","0.0-114.0","xh5k3njecd","NaN","<div style=""width:500px;"">
                            <p style=""font-size:50px; font-weight:bold;""
                            >calm</p>
                            <div style=""width:240px; margin: auto;"">
                                <img src=""images/gray_29.png"" style= ""width:200px""alt=""img"">
                            </div>
                        </div>","86","","0","images/gray_29.png","","","","calm"
"","","","","","html-slider-response","125","462447","0.0-115.0","xh5k3njecd","NaN","<div style=""width:500px;"">
                            <p style=""font-size:50px; font-weight:bold;""
                            >calm</p>
                            <div style=""width:240px; margin: auto;"">
                                <img src=""images/gray_25.png"" style= ""width:200px""alt=""img"">
                            </div>
                        </div>","86","","0","images/gray_25.png","","","","calm"
"","","","","","html-slider-response","126","463958","0.0-116.0","xh5k3njecd","NaN","<div style=""width:500px;"">
                            <p style=""font-size:50px; font-weight:bold;""
                            >calm</p>
                            <div style=""width:240px; margin: auto;"">
                                <img src=""images/gray_34.png"" style= ""width:200px""alt=""img"">
                            </div>
                        </div>","86","","0","images/gray_34.png","","","","calm"
"","","","","","html-slider-response","127","466078","0.0-117.0","xh5k3njecd","NaN","<div style=""width:500px;"">
                            <p style=""font-size:50px; font-weight:bold;""
                            >calm</p>
                            <div style=""width:240px; margin: auto;"">
                                <img src=""images/gray_36.png"" style= ""width:200px""alt=""img"">
                            </div>
                        </div>","94","","0","images/gray_36.png","","","","calm"
"","","","","","html-slider-response","128","467754","0.0-118.0","xh5k3njecd","NaN","<div style=""width:500px;"">
                            <p style=""font-size:50px; font-weight:bold;""
                            >calm</p>
                            <div style=""width:240px; margin: auto;"">
                                <img src=""images/gray_37.png"" style= ""width:200px""alt=""img"">
                            </div>
                        </div>","92","","0","images/gray_37.png","","","","calm"
"","","","","","html-slider-response","129","469138","0.0-119.0","xh5k3njecd","NaN","<div style=""width:500px;"">
                            <p style=""font-size:50px; font-weight:bold;""
                            >calm</p>
                            <div style=""width:240px; margin: auto;"">
                                <img src=""images/gray_14.png"" style= ""width:200px""alt=""img"">
                            </div>
                        </div>","92","","0","images/gray_14.png","","","","calm"
"","","","","","html-slider-response","130","470373","0.0-120.0","xh5k3njecd","NaN","<div style=""width:500px;"">
                            <p style=""font-size:50px; font-weight:bold;""
                            >calm</p>
                            <div style=""width:240px; margin: auto;"">
                                <img src=""images/gray_31.png"" style= ""width:200px""alt=""img"">
                            </div>
                        </div>","92","","0","images/gray_31.png","","","","calm"
"","","","","","html-slider-response","131","471683","0.0-121.0","xh5k3njecd","NaN","<div style=""width:500px;"">
                            <p style=""font-size:50px; font-weight:bold;""
                            >calm</p>
                            <div style=""width:240px; margin: auto;"">
                                <img src=""images/gray_38.png"" style= ""width:200px""alt=""img"">
                            </div>
                        </div>","92","","0","images/gray_38.png","","","","calm"
"","","","","","html-slider-response","132","473552","0.0-122.0","xh5k3njecd","NaN","<div style=""width:500px;"">
                            <p style=""font-size:50px; font-weight:bold;""
                            >calm</p>
                            <div style=""width:240px; margin: auto;"">
                                <img src=""images/gray_07.png"" style= ""width:200px""alt=""img"">
                            </div>
                        </div>","75","","0","images/gray_07.png","","","","calm"
"","","","","","html-slider-response","133","475181","0.0-123.0","xh5k3njecd","NaN","<div style=""width:500px;"">
                            <p style=""font-size:50px; font-weight:bold;""
                            >calm</p>
                            <div style=""width:240px; margin: auto;"">
                                <img src=""images/gray_20.png"" style= ""width:200px""alt=""img"">
                            </div>
                        </div>","85","","0","images/gray_20.png","","","","calm"
"","","","","","html-slider-response","134","477138","0.0-124.0","xh5k3njecd","NaN","<div style=""width:500px;"">
                            <p style=""font-size:50px; font-weight:bold;""
                            >calm</p>
                            <div style=""width:240px; margin: auto;"">
                                <img src=""images/gray_04.png"" style= ""width:200px""alt=""img"">
                            </div>
                        </div>","-27","","0","images/gray_04.png","","","","calm"
"","","","","","html-slider-response","135","478855","0.0-125.0","xh5k3njecd","NaN","<div style=""width:500px;"">
                            <p style=""font-size:50px; font-weight:bold;""
                            >calm</p>
                            <div style=""width:240px; margin: auto;"">
                                <img src=""images/gray_44.png"" style= ""width:200px""alt=""img"">
                            </div>
                        </div>","-34","","0","images/gray_44.png","","","","calm"
"","","","","","html-slider-response","136","480381","0.0-126.0","xh5k3njecd","NaN","<div style=""width:500px;"">
                            <p style=""font-size:50px; font-weight:bold;""
                            >calm</p>
                            <div style=""width:240px; margin: auto;"">
                                <img src=""images/gray_23.png"" style= ""width:200px""alt=""img"">
                            </div>
                        </div>","-72","","0","images/gray_23.png","","","","calm"
"","","","","","html-slider-response","137","481834","0.0-127.0","xh5k3njecd","NaN","<div style=""width:500px;"">
                            <p style=""font-size:50px; font-weight:bold;""
                            >calm</p>
                            <div style=""width:240px; margin: auto;"">
                                <img src=""images/gray_26.png"" style= ""width:200px""alt=""img"">
                            </div>
                        </div>","-72","","0","images/gray_26.png","","","","calm"
"","","","","","html-slider-response","138","484519","0.0-128.0","xh5k3njecd","NaN","<div style=""width:500px;"">
                            <p style=""font-size:50px; font-weight:bold;""
                            >calm</p>
                            <div style=""width:240px; margin: auto;"">
                                <img src=""images/gray_11.png"" style= ""width:200px""alt=""img"">
                            </div>
                        </div>","53","","0","images/gray_11.png","","","","calm"
"","","","","","html-slider-response","139","486717","0.0-129.0","xh5k3njecd","NaN","<div style=""width:500px;"">
                            <p style=""font-size:50px; font-weight:bold;""
                            >calm</p>
                            <div style=""width:240px; margin: auto;"">
                                <img src=""images/gray_10.png"" style= ""width:200px""alt=""img"">
                            </div>
                        </div>","101","","0","images/gray_10.png","","","","calm"
"","","","","","html-slider-response","140","488857","0.0-130.0","xh5k3njecd","NaN","<div style=""width:500px;"">
                            <p style=""font-size:50px; font-weight:bold;""
                            >calm</p>
                            <div style=""width:240px; margin: auto;"">
                                <img src=""images/gray_21.png"" style= ""width:200px""alt=""img"">
                            </div>
                        </div>","94","","0","images/gray_21.png","","","","calm"
"","","","","","html-slider-response","141","490709","0.0-131.0","xh5k3njecd","NaN","<div style=""width:500px;"">
                            <p style=""font-size:50px; font-weight:bold;""
                            >calm</p>
                            <div style=""width:240px; margin: auto;"">
                                <img src=""images/gray_03.png"" style= ""width:200px""alt=""img"">
                            </div>
                        </div>","-21","","0","images/gray_03.png","","","","calm"
"","","","","","html-slider-response","142","492764","0.0-132.0","xh5k3njecd","NaN","<div style=""width:500px;"">
                            <p style=""font-size:50px; font-weight:bold;""
                            >calm</p>
                            <div style=""width:240px; margin: auto;"">
                                <img src=""images/gray_19.png"" style= ""width:200px""alt=""img"">
                            </div>
                        </div>","85","","0","images/gray_19.png","","","","calm"
"","","","","","html-slider-response","143","494336","0.0-133.0","xh5k3njecd","NaN","<div style=""width:500px;"">
                            <p style=""font-size:50px; font-weight:bold;""
                            >calm</p>
                            <div style=""width:240px; margin: auto;"">
                                <img src=""images/gray_40.png"" style= ""width:200px""alt=""img"">
                            </div>
                        </div>","114","","0","images/gray_40.png","","","","calm"
"","","","","","html-slider-response","144","496654","0.0-134.0","xh5k3njecd","NaN","<div style=""width:500px;"">
                            <p style=""font-size:50px; font-weight:bold;""
                            >calm</p>
                            <div style=""width:240px; margin: auto;"">
                                <img src=""images/gray_30.png"" style= ""width:200px""alt=""img"">
                            </div>
                        </div>","-58","","0","images/gray_30.png","","","","calm"
"","","","","","html-slider-response","145","498533","0.0-135.0","xh5k3njecd","NaN","<div style=""width:500px;"">
                            <p style=""font-size:50px; font-weight:bold;""
                            >calm</p>
                            <div style=""width:240px; margin: auto;"">
                                <img src=""images/gray_22.png"" style= ""width:200px""alt=""img"">
                            </div>
                        </div>","36","","0","images/gray_22.png","","","","calm"
"","","","","","html-slider-response","146","502774","0.0-136.0","xh5k3njecd","NaN","<div style=""width:500px;"">
                            <p style=""font-size:50px; font-weight:bold;""
                            >calm</p>
                            <div style=""width:240px; margin: auto;"">
                                <img src=""images/gray_41.png"" style= ""width:200px""alt=""img"">
                            </div>
                        </div>","-42","","0","images/gray_41.png","","","","calm"
"","","","","","html-slider-response","147","505311","0.0-137.0","xh5k3njecd","NaN","<div style=""width:500px;"">
                            <p style=""font-size:50px; font-weight:bold;""
                            >calm</p>
                            <div style=""width:240px; margin: auto;"">
                                <img src=""images/gray_18.png"" style= ""width:200px""alt=""img"">
                            </div>
                        </div>","102","","0","images/gray_18.png","","","","calm"
"","","","","","html-slider-response","148","510096","0.0-138.0","xh5k3njecd","NaN","<div style=""width:500px;"">
                            <p style=""font-size:50px; font-weight:bold;""
                            >calm</p>
                            <div style=""width:240px; margin: auto;"">
                                <img src=""images/gray_39.png"" style= ""width:200px""alt=""img"">
                            </div>
                        </div>","102","","0","images/gray_39.png","","","","calm"
"","","","","","html-slider-response","149","532676","0.0-139.0","xh5k3njecd","NaN","<div style=""width:500px;"">
                            <p style=""font-size:50px; font-weight:bold;""
                            >calm</p>
                            <div style=""width:240px; margin: auto;"">
                                <img src=""images/gray_32.png"" style= ""width:200px""alt=""img"">
                            </div>
                        </div>","37","","0","images/gray_32.png","","","","calm"
"","","","","","html-slider-response","150","534310","0.0-140.0","xh5k3njecd","NaN","<div style=""width:500px;"">
                            <p style=""font-size:50px; font-weight:bold;""
                            >calm</p>
                            <div style=""width:240px; margin: auto;"">
                                <img src=""images/gray_16.png"" style= ""width:200px""alt=""img"">
                            </div>
                        </div>","78","","0","images/gray_16.png","","","","calm"
"","","","","","html-slider-response","151","535659","0.0-141.0","xh5k3njecd","NaN","<div style=""width:500px;"">
                            <p style=""font-size:50px; font-weight:bold;""
                            >calm</p>
                            <div style=""width:240px; margin: auto;"">
                                <img src=""images/gray_12.png"" style= ""width:200px""alt=""img"">
                            </div>
                        </div>","77","","0","images/gray_12.png","","","","calm"
"","","","","","html-slider-response","152","537130","0.0-142.0","xh5k3njecd","NaN","<div style=""width:500px;"">
                            <p style=""font-size:50px; font-weight:bold;""
                            >calm</p>
                            <div style=""width:240px; margin: auto;"">
                                <img src=""images/gray_05.png"" style= ""width:200px""alt=""img"">
                            </div>
                        </div>","74","","0","images/gray_05.png","","","","calm"
"","","","","","html-slider-response","153","538883","0.0-143.0","xh5k3njecd","NaN","<div style=""width:500px;"">
                            <p style=""font-size:50px; font-weight:bold;""
                            >calm</p>
                            <div style=""width:240px; margin: auto;"">
                                <img src=""images/gray_35.png"" style= ""width:200px""alt=""img"">
                            </div>
                        </div>","74","","0","images/gray_35.png","","","","calm"
"","","","","","html-slider-response","154","540165","0.0-144.0","xh5k3njecd","NaN","<div style=""width:500px;"">
                            <p style=""font-size:50px; font-weight:bold;""
                            >calm</p>
                            <div style=""width:240px; margin: auto;"">
                                <img src=""images/gray_09.png"" style= ""width:200px""alt=""img"">
                            </div>
                        </div>","72","","0","images/gray_09.png","","","","calm"
"","","","","","html-slider-response","155","541388","0.0-145.0","xh5k3njecd","NaN","<div style=""width:500px;"">
                            <p style=""font-size:50px; font-weight:bold;""
                            >calm</p>
                            <div style=""width:240px; margin: auto;"">
                                <img src=""images/gray_33.png"" style= ""width:200px""alt=""img"">
                            </div>
                        </div>","72","","0","images/gray_33.png","","","","calm"
"","","","","","html-slider-response","156","543873","0.0-146.0","xh5k3njecd","NaN","<div style=""width:500px;"">
                            <p style=""font-size:50px; font-weight:bold;""
                            >calm</p>
                            <div style=""width:240px; margin: auto;"">
                                <img src=""images/gray_02.png"" style= ""width:200px""alt=""img"">
                            </div>
                        </div>","67","","0","images/gray_02.png","","","","calm"
"","","","","","html-slider-response","157","545349","0.0-147.0","xh5k3njecd","NaN","<div style=""width:500px;"">
                            <p style=""font-size:50px; font-weight:bold;""
                            >calm</p>
                            <div style=""width:240px; margin: auto;"">
                                <img src=""images/gray_06.png"" style= ""width:200px""alt=""img"">
                            </div>
                        </div>","67","","0","images/gray_06.png","","","","calm"
"","","","","","html-slider-response","158","546869","0.0-148.0","xh5k3njecd","NaN","<div style=""width:500px;"">
                            <p style=""font-size:50px; font-weight:bold;""
                            >calm</p>
                            <div style=""width:240px; margin: auto;"">
                                <img src=""images/gray_15.png"" style= ""width:200px""alt=""img"">
                            </div>
                        </div>","79","","0","images/gray_15.png","","","","calm"
"","","","","","html-slider-response","159","548741","0.0-149.0","xh5k3njecd","NaN","<div style=""width:500px;"">
                            <p style=""font-size:50px; font-weight:bold;""
                            >calm</p>
                            <div style=""width:240px; margin: auto;"">
                                <img src=""images/gray_28.png"" style= ""width:200px""alt=""img"">
                            </div>
                        </div>","-18","","0","images/gray_28.png","","","","calm"
"","","","","","html-button-response","160","550570","0.0-150.0","xh5k3njecd","1311","<p>Great Job! You've finished block 3.<br></br> You have 5 block(s) left to go.<br></br></p>","0","","","","","","",""
"","","","","","html-button-response","161","554798","0.0-151.0","xh5k3njecd","4226","<p>In this block of trials, you will be asked to rate how much you associate each map with:</p > <p style = 'font-size:150%; font-weight: bold'>playful</p><br></br>","0","","","","","","",""
"","","","","","html-slider-response","162","556503","0.0-152.0","xh5k3njecd","NaN","<div style=""width:500px;"">
                            <p style=""font-size:50px; font-weight:bold;""
                            >playful</p>
                            <div style=""width:240px; margin: auto;"">
                                <img src=""images/gray_33.png"" style= ""width:200px""alt=""img"">
                            </div>
                        </div>","50","","0","images/gray_33.png","","","","playful"
"","","","","","html-slider-response","163","558815","0.0-153.0","xh5k3njecd","NaN","<div style=""width:500px;"">
                            <p style=""font-size:50px; font-weight:bold;""
                            >playful</p>
                            <div style=""width:240px; margin: auto;"">
                                <img src=""images/gray_11.png"" style= ""width:200px""alt=""img"">
                            </div>
                        </div>","-55","","0","images/gray_11.png","","","","playful"
"","","","","","html-slider-response","164","560938","0.0-154.0","xh5k3njecd","NaN","<div style=""width:500px;"">
                            <p style=""font-size:50px; font-weight:bold;""
                            >playful</p>
                            <div style=""width:240px; margin: auto;"">
                                <img src=""images/gray_27.png"" style= ""width:200px""alt=""img"">
                            </div>
                        </div>","-55","","0","images/gray_27.png","","","","playful"
"","","","","","html-slider-response","165","562774","0.0-155.0","xh5k3njecd","NaN","<div style=""width:500px;"">
                            <p style=""font-size:50px; font-weight:bold;""
                            >playful</p>
                            <div style=""width:240px; margin: auto;"">
                                <img src=""images/gray_21.png"" style= ""width:200px""alt=""img"">
                            </div>
                        </div>","86","","0","images/gray_21.png","","","","playful"
"","","","","","html-slider-response","166","564554","0.0-156.0","xh5k3njecd","NaN","<div style=""width:500px;"">
                            <p style=""font-size:50px; font-weight:bold;""
                            >playful</p>
                            <div style=""width:240px; margin: auto;"">
                                <img src=""images/gray_34.png"" style= ""width:200px""alt=""img"">
                            </div>
                        </div>","77","","0","images/gray_34.png","","","","playful"
"","","","","","html-slider-response","167","566240","0.0-157.0","xh5k3njecd","NaN","<div style=""width:500px;"">
                            <p style=""font-size:50px; font-weight:bold;""
                            >playful</p>
                            <div style=""width:240px; margin: auto;"">
                                <img src=""images/gray_13.png"" style= ""width:200px""alt=""img"">
                            </div>
                        </div>","-44","","0","images/gray_13.png","","","","playful"
"","","","","","html-slider-response","168","573640","0.0-158.0","xh5k3njecd","NaN","<div style=""width:500px;"">
                            <p style=""font-size:50px; font-weight:bold;""
                            >playful</p>
                            <div style=""width:240px; margin: auto;"">
                                <img src=""images/gray_09.png"" style= ""width:200px""alt=""img"">
                            </div>
                        </div>","-32","","0","images/gray_09.png","","","","playful"
"","","","","","html-slider-response","169","575375","0.0-159.0","xh5k3njecd","NaN","<div style=""width:500px;"">
                            <p style=""font-size:50px; font-weight:bold;""
                            >playful</p>
                            <div style=""width:240px; margin: auto;"">
                                <img src=""images/gray_06.png"" style= ""width:200px""alt=""img"">
                            </div>
                        </div>","-32","","0","images/gray_06.png","","","","playful"
"","","","","","html-slider-response","170","577360","0.0-160.0","xh5k3njecd","NaN","<div style=""width:500px;"">
                            <p style=""font-size:50px; font-weight:bold;""
                            >playful</p>
                            <div style=""width:240px; margin: auto;"">
                                <img src=""images/gray_29.png"" style= ""width:200px""alt=""img"">
                            </div>
                        </div>","54","","0","images/gray_29.png","","","","playful"
"","","","","","html-slider-response","171","579381","0.0-161.0","xh5k3njecd","NaN","<div style=""width:500px;"">
                            <p style=""font-size:50px; font-weight:bold;""
                            >playful</p>
                            <div style=""width:240px; margin: auto;"">
                                <img src=""images/gray_23.png"" style= ""width:200px""alt=""img"">
                            </div>
                        </div>","82","","0","images/gray_23.png","","","","playful"
"","","","","","html-slider-response","172","581665","0.0-162.0","xh5k3njecd","NaN","<div style=""width:500px;"">
                            <p style=""font-size:50px; font-weight:bold;""
                            >playful</p>
                            <div style=""width:240px; margin: auto;"">
                                <img src=""images/gray_15.png"" style= ""width:200px""alt=""img"">
                            </div>
                        </div>","-48","","0","images/gray_15.png","","","","playful"
"","","","","","html-slider-response","173","583503","0.0-163.0","xh5k3njecd","NaN","<div style=""width:500px;"">
                            <p style=""font-size:50px; font-weight:bold;""
                            >playful</p>
                            <div style=""width:240px; margin: auto;"">
                                <img src=""images/gray_12.png"" style= ""width:200px""alt=""img"">
                            </div>
                        </div>","-40","","0","images/gray_12.png","","","","playful"
"","","","","","html-slider-response","174","585239","0.0-164.0","xh5k3njecd","NaN","<div style=""width:500px;"">
                            <p style=""font-size:50px; font-weight:bold;""
                            >playful</p>
                            <div style=""width:240px; margin: auto;"">
                                <img src=""images/gray_07.png"" style= ""width:200px""alt=""img"">
                            </div>
                        </div>","83","","0","images/gray_07.png","","","","playful"
"","","","","","html-slider-response","175","587064","0.0-165.0","xh5k3njecd","NaN","<div style=""width:500px;"">
                            <p style=""font-size:50px; font-weight:bold;""
                            >playful</p>
                            <div style=""width:240px; margin: auto;"">
                                <img src=""images/gray_30.png"" style= ""width:200px""alt=""img"">
                            </div>
                        </div>","83","","0","images/gray_30.png","","","","playful"
"","","","","","html-slider-response","176","595924","0.0-166.0","xh5k3njecd","NaN","<div style=""width:500px;"">
                            <p style=""font-size:50px; font-weight:bold;""
                            >playful</p>
                            <div style=""width:240px; margin: auto;"">
                                <img src=""images/gray_32.png"" style= ""width:200px""alt=""img"">
                            </div>
                        </div>","83","","0","images/gray_32.png","","","","playful"
"","","","","","html-slider-response","177","598230","0.0-167.0","xh5k3njecd","NaN","<div style=""width:500px;"">
                            <p style=""font-size:50px; font-weight:bold;""
                            >playful</p>
                            <div style=""width:240px; margin: auto;"">
                                <img src=""images/gray_20.png"" style= ""width:200px""alt=""img"">
                            </div>
                        </div>","83","","0","images/gray_20.png","","","","playful"
"","","","","","html-slider-response","178","600240","0.0-168.0","xh5k3njecd","NaN","<div style=""width:500px;"">
                            <p style=""font-size:50px; font-weight:bold;""
                            >playful</p>
                            <div style=""width:240px; margin: auto;"">
                                <img src=""images/gray_25.png"" style= ""width:200px""alt=""img"">
                            </div>
                        </div>","69","","0","images/gray_25.png","","","","playful"
"","","","","","html-slider-response","179","601612","0.0-169.0","xh5k3njecd","NaN","<div style=""width:500px;"">
                            <p style=""font-size:50px; font-weight:bold;""
                            >playful</p>
                            <div style=""width:240px; margin: auto;"">
                                <img src=""images/gray_02.png"" style= ""width:200px""alt=""img"">
                            </div>
                        </div>","69","","0","images/gray_02.png","","","","playful"
"","","","","","html-slider-response","180","603261","0.0-170.0","xh5k3njecd","NaN","<div style=""width:500px;"">
                            <p style=""font-size:50px; font-weight:bold;""
                            >playful</p>
                            <div style=""width:240px; margin: auto;"">
                                <img src=""images/gray_38.png"" style= ""width:200px""alt=""img"">
                            </div>
                        </div>","71","","0","images/gray_38.png","","","","playful"
"","","","","","html-slider-response","181","604769","0.0-171.0","xh5k3njecd","NaN","<div style=""width:500px;"">
                            <p style=""font-size:50px; font-weight:bold;""
                            >playful</p>
                            <div style=""width:240px; margin: auto;"">
                                <img src=""images/gray_14.png"" style= ""width:200px""alt=""img"">
                            </div>
                        </div>","70","","0","images/gray_14.png","","","","playful"
"","","","","","html-slider-response","182","606949","0.0-172.0","xh5k3njecd","NaN","<div style=""width:500px;"">
                            <p style=""font-size:50px; font-weight:bold;""
                            >playful</p>
                            <div style=""width:240px; margin: auto;"">
                                <img src=""images/gray_40.png"" style= ""width:200px""alt=""img"">
                            </div>
                        </div>","74","","0","images/gray_40.png","","","","playful"
"","","","","","html-slider-response","183","608543","0.0-173.0","xh5k3njecd","NaN","<div style=""width:500px;"">
                            <p style=""font-size:50px; font-weight:bold;""
                            >playful</p>
                            <div style=""width:240px; margin: auto;"">
                                <img src=""images/gray_37.png"" style= ""width:200px""alt=""img"">
                            </div>
                        </div>","71","","0","images/gray_37.png","","","","playful"
"","","","","","html-slider-response","184","609997","0.0-174.0","xh5k3njecd","NaN","<div style=""width:500px;"">
                            <p style=""font-size:50px; font-weight:bold;""
                            >playful</p>
                            <div style=""width:240px; margin: auto;"">
                                <img src=""images/gray_44.png"" style= ""width:200px""alt=""img"">
                            </div>
                        </div>","66","","0","images/gray_44.png","","","","playful"
"","","","","","html-slider-response","185","611721","0.0-175.0","xh5k3njecd","NaN","<div style=""width:500px;"">
                            <p style=""font-size:50px; font-weight:bold;""
                            >playful</p>
                            <div style=""width:240px; margin: auto;"">
                                <img src=""images/gray_28.png"" style= ""width:200px""alt=""img"">
                            </div>
                        </div>","86","","0","images/gray_28.png","","","","playful"
"","","","","","html-slider-response","186","613525","0.0-176.0","xh5k3njecd","NaN","<div style=""width:500px;"">
                            <p style=""font-size:50px; font-weight:bold;""
                            >playful</p>
                            <div style=""width:240px; margin: auto;"">
                                <img src=""images/gray_18.png"" style= ""width:200px""alt=""img"">
                            </div>
                        </div>","58","","0","images/gray_18.png","","","","playful"
"","","","","","html-slider-response","187","615313","0.0-177.0","xh5k3njecd","NaN","<div style=""width:500px;"">
                            <p style=""font-size:50px; font-weight:bold;""
                            >playful</p>
                            <div style=""width:240px; margin: auto;"">
                                <img src=""images/gray_16.png"" style= ""width:200px""alt=""img"">
                            </div>
                        </div>","76","","0","images/gray_16.png","","","","playful"
"","","","","","html-slider-response","188","616631","0.0-178.0","xh5k3njecd","NaN","<div style=""width:500px;"">
                            <p style=""font-size:50px; font-weight:bold;""
                            >playful</p>
                            <div style=""width:240px; margin: auto;"">
                                <img src=""images/gray_24.png"" style= ""width:200px""alt=""img"">
                            </div>
                        </div>","74","","0","images/gray_24.png","","","","playful"
"","","","","","html-slider-response","189","617898","0.0-179.0","xh5k3njecd","NaN","<div style=""width:500px;"">
                            <p style=""font-size:50px; font-weight:bold;""
                            >playful</p>
                            <div style=""width:240px; margin: auto;"">
                                <img src=""images/gray_01.png"" style= ""width:200px""alt=""img"">
                            </div>
                        </div>","74","","0","images/gray_01.png","","","","playful"
"","","","","","html-slider-response","190","763102","0.0-180.0","xh5k3njecd","NaN","<div style=""width:500px;"">
                            <p style=""font-size:50px; font-weight:bold;""
                            >playful</p>
                            <div style=""width:240px; margin: auto;"">
                                <img src=""images/gray_41.png"" style= ""width:200px""alt=""img"">
                            </div>
                        </div>","60","","0","images/gray_41.png","","","","playful"
"","","","","","html-slider-response","191","764780","0.0-181.0","xh5k3njecd","NaN","<div style=""width:500px;"">
                            <p style=""font-size:50px; font-weight:bold;""
                            >playful</p>
                            <div style=""width:240px; margin: auto;"">
                                <img src=""images/gray_35.png"" style= ""width:200px""alt=""img"">
                            </div>
                        </div>","86","","0","images/gray_35.png","","","","playful"
"","","","","","html-slider-response","192","766076","0.0-182.0","xh5k3njecd","NaN","<div style=""width:500px;"">
                            <p style=""font-size:50px; font-weight:bold;""
                            >playful</p>
                            <div style=""width:240px; margin: auto;"">
                                <img src=""images/gray_42.png"" style= ""width:200px""alt=""img"">
                            </div>
                        </div>","86","","0","images/gray_42.png","","","","playful"
"","","","","","html-slider-response","193","767209","0.0-183.0","xh5k3njecd","NaN","<div style=""width:500px;"">
                            <p style=""font-size:50px; font-weight:bold;""
                            >playful</p>
                            <div style=""width:240px; margin: auto;"">
                                <img src=""images/gray_31.png"" style= ""width:200px""alt=""img"">
                            </div>
                        </div>","86","","0","images/gray_31.png","","","","playful"
"","","","","","html-slider-response","194","768826","0.0-184.0","xh5k3njecd","NaN","<div style=""width:500px;"">
                            <p style=""font-size:50px; font-weight:bold;""
                            >playful</p>
                            <div style=""width:240px; margin: auto;"">
                                <img src=""images/gray_10.png"" style= ""width:200px""alt=""img"">
                            </div>
                        </div>","86","","0","images/gray_10.png","","","","playful"
"","","","","","html-slider-response","195","770129","0.0-185.0","xh5k3njecd","NaN","<div style=""width:500px;"">
                            <p style=""font-size:50px; font-weight:bold;""
                            >playful</p>
                            <div style=""width:240px; margin: auto;"">
                                <img src=""images/gray_03.png"" style= ""width:200px""alt=""img"">
                            </div>
                        </div>","86","","0","images/gray_03.png","","","","playful"
"","","","","","html-slider-response","196","771442","0.0-186.0","xh5k3njecd","NaN","<div style=""width:500px;"">
                            <p style=""font-size:50px; font-weight:bold;""
                            >playful</p>
                            <div style=""width:240px; margin: auto;"">
                                <img src=""images/gray_04.png"" style= ""width:200px""alt=""img"">
                            </div>
                        </div>","86","","0","images/gray_04.png","","","","playful"
"","","","","","html-slider-response","197","772876","0.0-187.0","xh5k3njecd","NaN","<div style=""width:500px;"">
                            <p style=""font-size:50px; font-weight:bold;""
                            >playful</p>
                            <div style=""width:240px; margin: auto;"">
                                <img src=""images/gray_36.png"" style= ""width:200px""alt=""img"">
                            </div>
                        </div>","86","","0","images/gray_36.png","","","","playful"
"","","","","","html-slider-response","198","774407","0.0-188.0","xh5k3njecd","NaN","<div style=""width:500px;"">
                            <p style=""font-size:50px; font-weight:bold;""
                            >playful</p>
                            <div style=""width:240px; margin: auto;"">
                                <img src=""images/gray_19.png"" style= ""width:200px""alt=""img"">
                            </div>
                        </div>","65","","0","images/gray_19.png","","","","playful"
"","","","","","html-slider-response","199","775595","0.0-189.0","xh5k3njecd","NaN","<div style=""width:500px;"">
                            <p style=""font-size:50px; font-weight:bold;""
                            >playful</p>
                            <div style=""width:240px; margin: auto;"">
                                <img src=""images/gray_22.png"" style= ""width:200px""alt=""img"">
                            </div>
                        </div>","105","","0","images/gray_22.png","","","","playful"
"","","","","","html-slider-response","200","776829","0.0-190.0","xh5k3njecd","NaN","<div style=""width:500px;"">
                            <p style=""font-size:50px; font-weight:bold;""
                            >playful</p>
                            <div style=""width:240px; margin: auto;"">
                                <img src=""images/gray_43.png"" style= ""width:200px""alt=""img"">
                            </div>
                        </div>","73","","0","images/gray_43.png","","","","playful"
"","","","","","html-slider-response","201","778346","0.0-191.0","xh5k3njecd","NaN","<div style=""width:500px;"">
                            <p style=""font-size:50px; font-weight:bold;""
                            >playful</p>
                            <div style=""width:240px; margin: auto;"">
                                <img src=""images/gray_17.png"" style= ""width:200px""alt=""img"">
                            </div>
                        </div>","-22","","0","images/gray_17.png","","","","playful"
"","","","","","html-slider-response","202","779819","0.0-192.0","xh5k3njecd","NaN","<div style=""width:500px;"">
                            <p style=""font-size:50px; font-weight:bold;""
                            >playful</p>
