"success","timeout","failed_images","failed_audio","failed_video","trial_type","trial_index","time_elapsed","internal_node_id","subject_id","rt","stimulus","response","question_order","slider_start","image_path","practiceTrial","practiceTrialNum","correct","concept"
"true","false","[]","[]","[]","preload","0","27088","0.0-0.0","xjno2edop7","","","","","","","","","",""
"","","","","","html-button-response","1","32570","0.0-1.0","xjno2edop7","5478","Welcome to our experiment!<p>At the bottom of this screen, you will see a button that says ""Begin Experiment"".<br>Please only click that button when you are ready to complete the 25 minute experiment in one sitting.</p><p> Once you click that button, it will not be possible to restart the experiment.","0","","","","","","",""
"true","","","","","fullscreen","2","36467","0.0-2.0","xjno2edop7","2889","","","","","","","","",""
"","","","","","survey-multi-select","3","43887","0.0-3.0","xjno2edop7","7413","","{""Consent"":[""<strong>I consent</strong>""]}","[0]","","","","","",""
"","","","","","html-button-response","4","49160","0.0-4.0","xjno2edop7","5269","Welcome! <p> This experiment involves two parts: demographic information, followed by the experimental task.<p> It will take about 25 minutes to complete both parts.","0","","","","","","",""
"","","","","","survey-text","5","79160","0.0-5.0","xjno2edop7","29991","","{""Age"":""18"",""Gender"":""female"",""Race/ethnicity"":""white"",""Languages"":""english""}","","","","","","",""
"","","","","","html-slider-response","6","143399","0.0-6.0","xjno2edop7","64234","
            <div style='text-align:left; font-size:20px; line-height:25px; width: 1200px;'>
                During this experiment you will be asked to rate how much you associate maps with    different concepts.<br> Below, you can see some examples of the maps you will be asked to rate. Next to the maps
    is the list of concepts.<br>You will be asked    to rate how much you associate each map with each concept on a scale from 'not at all' to 'very much' like the
    one below. <br><br>
    Now, please look at the list of concepts and maps. For each concept, think about the map you associate 'very
    much' with the concept.<br>     When you see that map during the experiment, please rate it near the 'very much' endpoint of the
    scale.<br>Now, please think about which map you associate 'not at all'     with each concept. When you see that map during the experiment, please rate it near the 'not at all' endpoint
    of the scale.<br>
    Please use the full range of the scale. That is, if a map is somewhat associated with the concept, you would
    click partway between the middle point and right side of the scale.    You will be asked to rate each map for a given concept before moving on to the next concept.<br><br>Press the
    'Continue' button for instructions on how to use the slider.    <br><br>
</div>

<div style=""width: 500px; margin: 0 auto;"">
    <div style=""text-align: left; width: 200px; float: left;"">
        <p style=""font-size:25px; line-height:18px;"">calm</p>
        <p style=""font-size:25px; line-height:18px;"">exciting</p>
        <p style=""font-size:25px;line-height:18px;"">positive</p>
        <p style=""font-size:25px;line-height:18px;"">negative</p>
        <p style=""font-size:25px;line-height:18px;"">serious</p>
        <p style=""font-size:25px;line-height:18px;"">playful</p>
        <p style=""font-size:25px;line-height:18px;"">trustworthy</p>
        <p style=""font-size:25px;line-height:18px;"">disturbing</p>
    </div>
    <div style=""width: 200px; float: right; padding-top:15px; padding-right:40px"">
        <br>
        <br>
        <img src=""maps_anchoring.png"" alt=""img"" style=""max-width:500px"">
    </div>
    <div style=""clear: both;""></div>
</div>
            ","138","","0","maps_anchoring.png","true","","",""
"","","","","","html-button-response","7","165989","0.0-7.0","xjno2edop7","22587","<div style=""width:800px;""><p style=""text-align:left"">To move the slider, click and drag your cursor to the location of the scale where you would like to make your rating and then let go. When you let go of the slider, your response will be recorded and the next trial will begin. <br>
            We are interested in your initial impressions of each map for the given concept, so please go with your first intuition. <br>
            Before you begin the experiment, there will be four training trials for you to practice using the scale. <br>
             When you are ready to start the training trials, please click ""Continue"".</p><br></div>","0","","","","","","",""
"","","","","","html-slider-response","8","169666","0.0-8.0-0.0","xjno2edop7","NaN","<div style=""width:500px;"">
                            <p style=""font-size:25px;"">Please move the slider all the way to the <br> right endpoint of the scale</p>

                            </div>
                        </div>","200","","0","","true","0","true",""
"","","","","","html-button-response","9","171597","0.0-8.0-1.0","xjno2edop7","1420","<p align='center'><b>Good job!</b> Click on 'Continue' to proceed.</p>","0","","","","","","",""
"","","","","","html-slider-response","10","174080","0.0-9.0-0.0","xjno2edop7","NaN","<div style=""width:500px;"">
                            <p style=""font-size:25px;"">Please move the slider all the way to the <br> left endpoint of the scale</p>

                            </div>
                        </div>","-200","","0","","true","1","true",""
"","","","","","html-button-response","11","175939","0.0-9.0-1.0","xjno2edop7","1345","<p align='center'><b>Good job!</b> Click on 'Continue' to proceed.</p>","0","","","","","","",""
"","","","","","html-slider-response","12","179849","0.0-10.0-0.0","xjno2edop7","NaN","<div style=""width:500px;"">
                            <p style=""font-size:25px;"">Please move the slider halfway between the center and right endpoint of the scale</p>

                            </div>
                        </div>","98","","0","","true","2","true",""
"","","","","","html-button-response","13","181457","0.0-10.0-1.0","xjno2edop7","1097","<p align='center'><b>Good job!</b> Click on 'Continue' to proceed.</p>","0","","","","","","",""
"","","","","","html-slider-response","14","185142","0.0-11.0-0.0","xjno2edop7","NaN","<div style=""width:500px;"">
                            <p style=""font-size:25px;"">Please move the slider halfway between the center and left endpoint of the scale</p>

                            </div>
                        </div>","-107","","0","","true","3","true",""
"","","","","","html-button-response","15","186537","0.0-11.0-1.0","xjno2edop7","879","<p align='center'><b>Good job!</b> Click on 'Continue' to proceed.</p>","0","","","","","","",""
"","","","","","html-button-response","16","188323","0.0-12.0","xjno2edop7","1785","<p>Great job! You've completed the practice trials. Now you will begin the main task.</p>","0","","","","","","",""
"","","","","","html-button-response","17","192918","0.0-13.0","xjno2edop7","4594","<p>In this block of trials, you will be asked to rate how much you associate each map with:</p > <p style = 'font-size:150%; font-weight: bold'>disturbing</p><br></br>","0","","","","","","",""
"","","","","","html-slider-response","18","196821","0.0-14.0","xjno2edop7","NaN","<div style=""width:500px;"">
                            <p style=""font-size:50px; font-weight:bold;""
                            >disturbing</p>
                            <div style=""width:240px; margin: auto;"">
                                <img src=""images/gray_38.png"" style= ""width:200px""alt=""img"">
                            </div>
                        </div>","-200","","0","images/gray_38.png","","","","disturbing"
"","","","","","html-slider-response","19","201272","0.0-15.0","xjno2edop7","NaN","<div style=""width:500px;"">
                            <p style=""font-size:50px; font-weight:bold;""
                            >disturbing</p>
                            <div style=""width:240px; margin: auto;"">
                                <img src=""images/gray_33.png"" style= ""width:200px""alt=""img"">
                            </div>
                        </div>","-158","","0","images/gray_33.png","","","","disturbing"
"","","","","","html-slider-response","20","208653","0.0-16.0","xjno2edop7","NaN","<div style=""width:500px;"">
                            <p style=""font-size:50px; font-weight:bold;""
                            >disturbing</p>
                            <div style=""width:240px; margin: auto;"">
                                <img src=""images/gray_08.png"" style= ""width:200px""alt=""img"">
                            </div>
                        </div>","-200","","0","images/gray_08.png","","","","disturbing"
"","","","","","html-slider-response","21","214876","0.0-17.0","xjno2edop7","NaN","<div style=""width:500px;"">
                            <p style=""font-size:50px; font-weight:bold;""
                            >disturbing</p>
                            <div style=""width:240px; margin: auto;"">
                                <img src=""images/gray_03.png"" style= ""width:200px""alt=""img"">
                            </div>
                        </div>","-165","","0","images/gray_03.png","","","","disturbing"
"","","","","","html-slider-response","22","219617","0.0-18.0","xjno2edop7","NaN","<div style=""width:500px;"">
                            <p style=""font-size:50px; font-weight:bold;""
                            >disturbing</p>
                            <div style=""width:240px; margin: auto;"">
                                <img src=""images/gray_30.png"" style= ""width:200px""alt=""img"">
                            </div>
                        </div>","-82","","0","images/gray_30.png","","","","disturbing"
"","","","","","html-slider-response","23","222481","0.0-19.0","xjno2edop7","NaN","<div style=""width:500px;"">
                            <p style=""font-size:50px; font-weight:bold;""
                            >disturbing</p>
                            <div style=""width:240px; margin: auto;"">
                                <img src=""images/gray_43.png"" style= ""width:200px""alt=""img"">
                            </div>
                        </div>","-166","","0","images/gray_43.png","","","","disturbing"
"","","","","","html-slider-response","24","224998","0.0-20.0","xjno2edop7","NaN","<div style=""width:500px;"">
                            <p style=""font-size:50px; font-weight:bold;""
                            >disturbing</p>
                            <div style=""width:240px; margin: auto;"">
                                <img src=""images/gray_35.png"" style= ""width:200px""alt=""img"">
                            </div>
                        </div>","-200","","0","images/gray_35.png","","","","disturbing"
"","","","","","html-slider-response","25","227264","0.0-21.0","xjno2edop7","NaN","<div style=""width:500px;"">
                            <p style=""font-size:50px; font-weight:bold;""
                            >disturbing</p>
                            <div style=""width:240px; margin: auto;"">
                                <img src=""images/gray_25.png"" style= ""width:200px""alt=""img"">
                            </div>
                        </div>","-200","","0","images/gray_25.png","","","","disturbing"
"","","","","","html-slider-response","26","230654","0.0-22.0","xjno2edop7","NaN","<div style=""width:500px;"">
                            <p style=""font-size:50px; font-weight:bold;""
                            >disturbing</p>
                            <div style=""width:240px; margin: auto;"">
                                <img src=""images/gray_27.png"" style= ""width:200px""alt=""img"">
                            </div>
                        </div>","-37","","0","images/gray_27.png","","","","disturbing"
"","","","","","html-slider-response","27","235972","0.0-23.0","xjno2edop7","NaN","<div style=""width:500px;"">
                            <p style=""font-size:50px; font-weight:bold;""
                            >disturbing</p>
                            <div style=""width:240px; margin: auto;"">
                                <img src=""images/gray_29.png"" style= ""width:200px""alt=""img"">
                            </div>
                        </div>","-102","","0","images/gray_29.png","","","","disturbing"
"","","","","","html-slider-response","28","238642","0.0-24.0","xjno2edop7","NaN","<div style=""width:500px;"">
                            <p style=""font-size:50px; font-weight:bold;""
                            >disturbing</p>
                            <div style=""width:240px; margin: auto;"">
                                <img src=""images/gray_02.png"" style= ""width:200px""alt=""img"">
                            </div>
                        </div>","-45","","0","images/gray_02.png","","","","disturbing"
"","","","","","html-slider-response","29","241425","0.0-25.0","xjno2edop7","NaN","<div style=""width:500px;"">
                            <p style=""font-size:50px; font-weight:bold;""
                            >disturbing</p>
                            <div style=""width:240px; margin: auto;"">
                                <img src=""images/gray_42.png"" style= ""width:200px""alt=""img"">
                            </div>
                        </div>","-120","","0","images/gray_42.png","","","","disturbing"
"","","","","","html-slider-response","30","244109","0.0-26.0","xjno2edop7","NaN","<div style=""width:500px;"">
                            <p style=""font-size:50px; font-weight:bold;""
                            >disturbing</p>
                            <div style=""width:240px; margin: auto;"">
                                <img src=""images/gray_05.png"" style= ""width:200px""alt=""img"">
                            </div>
                        </div>","20","","0","images/gray_05.png","","","","disturbing"
"","","","","","html-slider-response","31","246740","0.0-27.0","xjno2edop7","NaN","<div style=""width:500px;"">
                            <p style=""font-size:50px; font-weight:bold;""
                            >disturbing</p>
                            <div style=""width:240px; margin: auto;"">
                                <img src=""images/gray_44.png"" style= ""width:200px""alt=""img"">
                            </div>
                        </div>","22","","0","images/gray_44.png","","","","disturbing"
"","","","","","html-slider-response","32","249560","0.0-28.0","xjno2edop7","NaN","<div style=""width:500px;"">
                            <p style=""font-size:50px; font-weight:bold;""
                            >disturbing</p>
                            <div style=""width:240px; margin: auto;"">
                                <img src=""images/gray_34.png"" style= ""width:200px""alt=""img"">
                            </div>
                        </div>","-104","","0","images/gray_34.png","","","","disturbing"
"","","","","","html-slider-response","33","251822","0.0-29.0","xjno2edop7","NaN","<div style=""width:500px;"">
                            <p style=""font-size:50px; font-weight:bold;""
                            >disturbing</p>
                            <div style=""width:240px; margin: auto;"">
                                <img src=""images/gray_09.png"" style= ""width:200px""alt=""img"">
                            </div>
                        </div>","-39","","0","images/gray_09.png","","","","disturbing"
"","","","","","html-slider-response","34","257850","0.0-30.0","xjno2edop7","NaN","<div style=""width:500px;"">
                            <p style=""font-size:50px; font-weight:bold;""
                            >disturbing</p>
                            <div style=""width:240px; margin: auto;"">
                                <img src=""images/gray_36.png"" style= ""width:200px""alt=""img"">
                            </div>
                        </div>","38","","0","images/gray_36.png","","","","disturbing"
"","","","","","html-slider-response","35","260306","0.0-31.0","xjno2edop7","NaN","<div style=""width:500px;"">
                            <p style=""font-size:50px; font-weight:bold;""
                            >disturbing</p>
                            <div style=""width:240px; margin: auto;"">
                                <img src=""images/gray_32.png"" style= ""width:200px""alt=""img"">
                            </div>
                        </div>","-65","","0","images/gray_32.png","","","","disturbing"
"","","","","","html-slider-response","36","263854","0.0-32.0","xjno2edop7","NaN","<div style=""width:500px;"">
                            <p style=""font-size:50px; font-weight:bold;""
                            >disturbing</p>
                            <div style=""width:240px; margin: auto;"">
                                <img src=""images/gray_18.png"" style= ""width:200px""alt=""img"">
                            </div>
                        </div>","-149","","0","images/gray_18.png","","","","disturbing"
"","","","","","html-slider-response","37","267454","0.0-33.0","xjno2edop7","NaN","<div style=""width:500px;"">
                            <p style=""font-size:50px; font-weight:bold;""
                            >disturbing</p>
                            <div style=""width:240px; margin: auto;"">
                                <img src=""images/gray_21.png"" style= ""width:200px""alt=""img"">
                            </div>
                        </div>","58","","0","images/gray_21.png","","","","disturbing"
"","","","","","html-slider-response","38","270010","0.0-34.0","xjno2edop7","NaN","<div style=""width:500px;"">
                            <p style=""font-size:50px; font-weight:bold;""
                            >disturbing</p>
                            <div style=""width:240px; margin: auto;"">
                                <img src=""images/gray_15.png"" style= ""width:200px""alt=""img"">
                            </div>
                        </div>","-165","","0","images/gray_15.png","","","","disturbing"
"","","","","","html-slider-response","39","272417","0.0-35.0","xjno2edop7","NaN","<div style=""width:500px;"">
                            <p style=""font-size:50px; font-weight:bold;""
                            >disturbing</p>
                            <div style=""width:240px; margin: auto;"">
                                <img src=""images/gray_22.png"" style= ""width:200px""alt=""img"">
                            </div>
                        </div>","-126","","0","images/gray_22.png","","","","disturbing"
"","","","","","html-slider-response","40","274746","0.0-36.0","xjno2edop7","NaN","<div style=""width:500px;"">
                            <p style=""font-size:50px; font-weight:bold;""
                            >disturbing</p>
                            <div style=""width:240px; margin: auto;"">
                                <img src=""images/gray_31.png"" style= ""width:200px""alt=""img"">
                            </div>
                        </div>","68","","0","images/gray_31.png","","","","disturbing"
"","","","","","html-slider-response","41","276538","0.0-37.0","xjno2edop7","NaN","<div style=""width:500px;"">
                            <p style=""font-size:50px; font-weight:bold;""
                            >disturbing</p>
                            <div style=""width:240px; margin: auto;"">
                                <img src=""images/gray_17.png"" style= ""width:200px""alt=""img"">
                            </div>
                        </div>","-128","","0","images/gray_17.png","","","","disturbing"
"","","","","","html-slider-response","42","279933","0.0-38.0","xjno2edop7","NaN","<div style=""width:500px;"">
                            <p style=""font-size:50px; font-weight:bold;""
                            >disturbing</p>
                            <div style=""width:240px; margin: auto;"">
                                <img src=""images/gray_41.png"" style= ""width:200px""alt=""img"">
                            </div>
                        </div>","-39","","0","images/gray_41.png","","","","disturbing"
"","","","","","html-slider-response","43","281631","0.0-39.0","xjno2edop7","NaN","<div style=""width:500px;"">
                            <p style=""font-size:50px; font-weight:bold;""
                            >disturbing</p>
                            <div style=""width:240px; margin: auto;"">
                                <img src=""images/gray_40.png"" style= ""width:200px""alt=""img"">
                            </div>
                        </div>","-58","","0","images/gray_40.png","","","","disturbing"
"","","","","","html-slider-response","44","284198","0.0-40.0","xjno2edop7","NaN","<div style=""width:500px;"">
                            <p style=""font-size:50px; font-weight:bold;""
                            >disturbing</p>
                            <div style=""width:240px; margin: auto;"">
                                <img src=""images/gray_07.png"" style= ""width:200px""alt=""img"">
                            </div>
                        </div>","112","","0","images/gray_07.png","","","","disturbing"
"","","","","","html-slider-response","45","286695","0.0-41.0","xjno2edop7","NaN","<div style=""width:500px;"">
                            <p style=""font-size:50px; font-weight:bold;""
                            >disturbing</p>
                            <div style=""width:240px; margin: auto;"">
                                <img src=""images/gray_04.png"" style= ""width:200px""alt=""img"">
                            </div>
                        </div>","16","","0","images/gray_04.png","","","","disturbing"
"","","","","","html-slider-response","46","289238","0.0-42.0","xjno2edop7","NaN","<div style=""width:500px;"">
                            <p style=""font-size:50px; font-weight:bold;""
                            >disturbing</p>
                            <div style=""width:240px; margin: auto;"">
                                <img src=""images/gray_12.png"" style= ""width:200px""alt=""img"">
                            </div>
                        </div>","-64","","0","images/gray_12.png","","","","disturbing"
"","","","","","html-slider-response","47","292888","0.0-43.0","xjno2edop7","NaN","<div style=""width:500px;"">
                            <p style=""font-size:50px; font-weight:bold;""
                            >disturbing</p>
                            <div style=""width:240px; margin: auto;"">
                                <img src=""images/gray_16.png"" style= ""width:200px""alt=""img"">
                            </div>
                        </div>","-7","","0","images/gray_16.png","","","","disturbing"
"","","","","","html-slider-response","48","295219","0.0-44.0","xjno2edop7","NaN","<div style=""width:500px;"">
                            <p style=""font-size:50px; font-weight:bold;""
                            >disturbing</p>
                            <div style=""width:240px; margin: auto;"">
                                <img src=""images/gray_01.png"" style= ""width:200px""alt=""img"">
                            </div>
                        </div>","30","","0","images/gray_01.png","","","","disturbing"
"","","","","","html-slider-response","49","297950","0.0-45.0","xjno2edop7","NaN","<div style=""width:500px;"">
                            <p style=""font-size:50px; font-weight:bold;""
                            >disturbing</p>
                            <div style=""width:240px; margin: auto;"">
                                <img src=""images/gray_20.png"" style= ""width:200px""alt=""img"">
                            </div>
                        </div>","66","","0","images/gray_20.png","","","","disturbing"
"","","","","","html-slider-response","50","301563","0.0-46.0","xjno2edop7","NaN","<div style=""width:500px;"">
                            <p style=""font-size:50px; font-weight:bold;""
                            >disturbing</p>
                            <div style=""width:240px; margin: auto;"">
                                <img src=""images/gray_14.png"" style= ""width:200px""alt=""img"">
                            </div>
                        </div>","66","","0","images/gray_14.png","","","","disturbing"
"","","","","","html-slider-response","51","303584","0.0-47.0","xjno2edop7","NaN","<div style=""width:500px;"">
                            <p style=""font-size:50px; font-weight:bold;""
                            >disturbing</p>
                            <div style=""width:240px; margin: auto;"">
                                <img src=""images/gray_19.png"" style= ""width:200px""alt=""img"">
                            </div>
                        </div>","17","","0","images/gray_19.png","","","","disturbing"
"","","","","","html-slider-response","52","306721","0.0-48.0","xjno2edop7","NaN","<div style=""width:500px;"">
                            <p style=""font-size:50px; font-weight:bold;""
                            >disturbing</p>
                            <div style=""width:240px; margin: auto;"">
                                <img src=""images/gray_13.png"" style= ""width:200px""alt=""img"">
                            </div>
                        </div>","-23","","0","images/gray_13.png","","","","disturbing"
"","","","","","html-slider-response","53","309551","0.0-49.0","xjno2edop7","NaN","<div style=""width:500px;"">
                            <p style=""font-size:50px; font-weight:bold;""
                            >disturbing</p>
                            <div style=""width:240px; margin: auto;"">
                                <img src=""images/gray_24.png"" style= ""width:200px""alt=""img"">
                            </div>
                        </div>","29","","0","images/gray_24.png","","","","disturbing"
"","","","","","html-slider-response","54","313144","0.0-50.0","xjno2edop7","NaN","<div style=""width:500px;"">
                            <p style=""font-size:50px; font-weight:bold;""
                            >disturbing</p>
                            <div style=""width:240px; margin: auto;"">
                                <img src=""images/gray_37.png"" style= ""width:200px""alt=""img"">
                            </div>
                        </div>","9","","0","images/gray_37.png","","","","disturbing"
"","","","","","html-slider-response","55","316906","0.0-51.0","xjno2edop7","NaN","<div style=""width:500px;"">
                            <p style=""font-size:50px; font-weight:bold;""
                            >disturbing</p>
                            <div style=""width:240px; margin: auto;"">
                                <img src=""images/gray_26.png"" style= ""width:200px""alt=""img"">
                            </div>
                        </div>","12","","0","images/gray_26.png","","","","disturbing"
"","","","","","html-slider-response","56","319764","0.0-52.0","xjno2edop7","NaN","<div style=""width:500px;"">
                            <p style=""font-size:50px; font-weight:bold;""
                            >disturbing</p>
                            <div style=""width:240px; margin: auto;"">
                                <img src=""images/gray_28.png"" style= ""width:200px""alt=""img"">
                            </div>
                        </div>","142","","0","images/gray_28.png","","","","disturbing"
"","","","","","html-slider-response","57","321977","0.0-53.0","xjno2edop7","NaN","<div style=""width:500px;"">
                            <p style=""font-size:50px; font-weight:bold;""
                            >disturbing</p>
                            <div style=""width:240px; margin: auto;"">
                                <img src=""images/gray_11.png"" style= ""width:200px""alt=""img"">
                            </div>
                        </div>","86","","0","images/gray_11.png","","","","disturbing"
"","","","","","html-slider-response","58","324306","0.0-54.0","xjno2edop7","NaN","<div style=""width:500px;"">
                            <p style=""font-size:50px; font-weight:bold;""
                            >disturbing</p>
                            <div style=""width:240px; margin: auto;"">
                                <img src=""images/gray_39.png"" style= ""width:200px""alt=""img"">
                            </div>
                        </div>","-123","","0","images/gray_39.png","","","","disturbing"
"","","","","","html-slider-response","59","326082","0.0-55.0","xjno2edop7","NaN","<div style=""width:500px;"">
                            <p style=""font-size:50px; font-weight:bold;""
                            >disturbing</p>
                            <div style=""width:240px; margin: auto;"">
                                <img src=""images/gray_23.png"" style= ""width:200px""alt=""img"">
                            </div>
                        </div>","-81","","0","images/gray_23.png","","","","disturbing"
"","","","","","html-slider-response","60","328819","0.0-56.0","xjno2edop7","NaN","<div style=""width:500px;"">
                            <p style=""font-size:50px; font-weight:bold;""
                            >disturbing</p>
                            <div style=""width:240px; margin: auto;"">
                                <img src=""images/gray_06.png"" style= ""width:200px""alt=""img"">
                            </div>
                        </div>","-11","","0","images/gray_06.png","","","","disturbing"
"","","","","","html-slider-response","61","331807","0.0-57.0","xjno2edop7","NaN","<div style=""width:500px;"">
                            <p style=""font-size:50px; font-weight:bold;""
                            >disturbing</p>
                            <div style=""width:240px; margin: auto;"">
                                <img src=""images/gray_10.png"" style= ""width:200px""alt=""img"">
                            </div>
                        </div>","25","","0","images/gray_10.png","","","","disturbing"
"","","","","","html-button-response","62","335468","0.0-58.0","xjno2edop7","3155","<p>Great Job! You've finished block 1.<br></br> You have 7 block(s) left to go.<br></br></p>","0","","","","","","",""
"","","","","","html-button-response","63","339038","0.0-59.0","xjno2edop7","3566","<p>In this block of trials, you will be asked to rate how much you associate each map with:</p > <p style = 'font-size:150%; font-weight: bold'>negative</p><br></br>","0","","","","","","",""
"","","","","","html-slider-response","64","347041","0.0-60.0","xjno2edop7","NaN","<div style=""width:500px;"">
                            <p style=""font-size:50px; font-weight:bold;""
                            >negative</p>
                            <div style=""width:240px; margin: auto;"">
                                <img src=""images/gray_05.png"" style= ""width:200px""alt=""img"">
                            </div>
                        </div>","10","","0","images/gray_05.png","","","","negative"
"","","","","","html-slider-response","65","351195","0.0-61.0","xjno2edop7","NaN","<div style=""width:500px;"">
                            <p style=""font-size:50px; font-weight:bold;""
                            >negative</p>
                            <div style=""width:240px; margin: auto;"">
                                <img src=""images/gray_01.png"" style= ""width:200px""alt=""img"">
                            </div>
                        </div>","-14","","0","images/gray_01.png","","","","negative"
"","","","","","html-slider-response","66","357357","0.0-62.0","xjno2edop7","NaN","<div style=""width:500px;"">
                            <p style=""font-size:50px; font-weight:bold;""
                            >negative</p>
                            <div style=""width:240px; margin: auto;"">
                                <img src=""images/gray_09.png"" style= ""width:200px""alt=""img"">
                            </div>
                        </div>","10","","0","images/gray_09.png","","","","negative"
"","","","","","html-slider-response","67","360074","0.0-63.0","xjno2edop7","NaN","<div style=""width:500px;"">
                            <p style=""font-size:50px; font-weight:bold;""
                            >negative</p>
                            <div style=""width:240px; margin: auto;"">
                                <img src=""images/gray_35.png"" style= ""width:200px""alt=""img"">
                            </div>
                        </div>","11","","0","images/gray_35.png","","","","negative"
"","","","","","html-slider-response","68","364329","0.0-64.0","xjno2edop7","NaN","<div style=""width:500px;"">
                            <p style=""font-size:50px; font-weight:bold;""
                            >negative</p>
                            <div style=""width:240px; margin: auto;"">
                                <img src=""images/gray_18.png"" style= ""width:200px""alt=""img"">
                            </div>
                        </div>","-108","","0","images/gray_18.png","","","","negative"
"","","","","","html-slider-response","69","366587","0.0-65.0","xjno2edop7","NaN","<div style=""width:500px;"">
                            <p style=""font-size:50px; font-weight:bold;""
                            >negative</p>
                            <div style=""width:240px; margin: auto;"">
                                <img src=""images/gray_17.png"" style= ""width:200px""alt=""img"">
                            </div>
                        </div>","26","","0","images/gray_17.png","","","","negative"
"","","","","","html-slider-response","70","369378","0.0-66.0","xjno2edop7","NaN","<div style=""width:500px;"">
                            <p style=""font-size:50px; font-weight:bold;""
                            >negative</p>
                            <div style=""width:240px; margin: auto;"">
                                <img src=""images/gray_24.png"" style= ""width:200px""alt=""img"">
                            </div>
                        </div>","-18","","0","images/gray_24.png","","","","negative"
"","","","","","html-slider-response","71","371372","0.0-67.0","xjno2edop7","NaN","<div style=""width:500px;"">
                            <p style=""font-size:50px; font-weight:bold;""
                            >negative</p>
                            <div style=""width:240px; margin: auto;"">
                                <img src=""images/gray_28.png"" style= ""width:200px""alt=""img"">
                            </div>
                        </div>","102","","0","images/gray_28.png","","","","negative"
"","","","","","html-slider-response","72","376428","0.0-68.0","xjno2edop7","NaN","<div style=""width:500px;"">
                            <p style=""font-size:50px; font-weight:bold;""
                            >negative</p>
                            <div style=""width:240px; margin: auto;"">
                                <img src=""images/gray_07.png"" style= ""width:200px""alt=""img"">
                            </div>
                        </div>","133","","0","images/gray_07.png","","","","negative"
"","","","","","html-slider-response","73","378510","0.0-69.0","xjno2edop7","NaN","<div style=""width:500px;"">
                            <p style=""font-size:50px; font-weight:bold;""
                            >negative</p>
                            <div style=""width:240px; margin: auto;"">
                                <img src=""images/gray_39.png"" style= ""width:200px""alt=""img"">
                            </div>
                        </div>","-110","","0","images/gray_39.png","","","","negative"
"","","","","","html-slider-response","74","382641","0.0-70.0","xjno2edop7","NaN","<div style=""width:500px;"">
                            <p style=""font-size:50px; font-weight:bold;""
                            >negative</p>
                            <div style=""width:240px; margin: auto;"">
                                <img src=""images/gray_37.png"" style= ""width:200px""alt=""img"">
                            </div>
                        </div>","29","","0","images/gray_37.png","","","","negative"
"","","","","","html-slider-response","75","384566","0.0-71.0","xjno2edop7","NaN","<div style=""width:500px;"">
                            <p style=""font-size:50px; font-weight:bold;""
                            >negative</p>
                            <div style=""width:240px; margin: auto;"">
                                <img src=""images/gray_13.png"" style= ""width:200px""alt=""img"">
                            </div>
                        </div>","59","","0","images/gray_13.png","","","","negative"
"","","","","","html-slider-response","76","387596","0.0-72.0","xjno2edop7","NaN","<div style=""width:500px;"">
                            <p style=""font-size:50px; font-weight:bold;""
                            >negative</p>
                            <div style=""width:240px; margin: auto;"">
                                <img src=""images/gray_27.png"" style= ""width:200px""alt=""img"">
                            </div>
                        </div>","187","","0","images/gray_27.png","","","","negative"
"","","","","","html-slider-response","77","389416","0.0-73.0","xjno2edop7","NaN","<div style=""width:500px;"">
                            <p style=""font-size:50px; font-weight:bold;""
                            >negative</p>
                            <div style=""width:240px; margin: auto;"">
                                <img src=""images/gray_20.png"" style= ""width:200px""alt=""img"">
                            </div>
                        </div>","154","","0","images/gray_20.png","","","","negative"
"","","","","","html-slider-response","78","391371","0.0-74.0","xjno2edop7","NaN","<div style=""width:500px;"">
                            <p style=""font-size:50px; font-weight:bold;""
                            >negative</p>
                            <div style=""width:240px; margin: auto;"">
                                <img src=""images/gray_14.png"" style= ""width:200px""alt=""img"">
                            </div>
                        </div>","170","","0","images/gray_14.png","","","","negative"
"","","","","","html-slider-response","79","394641","0.0-75.0","xjno2edop7","NaN","<div style=""width:500px;"">
                            <p style=""font-size:50px; font-weight:bold;""
                            >negative</p>
                            <div style=""width:240px; margin: auto;"">
                                <img src=""images/gray_42.png"" style= ""width:200px""alt=""img"">
                            </div>
                        </div>","-140","","0","images/gray_42.png","","","","negative"
"","","","","","html-slider-response","80","396875","0.0-76.0","xjno2edop7","NaN","<div style=""width:500px;"">
                            <p style=""font-size:50px; font-weight:bold;""
                            >negative</p>
                            <div style=""width:240px; margin: auto;"">
                                <img src=""images/gray_31.png"" style= ""width:200px""alt=""img"">
                            </div>
                        </div>","-200","","0","images/gray_31.png","","","","negative"
"","","","","","html-slider-response","81","399656","0.0-77.0","xjno2edop7","NaN","<div style=""width:500px;"">
                            <p style=""font-size:50px; font-weight:bold;""
                            >negative</p>
                            <div style=""width:240px; margin: auto;"">
                                <img src=""images/gray_36.png"" style= ""width:200px""alt=""img"">
                            </div>
                        </div>","-31","","0","images/gray_36.png","","","","negative"
"","","","","","html-slider-response","82","401797","0.0-78.0","xjno2edop7","NaN","<div style=""width:500px;"">
                            <p style=""font-size:50px; font-weight:bold;""
                            >negative</p>
                            <div style=""width:240px; margin: auto;"">
                                <img src=""images/gray_16.png"" style= ""width:200px""alt=""img"">
                            </div>
                        </div>","-48","","0","images/gray_16.png","","","","negative"
"","","","","","html-slider-response","83","409699","0.0-79.0","xjno2edop7","NaN","<div style=""width:500px;"">
                            <p style=""font-size:50px; font-weight:bold;""
                            >negative</p>
                            <div style=""width:240px; margin: auto;"">
                                <img src=""images/gray_25.png"" style= ""width:200px""alt=""img"">
                            </div>
                        </div>","-128","","0","images/gray_25.png","","","","negative"
"","","","","","html-slider-response","84","412038","0.0-80.0","xjno2edop7","NaN","<div style=""width:500px;"">
                            <p style=""font-size:50px; font-weight:bold;""
                            >negative</p>
                            <div style=""width:240px; margin: auto;"">
                                <img src=""images/gray_33.png"" style= ""width:200px""alt=""img"">
                            </div>
                        </div>","146","","0","images/gray_33.png","","","","negative"
"","","","","","html-slider-response","85","414975","0.0-81.0","xjno2edop7","NaN","<div style=""width:500px;"">
                            <p style=""font-size:50px; font-weight:bold;""
                            >negative</p>
                            <div style=""width:240px; margin: auto;"">
                                <img src=""images/gray_12.png"" style= ""width:200px""alt=""img"">
                            </div>
                        </div>","-65","","0","images/gray_12.png","","","","negative"
"","","","","","html-slider-response","86","417369","0.0-82.0","xjno2edop7","NaN","<div style=""width:500px;"">
                            <p style=""font-size:50px; font-weight:bold;""
                            >negative</p>
                            <div style=""width:240px; margin: auto;"">
                                <img src=""images/gray_38.png"" style= ""width:200px""alt=""img"">
                            </div>
                        </div>","24","","0","images/gray_38.png","","","","negative"
"","","","","","html-slider-response","87","420744","0.0-83.0","xjno2edop7","NaN","<div style=""width:500px;"">
                            <p style=""font-size:50px; font-weight:bold;""
                            >negative</p>
                            <div style=""width:240px; margin: auto;"">
                                <img src=""images/gray_06.png"" style= ""width:200px""alt=""img"">
                            </div>
                        </div>","74","","0","images/gray_06.png","","","","negative"
"","","","","","html-slider-response","88","422998","0.0-84.0","xjno2edop7","NaN","<div style=""width:500px;"">
                            <p style=""font-size:50px; font-weight:bold;""
                            >negative</p>
                            <div style=""width:240px; margin: auto;"">
                                <img src=""images/gray_04.png"" style= ""width:200px""alt=""img"">
                            </div>
                        </div>","-65","","0","images/gray_04.png","","","","negative"
"","","","","","html-slider-response","89","426375","0.0-85.0","xjno2edop7","NaN","<div style=""width:500px;"">
                            <p style=""font-size:50px; font-weight:bold;""
                            >negative</p>
                            <div style=""width:240px; margin: auto;"">
                                <img src=""images/gray_15.png"" style= ""width:200px""alt=""img"">
                            </div>
                        </div>","-200","","0","images/gray_15.png","","","","negative"
"","","","","","html-slider-response","90","429411","0.0-86.0","xjno2edop7","NaN","<div style=""width:500px;"">
                            <p style=""font-size:50px; font-weight:bold;""
                            >negative</p>
                            <div style=""width:240px; margin: auto;"">
                                <img src=""images/gray_29.png"" style= ""width:200px""alt=""img"">
                            </div>
                        </div>","147","","0","images/gray_29.png","","","","negative"
"","","","","","html-slider-response","91","431189","0.0-87.0","xjno2edop7","NaN","<div style=""width:500px;"">
                            <p style=""font-size:50px; font-weight:bold;""
                            >negative</p>
                            <div style=""width:240px; margin: auto;"">
                                <img src=""images/gray_34.png"" style= ""width:200px""alt=""img"">
                            </div>
                        </div>","88","","0","images/gray_34.png","","","","negative"
"","","","","","html-slider-response","92","432635","0.0-88.0","xjno2edop7","NaN","<div style=""width:500px;"">
                            <p style=""font-size:50px; font-weight:bold;""
                            >negative</p>
                            <div style=""width:240px; margin: auto;"">
                                <img src=""images/gray_22.png"" style= ""width:200px""alt=""img"">
                            </div>
                        </div>","59","","0","images/gray_22.png","","","","negative"
"","","","","","html-slider-response","93","434334","0.0-89.0","xjno2edop7","NaN","<div style=""width:500px;"">
                            <p style=""font-size:50px; font-weight:bold;""
                            >negative</p>
                            <div style=""width:240px; margin: auto;"">
                                <img src=""images/gray_02.png"" style= ""width:200px""alt=""img"">
                            </div>
                        </div>","160","","0","images/gray_02.png","","","","negative"
"","","","","","html-slider-response","94","436235","0.0-90.0","xjno2edop7","NaN","<div style=""width:500px;"">
                            <p style=""font-size:50px; font-weight:bold;""
                            >negative</p>
                            <div style=""width:240px; margin: auto;"">
                                <img src=""images/gray_03.png"" style= ""width:200px""alt=""img"">
                            </div>
                        </div>","146","","0","images/gray_03.png","","","","negative"
"","","","","","html-slider-response","95","438312","0.0-91.0","xjno2edop7","NaN","<div style=""width:500px;"">
                            <p style=""font-size:50px; font-weight:bold;""
                            >negative</p>
                            <div style=""width:240px; margin: auto;"">
                                <img src=""images/gray_32.png"" style= ""width:200px""alt=""img"">
                            </div>
                        </div>","83","","0","images/gray_32.png","","","","negative"
"","","","","","html-slider-response","96","440095","0.0-92.0","xjno2edop7","NaN","<div style=""width:500px;"">
                            <p style=""font-size:50px; font-weight:bold;""
                            >negative</p>
                            <div style=""width:240px; margin: auto;"">
                                <img src=""images/gray_19.png"" style= ""width:200px""alt=""img"">
                            </div>
                        </div>","82","","0","images/gray_19.png","","","","negative"
"","","","","","html-slider-response","97","442769","0.0-93.0","xjno2edop7","NaN","<div style=""width:500px;"">
                            <p style=""font-size:50px; font-weight:bold;""
                            >negative</p>
                            <div style=""width:240px; margin: auto;"">
                                <img src=""images/gray_08.png"" style= ""width:200px""alt=""img"">
                            </div>
                        </div>","200","","0","images/gray_08.png","","","","negative"
"","","","","","html-slider-response","98","444747","0.0-94.0","xjno2edop7","NaN","<div style=""width:500px;"">
                            <p style=""font-size:50px; font-weight:bold;""
                            >negative</p>
                            <div style=""width:240px; margin: auto;"">
                                <img src=""images/gray_26.png"" style= ""width:200px""alt=""img"">
                            </div>
                        </div>","66","","0","images/gray_26.png","","","","negative"
"","","","","","html-slider-response","99","448782","0.0-95.0","xjno2edop7","NaN","<div style=""width:500px;"">
                            <p style=""font-size:50px; font-weight:bold;""
                            >negative</p>
                            <div style=""width:240px; margin: auto;"">
                                <img src=""images/gray_43.png"" style= ""width:200px""alt=""img"">
                            </div>
                        </div>","-38","","0","images/gray_43.png","","","","negative"
"","","","","","html-slider-response","100","450720","0.0-96.0","xjno2edop7","NaN","<div style=""width:500px;"">
                            <p style=""font-size:50px; font-weight:bold;""
                            >negative</p>
                            <div style=""width:240px; margin: auto;"">
                                <img src=""images/gray_41.png"" style= ""width:200px""alt=""img"">
                            </div>
                        </div>","55","","0","images/gray_41.png","","","","negative"
"","","","","","html-slider-response","101","452721","0.0-97.0","xjno2edop7","NaN","<div style=""width:500px;"">
                            <p style=""font-size:50px; font-weight:bold;""
                            >negative</p>
                            <div style=""width:240px; margin: auto;"">
                                <img src=""images/gray_11.png"" style= ""width:200px""alt=""img"">
                            </div>
                        </div>","117","","0","images/gray_11.png","","","","negative"
"","","","","","html-slider-response","102","454435","0.0-98.0","xjno2edop7","NaN","<div style=""width:500px;"">
                            <p style=""font-size:50px; font-weight:bold;""
                            >negative</p>
                            <div style=""width:240px; margin: auto;"">
                                <img src=""images/gray_30.png"" style= ""width:200px""alt=""img"">
                            </div>
                        </div>","117","","0","images/gray_30.png","","","","negative"
"","","","","","html-slider-response","103","455975","0.0-99.0","xjno2edop7","NaN","<div style=""width:500px;"">
                            <p style=""font-size:50px; font-weight:bold;""
                            >negative</p>
                            <div style=""width:240px; margin: auto;"">
                                <img src=""images/gray_10.png"" style= ""width:200px""alt=""img"">
                            </div>
                        </div>","142","","0","images/gray_10.png","","","","negative"
"","","","","","html-slider-response","104","458200","0.0-100.0","xjno2edop7","NaN","<div style=""width:500px;"">
                            <p style=""font-size:50px; font-weight:bold;""
                            >negative</p>
                            <div style=""width:240px; margin: auto;"">
                                <img src=""images/gray_44.png"" style= ""width:200px""alt=""img"">
                            </div>
                        </div>","-30","","0","images/gray_44.png","","","","negative"
"","","","","","html-slider-response","105","459964","0.0-101.0","xjno2edop7","NaN","<div style=""width:500px;"">
                            <p style=""font-size:50px; font-weight:bold;""
                            >negative</p>
                            <div style=""width:240px; margin: auto;"">
                                <img src=""images/gray_23.png"" style= ""width:200px""alt=""img"">
                            </div>
                        </div>","-110","","0","images/gray_23.png","","","","negative"
"","","","","","html-slider-response","106","461991","0.0-102.0","xjno2edop7","NaN","<div style=""width:500px;"">
                            <p style=""font-size:50px; font-weight:bold;""
                            >negative</p>
                            <div style=""width:240px; margin: auto;"">
                                <img src=""images/gray_40.png"" style= ""width:200px""alt=""img"">
                            </div>
                        </div>","19","","0","images/gray_40.png","","","","negative"
"","","","","","html-slider-response","107","466063","0.0-103.0","xjno2edop7","NaN","<div style=""width:500px;"">
                            <p style=""font-size:50px; font-weight:bold;""
                            >negative</p>
                            <div style=""width:240px; margin: auto;"">
                                <img src=""images/gray_21.png"" style= ""width:200px""alt=""img"">
                            </div>
                        </div>","-200","","0","images/gray_21.png","","","","negative"
"","","","","","html-button-response","108","513535","0.0-104.0","xjno2edop7","46967","<p>Great Job! You've finished block 2.<br></br> You have 6 block(s) left to go.<br></br></p>","0","","","","","","",""
"","","","","","html-button-response","109","518616","0.0-105.0","xjno2edop7","5079","<p>In this block of trials, you will be asked to rate how much you associate each map with:</p > <p style = 'font-size:150%; font-weight: bold'>trustworthy</p><br></br>","0","","","","","","",""
"","","","","","html-slider-response","110","531065","0.0-106.0","xjno2edop7","NaN","<div style=""width:500px;"">
                            <p style=""font-size:50px; font-weight:bold;""
                            >trustworthy</p>
                            <div style=""width:240px; margin: auto;"">
                                <img src=""images/gray_09.png"" style= ""width:200px""alt=""img"">
                            </div>
                        </div>","-42","","0","images/gray_09.png","","","","trustworthy"
"","","","","","html-slider-response","111","535167","0.0-107.0","xjno2edop7","NaN","<div style=""width:500px;"">
                            <p style=""font-size:50px; font-weight:bold;""
                            >trustworthy</p>
                            <div style=""width:240px; margin: auto;"">
                                <img src=""images/gray_41.png"" style= ""width:200px""alt=""img"">
                            </div>
                        </div>","-70","","0","images/gray_41.png","","","","trustworthy"
"","","","","","html-slider-response","112","538750","0.0-108.0","xjno2edop7","NaN","<div style=""width:500px;"">
                            <p style=""font-size:50px; font-weight:bold;""
                            >trustworthy</p>
                            <div style=""width:240px; margin: auto;"">
                                <img src=""images/gray_07.png"" style= ""width:200px""alt=""img"">
                            </div>
                        </div>","-26","","0","images/gray_07.png","","","","trustworthy"
"","","","","","html-slider-response","113","540826","0.0-109.0","xjno2edop7","NaN","<div style=""width:500px;"">
                            <p style=""font-size:50px; font-weight:bold;""
                            >trustworthy</p>
                            <div style=""width:240px; margin: auto;"">
                                <img src=""images/gray_31.png"" style= ""width:200px""alt=""img"">
                            </div>
                        </div>","106","","0","images/gray_31.png","","","","trustworthy"
"","","","","","html-slider-response","114","543566","0.0-110.0","xjno2edop7","NaN","<div style=""width:500px;"">
                            <p style=""font-size:50px; font-weight:bold;""
                            >trustworthy</p>
                            <div style=""width:240px; margin: auto;"">
                                <img src=""images/gray_11.png"" style= ""width:200px""alt=""img"">
                            </div>
                        </div>","168","","0","images/gray_11.png","","","","trustworthy"
"","","","","","html-slider-response","115","546578","0.0-111.0","xjno2edop7","NaN","<div style=""width:500px;"">
                            <p style=""font-size:50px; font-weight:bold;""
                            >trustworthy</p>
                            <div style=""width:240px; margin: auto;"">
                                <img src=""images/gray_33.png"" style= ""width:200px""alt=""img"">
                            </div>
                        </div>","-102","","0","images/gray_33.png","","","","trustworthy"
"","","","","","html-slider-response","116","548802","0.0-112.0","xjno2edop7","NaN","<div style=""width:500px;"">
                            <p style=""font-size:50px; font-weight:bold;""
                            >trustworthy</p>
                            <div style=""width:240px; margin: auto;"">
                                <img src=""images/gray_22.png"" style= ""width:200px""alt=""img"">
                            </div>
                        </div>","-44","","0","images/gray_22.png","","","","trustworthy"
"","","","","","html-slider-response","117","551727","0.0-113.0","xjno2edop7","NaN","<div style=""width:500px;"">
                            <p style=""font-size:50px; font-weight:bold;""
                            >trustworthy</p>
                            <div style=""width:240px; margin: auto;"">
                                <img src=""images/gray_20.png"" style= ""width:200px""alt=""img"">
                            </div>
                        </div>","-120","","0","images/gray_20.png","","","","trustworthy"
"","","","","","html-slider-response","118","555948","0.0-114.0","xjno2edop7","NaN","<div style=""width:500px;"">
                            <p style=""font-size:50px; font-weight:bold;""
                            >trustworthy</p>
                            <div style=""width:240px; margin: auto;"">
                                <img src=""images/gray_19.png"" style= ""width:200px""alt=""img"">
                            </div>
                        </div>","110","","0","images/gray_19.png","","","","trustworthy"
"","","","","","html-slider-response","119","557798","0.0-115.0","xjno2edop7","NaN","<div style=""width:500px;"">
                            <p style=""font-size:50px; font-weight:bold;""
                            >trustworthy</p>
                            <div style=""width:240px; margin: auto;"">
                                <img src=""images/gray_24.png"" style= ""width:200px""alt=""img"">
                            </div>
                        </div>","69","","0","images/gray_24.png","","","","trustworthy"
"","","","","","html-slider-response","120","560010","0.0-116.0","xjno2edop7","NaN","<div style=""width:500px;"">
                            <p style=""font-size:50px; font-weight:bold;""
                            >trustworthy</p>
                            <div style=""width:240px; margin: auto;"">
                                <img src=""images/gray_39.png"" style= ""width:200px""alt=""img"">
                            </div>
                        </div>","128","","0","images/gray_39.png","","","","trustworthy"
"","","","","","html-slider-response","121","561942","0.0-117.0","xjno2edop7","NaN","<div style=""width:500px;"">
                            <p style=""font-size:50px; font-weight:bold;""
                            >trustworthy</p>
                            <div style=""width:240px; margin: auto;"">
                                <img src=""images/gray_13.png"" style= ""width:200px""alt=""img"">
                            </div>
                        </div>","-70","","0","images/gray_13.png","","","","trustworthy"
"","","","","","html-slider-response","122","564192","0.0-118.0","xjno2edop7","NaN","<div style=""width:500px;"">
                            <p style=""font-size:50px; font-weight:bold;""
                            >trustworthy</p>
                            <div style=""width:240px; margin: auto;"">
                                <img src=""images/gray_42.png"" style= ""width:200px""alt=""img"">
                            </div>
                        </div>","-27","","0","images/gray_42.png","","","","trustworthy"
"","","","","","html-slider-response","123","567346","0.0-119.0","xjno2edop7","NaN","<div style=""width:500px;"">
                            <p style=""font-size:50px; font-weight:bold;""
                            >trustworthy</p>
                            <div style=""width:240px; margin: auto;"">
                                <img src=""images/gray_12.png"" style= ""width:200px""alt=""img"">
                            </div>
                        </div>","-30","","0","images/gray_12.png","","","","trustworthy"
"","","","","","html-slider-response","124","569271","0.0-120.0","xjno2edop7","NaN","<div style=""width:500px;"">
                            <p style=""font-size:50px; font-weight:bold;""
                            >trustworthy</p>
                            <div style=""width:240px; margin: auto;"">
                                <img src=""images/gray_36.png"" style= ""width:200px""alt=""img"">
                            </div>
                        </div>","109","","0","images/gray_36.png","","","","trustworthy"
"","","","","","html-slider-response","125","571074","0.0-121.0","xjno2edop7","NaN","<div style=""width:500px;"">
                            <p style=""font-size:50px; font-weight:bold;""
                            >trustworthy</p>
                            <div style=""width:240px; margin: auto;"">
                                <img src=""images/gray_05.png"" style= ""width:200px""alt=""img"">
                            </div>
                        </div>","30","","0","images/gray_05.png","","","","trustworthy"
"","","","","","html-slider-response","126","575244","0.0-122.0","xjno2edop7","NaN","<div style=""width:500px;"">
                            <p style=""font-size:50px; font-weight:bold;""
                            >trustworthy</p>
                            <div style=""width:240px; margin: auto;"">
                                <img src=""images/gray_21.png"" style= ""width:200px""alt=""img"">
                            </div>
                        </div>","-149","","0","images/gray_21.png","","","","trustworthy"
"","","","","","html-slider-response","127","578246","0.0-123.0","xjno2edop7","NaN","<div style=""width:500px;"">
                            <p style=""font-size:50px; font-weight:bold;""
                            >trustworthy</p>
                            <div style=""width:240px; margin: auto;"">
                                <img src=""images/gray_16.png"" style= ""width:200px""alt=""img"">
                            </div>
                        </div>","150","","0","images/gray_16.png","","","","trustworthy"
"","","","","","html-slider-response","128","580564","0.0-124.0","xjno2edop7","NaN","<div style=""width:500px;"">
                            <p style=""font-size:50px; font-weight:bold;""
                            >trustworthy</p>
                            <div style=""width:240px; margin: auto;"">
                                <img src=""images/gray_29.png"" style= ""width:200px""alt=""img"">
                            </div>
                        </div>","-106","","0","images/gray_29.png","","","","trustworthy"
"","","","","","html-slider-response","129","582721","0.0-125.0","xjno2edop7","NaN","<div style=""width:500px;"">
                            <p style=""font-size:50px; font-weight:bold;""
                            >trustworthy</p>
                            <div style=""width:240px; margin: auto;"">
                                <img src=""images/gray_40.png"" style= ""width:200px""alt=""img"">
                            </div>
                        </div>","-57","","0","images/gray_40.png","","","","trustworthy"
"","","","","","html-slider-response","130","584503","0.0-126.0","xjno2edop7","NaN","<div style=""width:500px;"">
                            <p style=""font-size:50px; font-weight:bold;""
                            >trustworthy</p>
                            <div style=""width:240px; margin: auto;"">
                                <img src=""images/gray_30.png"" style= ""width:200px""alt=""img"">
                            </div>
                        </div>","107","","0","images/gray_30.png","","","","trustworthy"
"","","","","","html-slider-response","131","587235","0.0-127.0","xjno2edop7","NaN","<div style=""width:500px;"">
                            <p style=""font-size:50px; font-weight:bold;""
                            >trustworthy</p>
                            <div style=""width:240px; margin: auto;"">
                                <img src=""images/gray_08.png"" style= ""width:200px""alt=""img"">
                            </div>
                        </div>","146","","0","images/gray_08.png","","","","trustworthy"
"","","","","","html-slider-response","132","588945","0.0-128.0","xjno2edop7","NaN","<div style=""width:500px;"">
                            <p style=""font-size:50px; font-weight:bold;""
                            >trustworthy</p>
                            <div style=""width:240px; margin: auto;"">
                                <img src=""images/gray_04.png"" style= ""width:200px""alt=""img"">
                            </div>
                        </div>","-90","","0","images/gray_04.png","","","","trustworthy"
"","","","","","html-slider-response","133","591207","0.0-129.0","xjno2edop7","NaN","<div style=""width:500px;"">
                            <p style=""font-size:50px; font-weight:bold;""
                            >trustworthy</p>
                            <div style=""width:240px; margin: auto;"">
                                <img src=""images/gray_25.png"" style= ""width:200px""alt=""img"">
                            </div>
                        </div>","155","","0","images/gray_25.png","","","","trustworthy"
"","","","","","html-slider-response","134","593404","0.0-130.0","xjno2edop7","NaN","<div style=""width:500px;"">
                            <p style=""font-size:50px; font-weight:bold;""
                            >trustworthy</p>
                            <div style=""width:240px; margin: auto;"">
                                <img src=""images/gray_03.png"" style= ""width:200px""alt=""img"">
                            </div>
                        </div>","-62","","0","images/gray_03.png","","","","trustworthy"
"","","","","","html-slider-response","135","597292","0.0-131.0","xjno2edop7","NaN","<div style=""width:500px;"">
                            <p style=""font-size:50px; font-weight:bold;""
                            >trustworthy</p>
                            <div style=""width:240px; margin: auto;"">
                                <img src=""images/gray_38.png"" style= ""width:200px""alt=""img"">
                            </div>
                        </div>","82","","0","images/gray_38.png","","","","trustworthy"
"","","","","","html-slider-response","136","598862","0.0-132.0","xjno2edop7","NaN","<div style=""width:500px;"">
                            <p style=""font-size:50px; font-weight:bold;""
                            >trustworthy</p>
                            <div style=""width:240px; margin: auto;"">
                                <img src=""images/gray_01.png"" style= ""width:200px""alt=""img"">
                            </div>
                        </div>","-116","","0","images/gray_01.png","","","","trustworthy"
"","","","","","html-slider-response","137","600656","0.0-133.0","xjno2edop7","NaN","<div style=""width:500px;"">
                            <p style=""font-size:50px; font-weight:bold;""
                            >trustworthy</p>
                            <div style=""width:240px; margin: auto;"">
                                <img src=""images/gray_17.png"" style= ""width:200px""alt=""img"">
                            </div>
                        </div>","104","","0","images/gray_17.png","","","","trustworthy"
"","","","","","html-slider-response","138","602487","0.0-134.0","xjno2edop7","NaN","<div style=""width:500px;"">
                            <p style=""font-size:50px; font-weight:bold;""
                            >trustworthy</p>
                            <div style=""width:240px; margin: auto;"">
                                <img src=""images/gray_02.png"" style= ""width:200px""alt=""img"">
                            </div>
                        </div>","163","","0","images/gray_02.png","","","","trustworthy"
"","","","","","html-slider-response","139","604319","0.0-135.0","xjno2edop7","NaN","<div style=""width:500px;"">
                            <p style=""font-size:50px; font-weight:bold;""
                            >trustworthy</p>
                            <div style=""width:240px; margin: auto;"">
                                <img src=""images/gray_26.png"" style= ""width:200px""alt=""img"">
                            </div>
                        </div>","86","","0","images/gray_26.png","","","","trustworthy"
"","","","","","html-slider-response","140","606768","0.0-136.0","xjno2edop7","NaN","<div style=""width:500px;"">
                            <p style=""font-size:50px; font-weight:bold;""
                            >trustworthy</p>
                            <div style=""width:240px; margin: auto;"">
                                <img src=""images/gray_15.png"" style= ""width:200px""alt=""img"">
                            </div>
                        </div>","-98","","0","images/gray_15.png","","","","trustworthy"
"","","","","","html-slider-response","141","608457","0.0-137.0","xjno2edop7","NaN","<div style=""width:500px;"">
                            <p style=""font-size:50px; font-weight:bold;""
                            >trustworthy</p>
                            <div style=""width:240px; margin: auto;"">
                                <img src=""images/gray_35.png"" style= ""width:200px""alt=""img"">
                            </div>
                        </div>","-50","","0","images/gray_35.png","","","","trustworthy"
"","","","","","html-slider-response","142","611038","0.0-138.0","xjno2edop7","NaN","<div style=""width:500px;"">
                            <p style=""font-size:50px; font-weight:bold;""
                            >trustworthy</p>
                            <div style=""width:240px; margin: auto;"">
                                <img src=""images/gray_18.png"" style= ""width:200px""alt=""img"">
                            </div>
                        </div>","-162","","0","images/gray_18.png","","","","trustworthy"
"","","","","","html-slider-response","143","614325","0.0-139.0","xjno2edop7","NaN","<div style=""width:500px;"">
                            <p style=""font-size:50px; font-weight:bold;""
                            >trustworthy</p>
                            <div style=""width:240px; margin: auto;"">
                                <img src=""images/gray_28.png"" style= ""width:200px""alt=""img"">
                            </div>
                        </div>","-36","","0","images/gray_28.png","","","","trustworthy"
"","","","","","html-slider-response","144","615993","0.0-140.0","xjno2edop7","NaN","<div style=""width:500px;"">
                            <p style=""font-size:50px; font-weight:bold;""
                            >trustworthy</p>
                            <div style=""width:240px; margin: auto;"">
                                <img src=""images/gray_27.png"" style= ""width:200px""alt=""img"">
                            </div>
                        </div>","56","","0","images/gray_27.png","","","","trustworthy"
"","","","","","html-slider-response","145","618261","0.0-141.0","xjno2edop7","NaN","<div style=""width:500px;"">
                            <p style=""font-size:50px; font-weight:bold;""
                            >trustworthy</p>
                            <div style=""width:240px; margin: auto;"">
                                <img src=""images/gray_10.png"" style= ""width:200px""alt=""img"">
                            </div>
                        </div>","-77","","0","images/gray_10.png","","","","trustworthy"
"","","","","","html-slider-response","146","620103","0.0-142.0","xjno2edop7","NaN","<div style=""width:500px;"">
                            <p style=""font-size:50px; font-weight:bold;""
                            >trustworthy</p>
                            <div style=""width:240px; margin: auto;"">
                                <img src=""images/gray_37.png"" style= ""width:200px""alt=""img"">
                            </div>
                        </div>","-22","","0","images/gray_37.png","","","","trustworthy"
"","","","","","html-slider-response","147","623182","0.0-143.0","xjno2edop7","NaN","<div style=""width:500px;"">
                            <p style=""font-size:50px; font-weight:bold;""
                            >trustworthy</p>
                            <div style=""width:240px; margin: auto;"">
                                <img src=""images/gray_14.png"" style= ""width:200px""alt=""img"">
                            </div>
                        </div>","67","","0","images/gray_14.png","","","","trustworthy"
"","","","","","html-slider-response","148","624943","0.0-144.0","xjno2edop7","NaN","<div style=""width:500px;"">
                            <p style=""font-size:50px; font-weight:bold;""
                            >trustworthy</p>
                            <div style=""width:240px; margin: auto;"">
                                <img src=""images/gray_23.png"" style= ""width:200px""alt=""img"">
                            </div>
                        </div>","-91","","0","images/gray_23.png","","","","trustworthy"
"","","","","","html-slider-response","149","626557","0.0-145.0","xjno2edop7","NaN","<div style=""width:500px;"">
                            <p style=""font-size:50px; font-weight:bold;""
                            >trustworthy</p>
                            <div style=""width:240px; margin: auto;"">
                                <img src=""images/gray_32.png"" style= ""width:200px""alt=""img"">
                            </div>
                        </div>","141","","0","images/gray_32.png","","","","trustworthy"
"","","","","","html-slider-response","150","628963","0.0-146.0","xjno2edop7","NaN","<div style=""width:500px;"">
                            <p style=""font-size:50px; font-weight:bold;""
                            >trustworthy</p>
                            <div style=""width:240px; margin: auto;"">
                                <img src=""images/gray_06.png"" style= ""width:200px""alt=""img"">
                            </div>
                        </div>","-120","","0","images/gray_06.png","","","","trustworthy"
"","","","","","html-slider-response","151","632365","0.0-147.0","xjno2edop7","NaN","<div style=""width:500px;"">
                            <p style=""font-size:50px; font-weight:bold;""
                            >trustworthy</p>
                            <div style=""width:240px; margin: auto;"">
                                <img src=""images/gray_44.png"" style= ""width:200px""alt=""img"">
                            </div>
                        </div>","198","","0","images/gray_44.png","","","","trustworthy"
"","","","","","html-slider-response","152","634677","0.0-148.0","xjno2edop7","NaN","<div style=""width:500px;"">
                            <p style=""font-size:50px; font-weight:bold;""
                            >trustworthy</p>
                            <div style=""width:240px; margin: auto;"">
                                <img src=""images/gray_34.png"" style= ""width:200px""alt=""img"">
                            </div>
                        </div>","-67","","0","images/gray_34.png","","","","trustworthy"
"","","","","","html-slider-response","153","636457","0.0-149.0","xjno2edop7","NaN","<div style=""width:500px;"">
                            <p style=""font-size:50px; font-weight:bold;""
                            >trustworthy</p>
                            <div style=""width:240px; margin: auto;"">
                                <img src=""images/gray_43.png"" style= ""width:200px""alt=""img"">
                            </div>
                        </div>","106","","0","images/gray_43.png","","","","trustworthy"
"","","","","","html-button-response","154","638007","0.0-150.0","xjno2edop7","1045","<p>Great Job! You've finished block 3.<br></br> You have 5 block(s) left to go.<br></br></p>","0","","","","","","",""
"","","","","","html-button-response","155","639221","0.0-151.0","xjno2edop7","1211","<p>In this block of trials, you will be asked to rate how much you associate each map with:</p > <p style = 'font-size:150%; font-weight: bold'>positive</p><br></br>","0","","","","","","",""
"","","","","","html-slider-response","156","643172","0.0-152.0","xjno2edop7","NaN","<div style=""width:500px;"">
                            <p style=""font-size:50px; font-weight:bold;""
                            >positive</p>
                            <div style=""width:240px; margin: auto;"">
                                <img src=""images/gray_09.png"" style= ""width:200px""alt=""img"">
                            </div>
                        </div>","98","","0","images/gray_09.png","","","","positive"
"","","","","","html-slider-response","157","644845","0.0-153.0","xjno2edop7","NaN","<div style=""width:500px;"">
                            <p style=""font-size:50px; font-weight:bold;""
                            >positive</p>
                            <div style=""width:240px; margin: auto;"">
                                <img src=""images/gray_27.png"" style= ""width:200px""alt=""img"">
                            </div>
                        </div>","113","","0","images/gray_27.png","","","","positive"
"","","","","","html-slider-response","158","647084","0.0-154.0","xjno2edop7","NaN","<div style=""width:500px;"">
                            <p style=""font-size:50px; font-weight:bold;""
                            >positive</p>
                            <div style=""width:240px; margin: auto;"">
                                <img src=""images/gray_14.png"" style= ""width:200px""alt=""img"">
                            </div>
                        </div>","-134","","0","images/gray_14.png","","","","positive"
"","","","","","html-slider-response","159","648860","0.0-155.0","xjno2edop7","NaN","<div style=""width:500px;"">
                            <p style=""font-size:50px; font-weight:bold;""
                            >positive</p>
                            <div style=""width:240px; margin: auto;"">
                                <img src=""images/gray_28.png"" style= ""width:200px""alt=""img"">
                            </div>
                        </div>","-85","","0","images/gray_28.png","","","","positive"
"","","","","","html-slider-response","160","650702","0.0-156.0","xjno2edop7","NaN","<div style=""width:500px;"">
                            <p style=""font-size:50px; font-weight:bold;""
                            >positive</p>
                            <div style=""width:240px; margin: auto;"">
                                <img src=""images/gray_02.png"" style= ""width:200px""alt=""img"">
                            </div>
                        </div>","-53","","0","images/gray_02.png","","","","positive"
"","","","","","html-slider-response","161","652929","0.0-157.0","xjno2edop7","NaN","<div style=""width:500px;"">
                            <p style=""font-size:50px; font-weight:bold;""
                            >positive</p>
                            <div style=""width:240px; margin: auto;"">
                                <img src=""images/gray_42.png"" style= ""width:200px""alt=""img"">
                            </div>
                        </div>","28","","0","images/gray_42.png","","","","positive"
"","","","","","html-slider-response","162","655492","0.0-158.0","xjno2edop7","NaN","<div style=""width:500px;"">
                            <p style=""font-size:50px; font-weight:bold;""
                            >positive</p>
                            <div style=""width:240px; margin: auto;"">
                                <img src=""images/gray_10.png"" style= ""width:200px""alt=""img"">
                            </div>
                        </div>","6","","0","images/gray_10.png","","","","positive"
"","","","","","html-slider-response","163","657315","0.0-159.0","xjno2edop7","NaN","<div style=""width:500px;"">
                            <p style=""font-size:50px; font-weight:bold;""
                            >positive</p>
                            <div style=""width:240px; margin: auto;"">
                                <img src=""images/gray_32.png"" style= ""width:200px""alt=""img"">
                            </div>
                        </div>","65","","0","images/gray_32.png","","","","positive"
"","","","","","html-slider-response","164","659358","0.0-160.0","xjno2edop7","NaN","<div style=""width:500px;"">
                            <p style=""font-size:50px; font-weight:bold;""
                            >positive</p>
                            <div style=""width:240px; margin: auto;"">
                                <img src=""images/gray_05.png"" style= ""width:200px""alt=""img"">
                            </div>
                        </div>","27","","0","images/gray_05.png","","","","positive"
"","","","","","html-slider-response","165","661800","0.0-161.0","xjno2edop7","NaN","<div style=""width:500px;"">
                            <p style=""font-size:50px; font-weight:bold;""
                            >positive</p>
                            <div style=""width:240px; margin: auto;"">
                                <img src=""images/gray_20.png"" style= ""width:200px""alt=""img"">
                            </div>
                        </div>","170","","0","images/gray_20.png","","","","positive"
"","","","","","html-slider-response","166","663726","0.0-162.0","xjno2edop7","NaN","<div style=""width:500px;"">
                            <p style=""font-size:50px; font-weight:bold;""
                            >positive</p>
                            <div style=""width:240px; margin: auto;"">
                                <img src=""images/gray_07.png"" style= ""width:200px""alt=""img"">
                            </div>
                        </div>","200","","0","images/gray_07.png","","","","positive"
"","","","","","html-slider-response","167","665534","0.0-163.0","xjno2edop7","NaN","<div style=""width:500px;"">
                            <p style=""font-size:50px; font-weight:bold;""
                            >positive</p>
                            <div style=""width:240px; margin: auto;"">
                                <img src=""images/gray_24.png"" style= ""width:200px""alt=""img"">
                            </div>
                        </div>","200","","0","images/gray_24.png","","","","positive"
"","","","","","html-slider-response","168","667329","0.0-164.0","xjno2edop7","NaN","<div style=""width:500px;"">
                            <p style=""font-size:50px; font-weight:bold;""
                            >positive</p>
                            <div style=""width:240px; margin: auto;"">
                                <img src=""images/gray_30.png"" style= ""width:200px""alt=""img"">
                            </div>
                        </div>","-92","","0","images/gray_30.png","","","","positive"
"","","","","","html-slider-response","169","670178","0.0-165.0","xjno2edop7","NaN","<div style=""width:500px;"">
                            <p style=""font-size:50px; font-weight:bold;""
                            >positive</p>
                            <div style=""width:240px; margin: auto;"">
                                <img src=""images/gray_08.png"" style= ""width:200px""alt=""img"">
                            </div>
                        </div>","-33","","0","images/gray_08.png","","","","positive"
"","","","","","html-slider-response","170","671839","0.0-166.0","xjno2edop7","NaN","<div style=""width:500px;"">
                            <p style=""font-size:50px; font-weight:bold;""
                            >positive</p>
                            <div style=""width:240px; margin: auto;"">
                                <img src=""images/gray_36.png"" style= ""width:200px""alt=""img"">
                            </div>
                        </div>","-127","","0","images/gray_36.png","","","","positive"
"","","","","","html-slider-response","171","673532","0.0-167.0","xjno2edop7","NaN","<div style=""width:500px;"">
                            <p style=""font-size:50px; font-weight:bold;""
                            >positive</p>
                            <div style=""width:240px; margin: auto;"">
                                <img src=""images/gray_16.png"" style= ""width:200px""alt=""img"">
                            </div>
                        </div>","-47","","0","images/gray_16.png","","","","positive"
"","","","","","html-slider-response","172","675283","0.0-168.0","xjno2edop7","NaN","<div style=""width:500px;"">
                            <p style=""font-size:50px; font-weight:bold;""
                            >positive</p>
                            <div style=""width:240px; margin: auto;"">
                                <img src=""images/gray_11.png"" style= ""width:200px""alt=""img"">
                            </div>
                        </div>","63","","0","images/gray_11.png","","","","positive"
"","","","","","html-slider-response","173","677064","0.0-169.0","xjno2edop7","NaN","<div style=""width:500px;"">
                            <p style=""font-size:50px; font-weight:bold;""
                            >positive</p>
                            <div style=""width:240px; margin: auto;"">
                                <img src=""images/gray_39.png"" style= ""width:200px""alt=""img"">
                            </div>
                        </div>","195","","0","images/gray_39.png","","","","positive"
"","","","","","html-slider-response","174","679626","0.0-170.0","xjno2edop7","NaN","<div style=""width:500px;"">
                            <p style=""font-size:50px; font-weight:bold;""
                            >positive</p>
                            <div style=""width:240px; margin: auto;"">
                                <img src=""images/gray_03.png"" style= ""width:200px""alt=""img"">
                            </div>
                        </div>","26","","0","images/gray_03.png","","","","positive"
"","","","","","html-slider-response","175","681737","0.0-171.0","xjno2edop7","NaN","<div style=""width:500px;"">
                            <p style=""font-size:50px; font-weight:bold;""
                            >positive</p>
                            <div style=""width:240px; margin: auto;"">
                                <img src=""images/gray_44.png"" style= ""width:200px""alt=""img"">
                            </div>
                        </div>","38","","0","images/gray_44.png","","","","positive"
"","","","","","html-slider-response","176","683174","0.0-172.0","xjno2edop7","NaN","<div style=""width:500px;"">
                            <p style=""font-size:50px; font-weight:bold;""
                            >positive</p>
                            <div style=""width:240px; margin: auto;"">
                                <img src=""images/gray_06.png"" style= ""width:200px""alt=""img"">
                            </div>
                        </div>","200","","0","images/gray_06.png","","","","positive"
"","","","","","html-slider-response","177","684996","0.0-173.0","xjno2edop7","NaN","<div style=""width:500px;"">
                            <p style=""font-size:50px; font-weight:bold;""
                            >positive</p>
                            <div style=""width:240px; margin: auto;"">
                                <img src=""images/gray_18.png"" style= ""width:200px""alt=""img"">
                            </div>
                        </div>","132","","0","images/gray_18.png","","","","positive"
"","","","","","html-slider-response","178","686974","0.0-174.0","xjno2edop7","NaN","<div style=""width:500px;"">
                            <p style=""font-size:50px; font-weight:bold;""
                            >positive</p>
                            <div style=""width:240px; margin: auto;"">
                                <img src=""images/gray_01.png"" style= ""width:200px""alt=""img"">
                            </div>
                        </div>","-59","","0","images/gray_01.png","","","","positive"
"","","","","","html-slider-response","179","689042","0.0-175.0","xjno2edop7","NaN","<div style=""width:500px;"">
                            <p style=""font-size:50px; font-weight:bold;""
                            >positive</p>
                            <div style=""width:240px; margin: auto;"">
                                <img src=""images/gray_19.png"" style= ""width:200px""alt=""img"">
                            </div>
                        </div>","147","","0","images/gray_19.png","","","","positive"
"","","","","","html-slider-response","180","690825","0.0-176.0","xjno2edop7","NaN","<div style=""width:500px;"">
                            <p style=""font-size:50px; font-weight:bold;""
                            >positive</p>
                            <div style=""width:240px; margin: auto;"">
                                <img src=""images/gray_26.png"" style= ""width:200px""alt=""img"">
                            </div>
                        </div>","-56","","0","images/gray_26.png","","","","positive"
"","","","","","html-slider-response","181","693032","0.0-177.0","xjno2edop7","NaN","<div style=""width:500px;"">
                            <p style=""font-size:50px; font-weight:bold;""
                            >positive</p>
                            <div style=""width:240px; margin: auto;"">
                                <img src=""images/gray_21.png"" style= ""width:200px""alt=""img"">
                            </div>
                        </div>","24","","0","images/gray_21.png","","","","positive"
"","","","","","html-slider-response","182","695027","0.0-178.0","xjno2edop7","NaN","<div style=""width:500px;"">
                            <p style=""font-size:50px; font-weight:bold;""
                            >positive</p>
                            <div style=""width:240px; margin: auto;"">
                                <img src=""images/gray_43.png"" style= ""width:200px""alt=""img"">
                            </div>
                        </div>","134","","0","images/gray_43.png","","","","positive"
"","","","","","html-slider-response","183","697631","0.0-179.0","xjno2edop7","NaN","<div style=""width:500px;"">
                            <p style=""font-size:50px; font-weight:bold;""
                            >positive</p>
                            <div style=""width:240px; margin: auto;"">
                                <img src=""images/gray_40.png"" style= ""width:200px""alt=""img"">
                            </div>
                        </div>","-28","","0","images/gray_40.png","","","","positive"
"","","","","","html-slider-response","184","699468","0.0-180.0","xjno2edop7","NaN","<div style=""width:500px;"">
                            <p style=""font-size:50px; font-weight:bold;""
                            >positive</p>
                            <div style=""width:240px; margin: auto;"">
                                <img src=""images/gray_34.png"" style= ""width:200px""alt=""img"">
                            </div>
                        </div>","-110","","0","images/gray_34.png","","","","positive"
"","","","","","html-slider-response","185","701750","0.0-181.0","xjno2edop7","NaN","<div style=""width:500px;"">
                            <p style=""font-size:50px; font-weight:bold;""
                            >positive</p>
                            <div style=""width:240px; margin: auto;"">
                                <img src=""images/gray_31.png"" style= ""width:200px""alt=""img"">
                            </div>
                        </div>","187","","0","images/gray_31.png","","","","positive"
"","","","","","html-slider-response","186","703635","0.0-182.0","xjno2edop7","NaN","<div style=""width:500px;"">
                            <p style=""font-size:50px; font-weight:bold;""
                            >positive</p>
                            <div style=""width:240px; margin: auto;"">
                                <img src=""images/gray_41.png"" style= ""width:200px""alt=""img"">
                            </div>
                        </div>","65","","0","images/gray_41.png","","","","positive"
"","","","","","html-slider-response","187","705418","0.0-183.0","xjno2edop7","NaN","<div style=""width:500px;"">
                            <p style=""font-size:50px; font-weight:bold;""
                            >positive</p>
                            <div style=""width:240px; margin: auto;"">
                                <img src=""images/gray_04.png"" style= ""width:200px""alt=""img"">
                            </div>
                        </div>","-91","","0","images/gray_04.png","","","","positive"
"","","","","","html-slider-response","188","707246","0.0-184.0","xjno2edop7","NaN","<div style=""width:500px;"">
                            <p style=""font-size:50px; font-weight:bold;""
                            >positive</p>
                            <div style=""width:240px; margin: auto;"">
                                <img src=""images/gray_13.png"" style= ""width:200px""alt=""img"">
                            </div>
                        </div>","-69","","0","images/gray_13.png","","","","positive"
"","","","","","html-slider-response","189","709042","0.0-185.0","xjno2edop7","NaN","<div style=""width:500px;"">
                            <p style=""font-size:50px; font-weight:bold;""
                            >positive</p>
                            <div style=""width:240px; margin: auto;"">
                                <img src=""images/gray_35.png"" style= ""width:200px""alt=""img"">
                            </div>
                        </div>","-108","","0","images/gray_35.png","","","","positive"
"","","","","","html-slider-response","190","711811","0.0-186.0","xjno2edop7","NaN","<div style=""width:500px;"">
                            <p style=""font-size:50px; font-weight:bold;""
                            >positive</p>
                            <div style=""width:240px; margin: auto;"">
                                <img src=""images/gray_29.png"" style= ""width:200px""alt=""img"">
                            </div>
                        </div>","0","","0","images/gray_29.png","","","","positive"
"","","","","","html-slider-response","191","713825","0.0-187.0","xjno2edop7","NaN","<div style=""width:500px;"">
                            <p style=""font-size:50px; font-weight:bold;""
                            >positive</p>
                            <div style=""width:240px; margin: auto;"">
                                <img src=""images/gray_17.png"" style= ""width:200px""alt=""img"">
                            </div>
                        </div>","-80","","0","images/gray_17.png","","","","positive"
"","","","","","html-slider-response","192","716256","0.0-188.0","xjno2edop7","NaN","<div style=""width:500px;"">
                            <p style=""font-size:50px; font-weight:bold;""
                            >positive</p>
                            <div style=""width:240px; margin: auto;"">
                                <img src=""images/gray_23.png"" style= ""width:200px""alt=""img"">
                            </div>
                        </div>","-200","","0","images/gray_23.png","","","","positive"
"","","","","","html-slider-response","193","718128","0.0-189.0","xjno2edop7","NaN","<div style=""width:500px;"">
                            <p style=""font-size:50px; font-weight:bold;""
                            >positive</p>
                            <div style=""width:240px; margin: auto;"">
                                <img src=""images/gray_15.png"" style= ""width:200px""alt=""img"">
                            </div>
                        </div>","-82","","0","images/gray_15.png","","","","positive"
"","","","","","html-slider-response","194","720024","0.0-190.0","xjno2edop7","NaN","<div style=""width:500px;"">
                            <p style=""font-size:50px; font-weight:bold;""
                            >positive</p>
                            <div style=""width:240px; margin: auto;"">
                                <img src=""images/gray_33.png"" style= ""width:200px""alt=""img"">
                            </div>
                        </div>","51","","0","images/gray_33.png","","","","positive"
"","","","","","html-slider-response","195","722252","0.0-191.0","xjno2edop7","NaN","<div style=""width:500px;"">
                            <p style=""font-size:50px; font-weight:bold;""
                            >positive</p>
                            <div style=""width:240px; margin: auto;"">
                                <img src=""images/gray_22.png"" style= ""width:200px""alt=""img"">
                            </div>
                        </div>","26","","0","images/gray_22.png","","","","positive"
"","","","","","html-slider-response","196","724228","0.0-192.0","xjno2edop7","NaN","<div style=""width:500px;"">
                            <p style=""font-size:50px; font-weight:bold;""
                            >positive</p>
                            <div style=""width:240px; margin: auto;"">
                                <img src=""images/gray_25.png"" style= ""width:200px""alt=""img"">
                            </div>
                        </div>","38","","0","images/gray_25.png","","","","positive"
"","","","","","html-slider-response","197","726286","0.0-193.0","xjno2edop7","NaN","<div style=""width:500px;"">
                            <p style=""font-size:50px; font-weight:bold;""
                            >positive</p>
                            <div style=""width:240px; margin: auto;"">
                                <img src=""images/gray_37.png"" style= ""width:200px""alt=""img"">
                            </div>
