"success","timeout","failed_images","failed_audio","failed_video","trial_type","trial_index","time_elapsed","internal_node_id","subject_id","rt","stimulus","response","question_order","slider_start","image_path","practiceTrial","practiceTrialNum","correct","concept"
"true","false","[]","[]","[]","preload","0","590","0.0-0.0","yfdb4gemhp","","","","","","","","","",""
"","","","","","html-button-response","1","2922","0.0-1.0","yfdb4gemhp","2331","Welcome to our experiment!<p>At the bottom of this screen, you will see a button that says ""Begin Experiment"".<br>Please only click that button when you are ready to complete the 25 minute experiment in one sitting.</p><p> Once you click that button, it will not be possible to restart the experiment.","0","","","","","","",""
"true","","","","","fullscreen","2","5308","0.0-2.0","yfdb4gemhp","1383","","","","","","","","",""
"","","","","","survey-multi-select","3","18337","0.0-3.0","yfdb4gemhp","13024","","{""Consent"":[""<strong>I consent</strong>""]}","[0]","","","","","",""
"","","","","","html-button-response","4","20003","0.0-4.0","yfdb4gemhp","1662","Welcome! <p> This experiment involves two parts: demographic information, followed by the experimental task.<p> It will take about 25 minutes to complete both parts.","0","","","","","","",""
"","","","","","survey-text","5","34436","0.0-5.0","yfdb4gemhp","14426","","{""Age"":""18"",""Gender"":""female"",""Race/ethnicity"":""white"",""Languages"":""english, french""}","","","","","","",""
"","","","","","html-slider-response","6","157590","0.0-6.0","yfdb4gemhp","123151","
            <div style='text-align:left; font-size:20px; line-height:25px; width: 1200px;'>
                During this experiment you will be asked to rate how much you associate maps with    different concepts.<br> Below, you can see some examples of the maps you will be asked to rate. Next to the maps
    is the list of concepts.<br>You will be asked    to rate how much you associate each map with each concept on a scale from 'not at all' to 'very much' like the
    one below. <br><br>
    Now, please look at the list of concepts and maps. For each concept, think about the map you associate 'very
    much' with the concept.<br>     When you see that map during the experiment, please rate it near the 'very much' endpoint of the
    scale.<br>Now, please think about which map you associate 'not at all'     with each concept. When you see that map during the experiment, please rate it near the 'not at all' endpoint
    of the scale.<br>
    Please use the full range of the scale. That is, if a map is somewhat associated with the concept, you would
    click partway between the middle point and right side of the scale.    You will be asked to rate each map for a given concept before moving on to the next concept.<br><br>Press the
    'Continue' button for instructions on how to use the slider.    <br><br>
</div>

<div style=""width: 500px; margin: 0 auto;"">
    <div style=""text-align: left; width: 200px; float: left;"">
        <p style=""font-size:25px; line-height:18px;"">calm</p>
        <p style=""font-size:25px; line-height:18px;"">exciting</p>
        <p style=""font-size:25px;line-height:18px;"">positive</p>
        <p style=""font-size:25px;line-height:18px;"">negative</p>
        <p style=""font-size:25px;line-height:18px;"">serious</p>
        <p style=""font-size:25px;line-height:18px;"">playful</p>
        <p style=""font-size:25px;line-height:18px;"">trustworthy</p>
        <p style=""font-size:25px;line-height:18px;"">disturbing</p>
    </div>
    <div style=""width: 200px; float: right; padding-top:15px; padding-right:40px"">
        <br>
        <br>
        <img src=""maps_anchoring.png"" alt=""img"" style=""max-width:500px"">
    </div>
    <div style=""clear: both;""></div>
</div>
            ","168","","0","maps_anchoring.png","true","","",""
"","","","","","html-button-response","7","158971","0.0-7.0","yfdb4gemhp","1380","<div style=""width:800px;""><p style=""text-align:left"">To move the slider, click and drag your cursor to the location of the scale where you would like to make your rating and then let go. When you let go of the slider, your response will be recorded and the next trial will begin. <br>
            We are interested in your initial impressions of each map for the given concept, so please go with your first intuition. <br>
            Before you begin the experiment, there will be four training trials for you to practice using the scale. <br>
             When you are ready to start the training trials, please click ""Continue"".</p><br></div>","0","","","","","","",""
"","","","","","html-slider-response","8","161155","0.0-8.0-0.0","yfdb4gemhp","NaN","<div style=""width:500px;"">
                            <p style=""font-size:25px;"">Please move the slider all the way to the <br> right endpoint of the scale</p>

                            </div>
                        </div>","194","","0","","true","0","true",""
"","","","","","html-button-response","9","162697","0.0-8.0-1.0","yfdb4gemhp","1040","<p align='center'><b>Good job!</b> Click on 'Continue' to proceed.</p>","0","","","","","","",""
"","","","","","html-slider-response","10","164384","0.0-9.0-0.0","yfdb4gemhp","NaN","<div style=""width:500px;"">
                            <p style=""font-size:25px;"">Please move the slider all the way to the <br> left endpoint of the scale</p>

                            </div>
                        </div>","-194","","0","","true","1","true",""
"","","","","","html-button-response","11","165324","0.0-9.0-1.0","yfdb4gemhp","437","<p align='center'><b>Good job!</b> Click on 'Continue' to proceed.</p>","0","","","","","","",""
"","","","","","html-slider-response","12","167954","0.0-10.0-0.0","yfdb4gemhp","NaN","<div style=""width:500px;"">
                            <p style=""font-size:25px;"">Please move the slider halfway between the center and right endpoint of the scale</p>

                            </div>
                        </div>","94","","0","","true","2","true",""
"","","","","","html-button-response","13","168839","0.0-10.0-1.0","yfdb4gemhp","382","<p align='center'><b>Good job!</b> Click on 'Continue' to proceed.</p>","0","","","","","","",""
"","","","","","html-slider-response","14","169583","0.0-11.0-0.0","yfdb4gemhp","NaN","<div style=""width:500px;"">
                            <p style=""font-size:25px;"">Please move the slider halfway between the center and left endpoint of the scale</p>

                            </div>
                        </div>","-108","","0","","true","3","true",""
"","","","","","html-button-response","15","171940","0.0-11.0-1.0","yfdb4gemhp","1854","<p align='center'><b>Good job!</b> Click on 'Continue' to proceed.</p>","0","","","","","","",""
"","","","","","html-button-response","16","172809","0.0-12.0","yfdb4gemhp","868","<p>Great job! You've completed the practice trials. Now you will begin the main task.</p>","0","","","","","","",""
"","","","","","html-button-response","17","174973","0.0-13.0","yfdb4gemhp","2163","<p>In this block of trials, you will be asked to rate how much you associate each map with:</p > <p style = 'font-size:150%; font-weight: bold'>exciting</p><br></br>","0","","","","","","",""
"","","","","","html-slider-response","18","177643","0.0-14.0","yfdb4gemhp","NaN","<div style=""width:500px;"">
                            <p style=""font-size:50px; font-weight:bold;""
                            >exciting</p>
                            <div style=""width:240px; margin: auto;"">
                                <img src=""images/gray_08.png"" style= ""width:200px""alt=""img"">
                            </div>
                        </div>","52","","0","images/gray_08.png","","","","exciting"
"","","","","","html-slider-response","19","180735","0.0-15.0","yfdb4gemhp","NaN","<div style=""width:500px;"">
                            <p style=""font-size:50px; font-weight:bold;""
                            >exciting</p>
                            <div style=""width:240px; margin: auto;"">
                                <img src=""images/gray_07.png"" style= ""width:200px""alt=""img"">
                            </div>
                        </div>","57","","0","images/gray_07.png","","","","exciting"
"","","","","","html-slider-response","20","182917","0.0-16.0","yfdb4gemhp","NaN","<div style=""width:500px;"">
                            <p style=""font-size:50px; font-weight:bold;""
                            >exciting</p>
                            <div style=""width:240px; margin: auto;"">
                                <img src=""images/gray_19.png"" style= ""width:200px""alt=""img"">
                            </div>
                        </div>","-91","","0","images/gray_19.png","","","","exciting"
"","","","","","html-slider-response","21","185218","0.0-17.0","yfdb4gemhp","NaN","<div style=""width:500px;"">
                            <p style=""font-size:50px; font-weight:bold;""
                            >exciting</p>
                            <div style=""width:240px; margin: auto;"">
                                <img src=""images/gray_43.png"" style= ""width:200px""alt=""img"">
                            </div>
                        </div>","-95","","0","images/gray_43.png","","","","exciting"
"","","","","","html-slider-response","22","186625","0.0-18.0","yfdb4gemhp","NaN","<div style=""width:500px;"">
                            <p style=""font-size:50px; font-weight:bold;""
                            >exciting</p>
                            <div style=""width:240px; margin: auto;"">
                                <img src=""images/gray_24.png"" style= ""width:200px""alt=""img"">
                            </div>
                        </div>","-95","","0","images/gray_24.png","","","","exciting"
"","","","","","html-slider-response","23","188374","0.0-19.0","yfdb4gemhp","NaN","<div style=""width:500px;"">
                            <p style=""font-size:50px; font-weight:bold;""
                            >exciting</p>
                            <div style=""width:240px; margin: auto;"">
                                <img src=""images/gray_15.png"" style= ""width:200px""alt=""img"">
                            </div>
                        </div>","-93","","0","images/gray_15.png","","","","exciting"
"","","","","","html-slider-response","24","190660","0.0-20.0","yfdb4gemhp","NaN","<div style=""width:500px;"">
                            <p style=""font-size:50px; font-weight:bold;""
                            >exciting</p>
                            <div style=""width:240px; margin: auto;"">
                                <img src=""images/gray_17.png"" style= ""width:200px""alt=""img"">
                            </div>
                        </div>","30","","0","images/gray_17.png","","","","exciting"
"","","","","","html-slider-response","25","192775","0.0-21.0","yfdb4gemhp","NaN","<div style=""width:500px;"">
                            <p style=""font-size:50px; font-weight:bold;""
                            >exciting</p>
                            <div style=""width:240px; margin: auto;"">
                                <img src=""images/gray_40.png"" style= ""width:200px""alt=""img"">
                            </div>
                        </div>","90","","0","images/gray_40.png","","","","exciting"
"","","","","","html-slider-response","26","194312","0.0-22.0","yfdb4gemhp","NaN","<div style=""width:500px;"">
                            <p style=""font-size:50px; font-weight:bold;""
                            >exciting</p>
                            <div style=""width:240px; margin: auto;"">
                                <img src=""images/gray_16.png"" style= ""width:200px""alt=""img"">
                            </div>
                        </div>","88","","0","images/gray_16.png","","","","exciting"
"","","","","","html-slider-response","27","196191","0.0-23.0","yfdb4gemhp","NaN","<div style=""width:500px;"">
                            <p style=""font-size:50px; font-weight:bold;""
                            >exciting</p>
                            <div style=""width:240px; margin: auto;"">
                                <img src=""images/gray_35.png"" style= ""width:200px""alt=""img"">
                            </div>
                        </div>","98","","0","images/gray_35.png","","","","exciting"
"","","","","","html-slider-response","28","197712","0.0-24.0","yfdb4gemhp","NaN","<div style=""width:500px;"">
                            <p style=""font-size:50px; font-weight:bold;""
                            >exciting</p>
                            <div style=""width:240px; margin: auto;"">
                                <img src=""images/gray_37.png"" style= ""width:200px""alt=""img"">
                            </div>
                        </div>","-70","","0","images/gray_37.png","","","","exciting"
"","","","","","html-slider-response","29","198794","0.0-25.0","yfdb4gemhp","NaN","<div style=""width:500px;"">
                            <p style=""font-size:50px; font-weight:bold;""
                            >exciting</p>
                            <div style=""width:240px; margin: auto;"">
                                <img src=""images/gray_13.png"" style= ""width:200px""alt=""img"">
                            </div>
                        </div>","-70","","0","images/gray_13.png","","","","exciting"
"","","","","","html-slider-response","30","199803","0.0-26.0","yfdb4gemhp","NaN","<div style=""width:500px;"">
                            <p style=""font-size:50px; font-weight:bold;""
                            >exciting</p>
                            <div style=""width:240px; margin: auto;"">
                                <img src=""images/gray_42.png"" style= ""width:200px""alt=""img"">
                            </div>
                        </div>","-70","","0","images/gray_42.png","","","","exciting"
"","","","","","html-slider-response","31","202163","0.0-27.0","yfdb4gemhp","NaN","<div style=""width:500px;"">
                            <p style=""font-size:50px; font-weight:bold;""
                            >exciting</p>
                            <div style=""width:240px; margin: auto;"">
                                <img src=""images/gray_31.png"" style= ""width:200px""alt=""img"">
                            </div>
                        </div>","90","","0","images/gray_31.png","","","","exciting"
"","","","","","html-slider-response","32","203920","0.0-28.0","yfdb4gemhp","NaN","<div style=""width:500px;"">
                            <p style=""font-size:50px; font-weight:bold;""
                            >exciting</p>
                            <div style=""width:240px; margin: auto;"">
                                <img src=""images/gray_12.png"" style= ""width:200px""alt=""img"">
                            </div>
                        </div>","-162","","0","images/gray_12.png","","","","exciting"
"","","","","","html-slider-response","33","205612","0.0-29.0","yfdb4gemhp","NaN","<div style=""width:500px;"">
                            <p style=""font-size:50px; font-weight:bold;""
                            >exciting</p>
                            <div style=""width:240px; margin: auto;"">
                                <img src=""images/gray_18.png"" style= ""width:200px""alt=""img"">
                            </div>
                        </div>","-162","","0","images/gray_18.png","","","","exciting"
"","","","","","html-slider-response","34","208646","0.0-30.0","yfdb4gemhp","NaN","<div style=""width:500px;"">
                            <p style=""font-size:50px; font-weight:bold;""
                            >exciting</p>
                            <div style=""width:240px; margin: auto;"">
                                <img src=""images/gray_21.png"" style= ""width:200px""alt=""img"">
                            </div>
                        </div>","-161","","0","images/gray_21.png","","","","exciting"
"","","","","","html-slider-response","35","210402","0.0-31.0","yfdb4gemhp","NaN","<div style=""width:500px;"">
                            <p style=""font-size:50px; font-weight:bold;""
                            >exciting</p>
                            <div style=""width:240px; margin: auto;"">
                                <img src=""images/gray_11.png"" style= ""width:200px""alt=""img"">
                            </div>
                        </div>","-161","","0","images/gray_11.png","","","","exciting"
"","","","","","html-slider-response","36","211875","0.0-32.0","yfdb4gemhp","NaN","<div style=""width:500px;"">
                            <p style=""font-size:50px; font-weight:bold;""
                            >exciting</p>
                            <div style=""width:240px; margin: auto;"">
                                <img src=""images/gray_32.png"" style= ""width:200px""alt=""img"">
                            </div>
                        </div>","-156","","0","images/gray_32.png","","","","exciting"
"","","","","","html-slider-response","37","213958","0.0-33.0","yfdb4gemhp","NaN","<div style=""width:500px;"">
                            <p style=""font-size:50px; font-weight:bold;""
                            >exciting</p>
                            <div style=""width:240px; margin: auto;"">
                                <img src=""images/gray_28.png"" style= ""width:200px""alt=""img"">
                            </div>
                        </div>","-156","","0","images/gray_28.png","","","","exciting"
"","","","","","html-slider-response","38","215438","0.0-34.0","yfdb4gemhp","NaN","<div style=""width:500px;"">
                            <p style=""font-size:50px; font-weight:bold;""
                            >exciting</p>
                            <div style=""width:240px; margin: auto;"">
                                <img src=""images/gray_04.png"" style= ""width:200px""alt=""img"">
                            </div>
                        </div>","-156","","0","images/gray_04.png","","","","exciting"
"","","","","","html-slider-response","39","217569","0.0-35.0","yfdb4gemhp","NaN","<div style=""width:500px;"">
                            <p style=""font-size:50px; font-weight:bold;""
                            >exciting</p>
                            <div style=""width:240px; margin: auto;"">
                                <img src=""images/gray_20.png"" style= ""width:200px""alt=""img"">
                            </div>
                        </div>","-46","","0","images/gray_20.png","","","","exciting"
"","","","","","html-slider-response","40","218773","0.0-36.0","yfdb4gemhp","NaN","<div style=""width:500px;"">
                            <p style=""font-size:50px; font-weight:bold;""
                            >exciting</p>
                            <div style=""width:240px; margin: auto;"">
                                <img src=""images/gray_03.png"" style= ""width:200px""alt=""img"">
                            </div>
                        </div>","-69","","0","images/gray_03.png","","","","exciting"
"","","","","","html-slider-response","41","220586","0.0-37.0","yfdb4gemhp","NaN","<div style=""width:500px;"">
                            <p style=""font-size:50px; font-weight:bold;""
                            >exciting</p>
                            <div style=""width:240px; margin: auto;"">
                                <img src=""images/gray_25.png"" style= ""width:200px""alt=""img"">
                            </div>
                        </div>","-70","","0","images/gray_25.png","","","","exciting"
"","","","","","html-slider-response","42","222255","0.0-38.0","yfdb4gemhp","NaN","<div style=""width:500px;"">
                            <p style=""font-size:50px; font-weight:bold;""
                            >exciting</p>
                            <div style=""width:240px; margin: auto;"">
                                <img src=""images/gray_38.png"" style= ""width:200px""alt=""img"">
                            </div>
                        </div>","-111","","0","images/gray_38.png","","","","exciting"
"","","","","","html-slider-response","43","224019","0.0-39.0","yfdb4gemhp","NaN","<div style=""width:500px;"">
                            <p style=""font-size:50px; font-weight:bold;""
                            >exciting</p>
                            <div style=""width:240px; margin: auto;"">
                                <img src=""images/gray_39.png"" style= ""width:200px""alt=""img"">
                            </div>
                        </div>","-66","","0","images/gray_39.png","","","","exciting"
"","","","","","html-slider-response","44","225746","0.0-40.0","yfdb4gemhp","NaN","<div style=""width:500px;"">
                            <p style=""font-size:50px; font-weight:bold;""
                            >exciting</p>
                            <div style=""width:240px; margin: auto;"">
                                <img src=""images/gray_30.png"" style= ""width:200px""alt=""img"">
                            </div>
                        </div>","106","","0","images/gray_30.png","","","","exciting"
"","","","","","html-slider-response","45","227331","0.0-41.0","yfdb4gemhp","NaN","<div style=""width:500px;"">
                            <p style=""font-size:50px; font-weight:bold;""
                            >exciting</p>
                            <div style=""width:240px; margin: auto;"">
                                <img src=""images/gray_22.png"" style= ""width:200px""alt=""img"">
                            </div>
                        </div>","-75","","0","images/gray_22.png","","","","exciting"
"","","","","","html-slider-response","46","228924","0.0-42.0","yfdb4gemhp","NaN","<div style=""width:500px;"">
                            <p style=""font-size:50px; font-weight:bold;""
                            >exciting</p>
                            <div style=""width:240px; margin: auto;"">
                                <img src=""images/gray_23.png"" style= ""width:200px""alt=""img"">
                            </div>
                        </div>","98","","0","images/gray_23.png","","","","exciting"
"","","","","","html-slider-response","47","231756","0.0-43.0","yfdb4gemhp","NaN","<div style=""width:500px;"">
                            <p style=""font-size:50px; font-weight:bold;""
                            >exciting</p>
                            <div style=""width:240px; margin: auto;"">
                                <img src=""images/gray_14.png"" style= ""width:200px""alt=""img"">
                            </div>
                        </div>","63","","0","images/gray_14.png","","","","exciting"
"","","","","","html-slider-response","48","233009","0.0-44.0","yfdb4gemhp","NaN","<div style=""width:500px;"">
                            <p style=""font-size:50px; font-weight:bold;""
                            >exciting</p>
                            <div style=""width:240px; margin: auto;"">
                                <img src=""images/gray_02.png"" style= ""width:200px""alt=""img"">
                            </div>
                        </div>","-54","","0","images/gray_02.png","","","","exciting"
"","","","","","html-slider-response","49","234221","0.0-45.0","yfdb4gemhp","NaN","<div style=""width:500px;"">
                            <p style=""font-size:50px; font-weight:bold;""
                            >exciting</p>
                            <div style=""width:240px; margin: auto;"">
                                <img src=""images/gray_05.png"" style= ""width:200px""alt=""img"">
                            </div>
                        </div>","-54","","0","images/gray_05.png","","","","exciting"
"","","","","","html-slider-response","50","236327","0.0-46.0","yfdb4gemhp","NaN","<div style=""width:500px;"">
                            <p style=""font-size:50px; font-weight:bold;""
                            >exciting</p>
                            <div style=""width:240px; margin: auto;"">
                                <img src=""images/gray_27.png"" style= ""width:200px""alt=""img"">
                            </div>
                        </div>","95","","0","images/gray_27.png","","","","exciting"
"","","","","","html-slider-response","51","238014","0.0-47.0","yfdb4gemhp","NaN","<div style=""width:500px;"">
                            <p style=""font-size:50px; font-weight:bold;""
                            >exciting</p>
                            <div style=""width:240px; margin: auto;"">
                                <img src=""images/gray_33.png"" style= ""width:200px""alt=""img"">
                            </div>
                        </div>","98","","0","images/gray_33.png","","","","exciting"
"","","","","","html-slider-response","52","239175","0.0-48.0","yfdb4gemhp","NaN","<div style=""width:500px;"">
                            <p style=""font-size:50px; font-weight:bold;""
                            >exciting</p>
                            <div style=""width:240px; margin: auto;"">
                                <img src=""images/gray_44.png"" style= ""width:200px""alt=""img"">
                            </div>
                        </div>","62","","0","images/gray_44.png","","","","exciting"
"","","","","","html-slider-response","53","240322","0.0-49.0","yfdb4gemhp","NaN","<div style=""width:500px;"">
                            <p style=""font-size:50px; font-weight:bold;""
                            >exciting</p>
                            <div style=""width:240px; margin: auto;"">
                                <img src=""images/gray_36.png"" style= ""width:200px""alt=""img"">
                            </div>
                        </div>","62","","0","images/gray_36.png","","","","exciting"
"","","","","","html-slider-response","54","241437","0.0-50.0","yfdb4gemhp","NaN","<div style=""width:500px;"">
                            <p style=""font-size:50px; font-weight:bold;""
                            >exciting</p>
                            <div style=""width:240px; margin: auto;"">
                                <img src=""images/gray_41.png"" style= ""width:200px""alt=""img"">
                            </div>
                        </div>","-47","","0","images/gray_41.png","","","","exciting"
"","","","","","html-slider-response","55","242877","0.0-51.0","yfdb4gemhp","NaN","<div style=""width:500px;"">
                            <p style=""font-size:50px; font-weight:bold;""
                            >exciting</p>
                            <div style=""width:240px; margin: auto;"">
                                <img src=""images/gray_26.png"" style= ""width:200px""alt=""img"">
                            </div>
                        </div>","55","","0","images/gray_26.png","","","","exciting"
"","","","","","html-slider-response","56","244475","0.0-52.0","yfdb4gemhp","NaN","<div style=""width:500px;"">
                            <p style=""font-size:50px; font-weight:bold;""
                            >exciting</p>
                            <div style=""width:240px; margin: auto;"">
                                <img src=""images/gray_34.png"" style= ""width:200px""alt=""img"">
                            </div>
                        </div>","-68","","0","images/gray_34.png","","","","exciting"
"","","","","","html-slider-response","57","252075","0.0-53.0","yfdb4gemhp","NaN","<div style=""width:500px;"">
                            <p style=""font-size:50px; font-weight:bold;""
                            >exciting</p>
                            <div style=""width:240px; margin: auto;"">
                                <img src=""images/gray_09.png"" style= ""width:200px""alt=""img"">
                            </div>
                        </div>","68","","0","images/gray_09.png","","","","exciting"
"","","","","","html-slider-response","58","254780","0.0-54.0","yfdb4gemhp","NaN","<div style=""width:500px;"">
                            <p style=""font-size:50px; font-weight:bold;""
                            >exciting</p>
                            <div style=""width:240px; margin: auto;"">
                                <img src=""images/gray_06.png"" style= ""width:200px""alt=""img"">
                            </div>
                        </div>","-79","","0","images/gray_06.png","","","","exciting"
"","","","","","html-slider-response","59","255954","0.0-55.0","yfdb4gemhp","NaN","<div style=""width:500px;"">
                            <p style=""font-size:50px; font-weight:bold;""
                            >exciting</p>
                            <div style=""width:240px; margin: auto;"">
                                <img src=""images/gray_01.png"" style= ""width:200px""alt=""img"">
                            </div>
                        </div>","-79","","0","images/gray_01.png","","","","exciting"
"","","","","","html-slider-response","60","257559","0.0-56.0","yfdb4gemhp","NaN","<div style=""width:500px;"">
                            <p style=""font-size:50px; font-weight:bold;""
                            >exciting</p>
                            <div style=""width:240px; margin: auto;"">
                                <img src=""images/gray_10.png"" style= ""width:200px""alt=""img"">
                            </div>
                        </div>","-64","","0","images/gray_10.png","","","","exciting"
"","","","","","html-slider-response","61","259051","0.0-57.0","yfdb4gemhp","NaN","<div style=""width:500px;"">
                            <p style=""font-size:50px; font-weight:bold;""
                            >exciting</p>
                            <div style=""width:240px; margin: auto;"">
                                <img src=""images/gray_29.png"" style= ""width:200px""alt=""img"">
                            </div>
                        </div>","89","","0","images/gray_29.png","","","","exciting"
"","","","","","html-button-response","62","261644","0.0-58.0","yfdb4gemhp","2087","<p>Great Job! You've finished block 1.<br></br> You have 7 block(s) left to go.<br></br></p>","0","","","","","","",""
"","","","","","html-button-response","63","262394","0.0-59.0","yfdb4gemhp","748","<p>In this block of trials, you will be asked to rate how much you associate each map with:</p > <p style = 'font-size:150%; font-weight: bold'>playful</p><br></br>","0","","","","","","",""
"","","","","","html-slider-response","64","263456","0.0-60.0","yfdb4gemhp","NaN","<div style=""width:500px;"">
                            <p style=""font-size:50px; font-weight:bold;""
                            >playful</p>
                            <div style=""width:240px; margin: auto;"">
                                <img src=""images/gray_38.png"" style= ""width:200px""alt=""img"">
                            </div>
                        </div>","65","","0","images/gray_38.png","","","","playful"
"","","","","","html-slider-response","65","265084","0.0-61.0","yfdb4gemhp","NaN","<div style=""width:500px;"">
                            <p style=""font-size:50px; font-weight:bold;""
                            >playful</p>
                            <div style=""width:240px; margin: auto;"">
                                <img src=""images/gray_06.png"" style= ""width:200px""alt=""img"">
                            </div>
                        </div>","65","","0","images/gray_06.png","","","","playful"
"","","","","","html-slider-response","66","266345","0.0-62.0","yfdb4gemhp","NaN","<div style=""width:500px;"">
                            <p style=""font-size:50px; font-weight:bold;""
                            >playful</p>
                            <div style=""width:240px; margin: auto;"">
                                <img src=""images/gray_22.png"" style= ""width:200px""alt=""img"">
                            </div>
                        </div>","65","","0","images/gray_22.png","","","","playful"
"","","","","","html-slider-response","67","267428","0.0-63.0","yfdb4gemhp","NaN","<div style=""width:500px;"">
                            <p style=""font-size:50px; font-weight:bold;""
                            >playful</p>
                            <div style=""width:240px; margin: auto;"">
                                <img src=""images/gray_25.png"" style= ""width:200px""alt=""img"">
                            </div>
                        </div>","65","","0","images/gray_25.png","","","","playful"
"","","","","","html-slider-response","68","268892","0.0-64.0","yfdb4gemhp","NaN","<div style=""width:500px;"">
                            <p style=""font-size:50px; font-weight:bold;""
                            >playful</p>
                            <div style=""width:240px; margin: auto;"">
                                <img src=""images/gray_33.png"" style= ""width:200px""alt=""img"">
                            </div>
                        </div>","65","","0","images/gray_33.png","","","","playful"
"","","","","","html-slider-response","69","269894","0.0-65.0","yfdb4gemhp","NaN","<div style=""width:500px;"">
                            <p style=""font-size:50px; font-weight:bold;""
                            >playful</p>
                            <div style=""width:240px; margin: auto;"">
                                <img src=""images/gray_28.png"" style= ""width:200px""alt=""img"">
                            </div>
                        </div>","65","","0","images/gray_28.png","","","","playful"
"","","","","","html-slider-response","70","271368","0.0-66.0","yfdb4gemhp","NaN","<div style=""width:500px;"">
                            <p style=""font-size:50px; font-weight:bold;""
                            >playful</p>
                            <div style=""width:240px; margin: auto;"">
                                <img src=""images/gray_08.png"" style= ""width:200px""alt=""img"">
                            </div>
                        </div>","110","","0","images/gray_08.png","","","","playful"
"","","","","","html-slider-response","71","273109","0.0-67.0","yfdb4gemhp","NaN","<div style=""width:500px;"">
                            <p style=""font-size:50px; font-weight:bold;""
                            >playful</p>
                            <div style=""width:240px; margin: auto;"">
                                <img src=""images/gray_19.png"" style= ""width:200px""alt=""img"">
                            </div>
                        </div>","143","","0","images/gray_19.png","","","","playful"
"","","","","","html-slider-response","72","274860","0.0-68.0","yfdb4gemhp","NaN","<div style=""width:500px;"">
                            <p style=""font-size:50px; font-weight:bold;""
                            >playful</p>
                            <div style=""width:240px; margin: auto;"">
                                <img src=""images/gray_40.png"" style= ""width:200px""alt=""img"">
                            </div>
                        </div>","174","","0","images/gray_40.png","","","","playful"
"","","","","","html-slider-response","73","276056","0.0-69.0","yfdb4gemhp","NaN","<div style=""width:500px;"">
                            <p style=""font-size:50px; font-weight:bold;""
                            >playful</p>
                            <div style=""width:240px; margin: auto;"">
                                <img src=""images/gray_13.png"" style= ""width:200px""alt=""img"">
                            </div>
                        </div>","166","","0","images/gray_13.png","","","","playful"
"","","","","","html-slider-response","74","277506","0.0-70.0","yfdb4gemhp","NaN","<div style=""width:500px;"">
                            <p style=""font-size:50px; font-weight:bold;""
                            >playful</p>
                            <div style=""width:240px; margin: auto;"">
                                <img src=""images/gray_09.png"" style= ""width:200px""alt=""img"">
                            </div>
                        </div>","151","","0","images/gray_09.png","","","","playful"
"","","","","","html-slider-response","75","279230","0.0-71.0","yfdb4gemhp","NaN","<div style=""width:500px;"">
                            <p style=""font-size:50px; font-weight:bold;""
                            >playful</p>
                            <div style=""width:240px; margin: auto;"">
                                <img src=""images/gray_05.png"" style= ""width:200px""alt=""img"">
                            </div>
                        </div>","-122","","0","images/gray_05.png","","","","playful"
"","","","","","html-slider-response","76","280420","0.0-72.0","yfdb4gemhp","NaN","<div style=""width:500px;"">
                            <p style=""font-size:50px; font-weight:bold;""
                            >playful</p>
                            <div style=""width:240px; margin: auto;"">
                                <img src=""images/gray_41.png"" style= ""width:200px""alt=""img"">
                            </div>
                        </div>","-126","","0","images/gray_41.png","","","","playful"
"","","","","","html-slider-response","77","339507","0.0-73.0","yfdb4gemhp","NaN","<div style=""width:500px;"">
                            <p style=""font-size:50px; font-weight:bold;""
                            >playful</p>
                            <div style=""width:240px; margin: auto;"">
                                <img src=""images/gray_31.png"" style= ""width:200px""alt=""img"">
                            </div>
                        </div>","-110","","0","images/gray_31.png","","","","playful"
"","","","","","html-slider-response","78","341029","0.0-74.0","yfdb4gemhp","NaN","<div style=""width:500px;"">
                            <p style=""font-size:50px; font-weight:bold;""
                            >playful</p>
                            <div style=""width:240px; margin: auto;"">
                                <img src=""images/gray_20.png"" style= ""width:200px""alt=""img"">
                            </div>
                        </div>","106","","0","images/gray_20.png","","","","playful"
"","","","","","html-slider-response","79","342883","0.0-75.0","yfdb4gemhp","NaN","<div style=""width:500px;"">
                            <p style=""font-size:50px; font-weight:bold;""
                            >playful</p>
                            <div style=""width:240px; margin: auto;"">
                                <img src=""images/gray_29.png"" style= ""width:200px""alt=""img"">
                            </div>
                        </div>","-105","","0","images/gray_29.png","","","","playful"
"","","","","","html-slider-response","80","344477","0.0-76.0","yfdb4gemhp","NaN","<div style=""width:500px;"">
                            <p style=""font-size:50px; font-weight:bold;""
                            >playful</p>
                            <div style=""width:240px; margin: auto;"">
                                <img src=""images/gray_44.png"" style= ""width:200px""alt=""img"">
                            </div>
                        </div>","47","","0","images/gray_44.png","","","","playful"
"","","","","","html-slider-response","81","345716","0.0-77.0","yfdb4gemhp","NaN","<div style=""width:500px;"">
                            <p style=""font-size:50px; font-weight:bold;""
                            >playful</p>
                            <div style=""width:240px; margin: auto;"">
                                <img src=""images/gray_04.png"" style= ""width:200px""alt=""img"">
                            </div>
                        </div>","66","","0","images/gray_04.png","","","","playful"
"","","","","","html-slider-response","82","346904","0.0-78.0","yfdb4gemhp","NaN","<div style=""width:500px;"">
                            <p style=""font-size:50px; font-weight:bold;""
                            >playful</p>
                            <div style=""width:240px; margin: auto;"">
                                <img src=""images/gray_17.png"" style= ""width:200px""alt=""img"">
                            </div>
                        </div>","66","","0","images/gray_17.png","","","","playful"
"","","","","","html-slider-response","83","348066","0.0-79.0","yfdb4gemhp","NaN","<div style=""width:500px;"">
                            <p style=""font-size:50px; font-weight:bold;""
                            >playful</p>
                            <div style=""width:240px; margin: auto;"">
                                <img src=""images/gray_30.png"" style= ""width:200px""alt=""img"">
                            </div>
                        </div>","66","","0","images/gray_30.png","","","","playful"
"","","","","","html-slider-response","84","349329","0.0-80.0","yfdb4gemhp","NaN","<div style=""width:500px;"">
                            <p style=""font-size:50px; font-weight:bold;""
                            >playful</p>
                            <div style=""width:240px; margin: auto;"">
                                <img src=""images/gray_37.png"" style= ""width:200px""alt=""img"">
                            </div>
                        </div>","66","","0","images/gray_37.png","","","","playful"
"","","","","","html-slider-response","85","350751","0.0-81.0","yfdb4gemhp","NaN","<div style=""width:500px;"">
                            <p style=""font-size:50px; font-weight:bold;""
                            >playful</p>
                            <div style=""width:240px; margin: auto;"">
                                <img src=""images/gray_12.png"" style= ""width:200px""alt=""img"">
                            </div>
                        </div>","125","","0","images/gray_12.png","","","","playful"
"","","","","","html-slider-response","86","352158","0.0-82.0","yfdb4gemhp","NaN","<div style=""width:500px;"">
                            <p style=""font-size:50px; font-weight:bold;""
                            >playful</p>
                            <div style=""width:240px; margin: auto;"">
                                <img src=""images/gray_07.png"" style= ""width:200px""alt=""img"">
                            </div>
                        </div>","153","","0","images/gray_07.png","","","","playful"
"","","","","","html-slider-response","87","353215","0.0-83.0","yfdb4gemhp","NaN","<div style=""width:500px;"">
                            <p style=""font-size:50px; font-weight:bold;""
                            >playful</p>
                            <div style=""width:240px; margin: auto;"">
                                <img src=""images/gray_42.png"" style= ""width:200px""alt=""img"">
                            </div>
                        </div>","131","","0","images/gray_42.png","","","","playful"
"","","","","","html-slider-response","88","354224","0.0-84.0","yfdb4gemhp","NaN","<div style=""width:500px;"">
                            <p style=""font-size:50px; font-weight:bold;""
                            >playful</p>
                            <div style=""width:240px; margin: auto;"">
                                <img src=""images/gray_43.png"" style= ""width:200px""alt=""img"">
                            </div>
                        </div>","64","","0","images/gray_43.png","","","","playful"
"","","","","","html-slider-response","89","356436","0.0-85.0","yfdb4gemhp","NaN","<div style=""width:500px;"">
                            <p style=""font-size:50px; font-weight:bold;""
                            >playful</p>
                            <div style=""width:240px; margin: auto;"">
                                <img src=""images/gray_26.png"" style= ""width:200px""alt=""img"">
                            </div>
                        </div>","92","","0","images/gray_26.png","","","","playful"
"","","","","","html-slider-response","90","357584","0.0-86.0","yfdb4gemhp","NaN","<div style=""width:500px;"">
                            <p style=""font-size:50px; font-weight:bold;""
                            >playful</p>
                            <div style=""width:240px; margin: auto;"">
                                <img src=""images/gray_32.png"" style= ""width:200px""alt=""img"">
                            </div>
                        </div>","114","","0","images/gray_32.png","","","","playful"
"","","","","","html-slider-response","91","358975","0.0-87.0","yfdb4gemhp","NaN","<div style=""width:500px;"">
                            <p style=""font-size:50px; font-weight:bold;""
                            >playful</p>
                            <div style=""width:240px; margin: auto;"">
                                <img src=""images/gray_14.png"" style= ""width:200px""alt=""img"">
                            </div>
                        </div>","-100","","0","images/gray_14.png","","","","playful"
"","","","","","html-slider-response","92","360171","0.0-88.0","yfdb4gemhp","NaN","<div style=""width:500px;"">
                            <p style=""font-size:50px; font-weight:bold;""
                            >playful</p>
                            <div style=""width:240px; margin: auto;"">
                                <img src=""images/gray_18.png"" style= ""width:200px""alt=""img"">
                            </div>
                        </div>","-100","","0","images/gray_18.png","","","","playful"
"","","","","","html-slider-response","93","361351","0.0-89.0","yfdb4gemhp","NaN","<div style=""width:500px;"">
                            <p style=""font-size:50px; font-weight:bold;""
                            >playful</p>
                            <div style=""width:240px; margin: auto;"">
                                <img src=""images/gray_15.png"" style= ""width:200px""alt=""img"">
                            </div>
                        </div>","-100","","0","images/gray_15.png","","","","playful"
"","","","","","html-slider-response","94","366541","0.0-90.0","yfdb4gemhp","NaN","<div style=""width:500px;"">
                            <p style=""font-size:50px; font-weight:bold;""
                            >playful</p>
                            <div style=""width:240px; margin: auto;"">
                                <img src=""images/gray_27.png"" style= ""width:200px""alt=""img"">
                            </div>
                        </div>","-90","","0","images/gray_27.png","","","","playful"
"","","","","","html-slider-response","95","368421","0.0-91.0","yfdb4gemhp","NaN","<div style=""width:500px;"">
                            <p style=""font-size:50px; font-weight:bold;""
                            >playful</p>
                            <div style=""width:240px; margin: auto;"">
                                <img src=""images/gray_39.png"" style= ""width:200px""alt=""img"">
                            </div>
                        </div>","-67","","0","images/gray_39.png","","","","playful"
"","","","","","html-slider-response","96","369617","0.0-92.0","yfdb4gemhp","NaN","<div style=""width:500px;"">
                            <p style=""font-size:50px; font-weight:bold;""
                            >playful</p>
                            <div style=""width:240px; margin: auto;"">
                                <img src=""images/gray_02.png"" style= ""width:200px""alt=""img"">
                            </div>
                        </div>","101","","0","images/gray_02.png","","","","playful"
"","","","","","html-slider-response","97","484221","0.0-93.0","yfdb4gemhp","NaN","<div style=""width:500px;"">
                            <p style=""font-size:50px; font-weight:bold;""
                            >playful</p>
                            <div style=""width:240px; margin: auto;"">
                                <img src=""images/gray_21.png"" style= ""width:200px""alt=""img"">
                            </div>
                        </div>","87","","0","images/gray_21.png","","","","playful"
"","","","","","html-slider-response","98","485350","0.0-94.0","yfdb4gemhp","NaN","<div style=""width:500px;"">
                            <p style=""font-size:50px; font-weight:bold;""
                            >playful</p>
                            <div style=""width:240px; margin: auto;"">
                                <img src=""images/gray_11.png"" style= ""width:200px""alt=""img"">
                            </div>
                        </div>","104","","0","images/gray_11.png","","","","playful"
"","","","","","html-slider-response","99","486376","0.0-95.0","yfdb4gemhp","NaN","<div style=""width:500px;"">
                            <p style=""font-size:50px; font-weight:bold;""
                            >playful</p>
                            <div style=""width:240px; margin: auto;"">
                                <img src=""images/gray_01.png"" style= ""width:200px""alt=""img"">
                            </div>
                        </div>","103","","0","images/gray_01.png","","","","playful"
"","","","","","html-slider-response","100","487319","0.0-96.0","yfdb4gemhp","NaN","<div style=""width:500px;"">
                            <p style=""font-size:50px; font-weight:bold;""
                            >playful</p>
                            <div style=""width:240px; margin: auto;"">
                                <img src=""images/gray_34.png"" style= ""width:200px""alt=""img"">
                            </div>
                        </div>","103","","0","images/gray_34.png","","","","playful"
"","","","","","html-slider-response","101","488523","0.0-97.0","yfdb4gemhp","NaN","<div style=""width:500px;"">
                            <p style=""font-size:50px; font-weight:bold;""
                            >playful</p>
                            <div style=""width:240px; margin: auto;"">
                                <img src=""images/gray_36.png"" style= ""width:200px""alt=""img"">
                            </div>
                        </div>","92","","0","images/gray_36.png","","","","playful"
"","","","","","html-slider-response","102","489908","0.0-98.0","yfdb4gemhp","NaN","<div style=""width:500px;"">
                            <p style=""font-size:50px; font-weight:bold;""
                            >playful</p>
                            <div style=""width:240px; margin: auto;"">
                                <img src=""images/gray_10.png"" style= ""width:200px""alt=""img"">
                            </div>
                        </div>","89","","0","images/gray_10.png","","","","playful"
"","","","","","html-slider-response","103","491028","0.0-99.0","yfdb4gemhp","NaN","<div style=""width:500px;"">
                            <p style=""font-size:50px; font-weight:bold;""
                            >playful</p>
                            <div style=""width:240px; margin: auto;"">
                                <img src=""images/gray_24.png"" style= ""width:200px""alt=""img"">
                            </div>
                        </div>","89","","0","images/gray_24.png","","","","playful"
"","","","","","html-slider-response","104","491907","0.0-100.0","yfdb4gemhp","NaN","<div style=""width:500px;"">
                            <p style=""font-size:50px; font-weight:bold;""
                            >playful</p>
                            <div style=""width:240px; margin: auto;"">
                                <img src=""images/gray_35.png"" style= ""width:200px""alt=""img"">
                            </div>
                        </div>","89","","0","images/gray_35.png","","","","playful"
"","","","","","html-slider-response","105","493273","0.0-101.0","yfdb4gemhp","NaN","<div style=""width:500px;"">
                            <p style=""font-size:50px; font-weight:bold;""
                            >playful</p>
                            <div style=""width:240px; margin: auto;"">
                                <img src=""images/gray_16.png"" style= ""width:200px""alt=""img"">
                            </div>
                        </div>","-87","","0","images/gray_16.png","","","","playful"
"","","","","","html-slider-response","106","494340","0.0-102.0","yfdb4gemhp","NaN","<div style=""width:500px;"">
                            <p style=""font-size:50px; font-weight:bold;""
                            >playful</p>
                            <div style=""width:240px; margin: auto;"">
                                <img src=""images/gray_23.png"" style= ""width:200px""alt=""img"">
                            </div>
                        </div>","-87","","0","images/gray_23.png","","","","playful"
"","","","","","html-slider-response","107","495219","0.0-103.0","yfdb4gemhp","NaN","<div style=""width:500px;"">
                            <p style=""font-size:50px; font-weight:bold;""
                            >playful</p>
                            <div style=""width:240px; margin: auto;"">
                                <img src=""images/gray_03.png"" style= ""width:200px""alt=""img"">
                            </div>
                        </div>","-87","","0","images/gray_03.png","","","","playful"
"","","","","","html-button-response","108","584482","0.0-104.0","yfdb4gemhp","88760","<p>Great Job! You've finished block 2.<br></br> You have 6 block(s) left to go.<br></br></p>","0","","","","","","",""
"","","","","","html-button-response","109","585068","0.0-105.0","yfdb4gemhp","585","<p>In this block of trials, you will be asked to rate how much you associate each map with:</p > <p style = 'font-size:150%; font-weight: bold'>positive</p><br></br>","0","","","","","","",""
"","","","","","html-slider-response","110","586355","0.0-106.0","yfdb4gemhp","NaN","<div style=""width:500px;"">
                            <p style=""font-size:50px; font-weight:bold;""
                            >positive</p>
                            <div style=""width:240px; margin: auto;"">
                                <img src=""images/gray_12.png"" style= ""width:200px""alt=""img"">
                            </div>
                        </div>","-69","","0","images/gray_12.png","","","","positive"
"","","","","","html-slider-response","111","587203","0.0-107.0","yfdb4gemhp","NaN","<div style=""width:500px;"">
                            <p style=""font-size:50px; font-weight:bold;""
                            >positive</p>
                            <div style=""width:240px; margin: auto;"">
                                <img src=""images/gray_05.png"" style= ""width:200px""alt=""img"">
                            </div>
                        </div>","-80","","0","images/gray_05.png","","","","positive"
"","","","","","html-slider-response","112","588023","0.0-108.0","yfdb4gemhp","NaN","<div style=""width:500px;"">
                            <p style=""font-size:50px; font-weight:bold;""
                            >positive</p>
                            <div style=""width:240px; margin: auto;"">
                                <img src=""images/gray_38.png"" style= ""width:200px""alt=""img"">
                            </div>
                        </div>","-80","","0","images/gray_38.png","","","","positive"
"","","","","","html-slider-response","113","588861","0.0-109.0","yfdb4gemhp","NaN","<div style=""width:500px;"">
                            <p style=""font-size:50px; font-weight:bold;""
                            >positive</p>
                            <div style=""width:240px; margin: auto;"">
                                <img src=""images/gray_43.png"" style= ""width:200px""alt=""img"">
                            </div>
                        </div>","-80","","0","images/gray_43.png","","","","positive"
"","","","","","html-slider-response","114","589610","0.0-110.0","yfdb4gemhp","NaN","<div style=""width:500px;"">
                            <p style=""font-size:50px; font-weight:bold;""
                            >positive</p>
                            <div style=""width:240px; margin: auto;"">
                                <img src=""images/gray_06.png"" style= ""width:200px""alt=""img"">
                            </div>
                        </div>","-80","","0","images/gray_06.png","","","","positive"
"","","","","","html-slider-response","115","591059","0.0-111.0","yfdb4gemhp","NaN","<div style=""width:500px;"">
                            <p style=""font-size:50px; font-weight:bold;""
                            >positive</p>
                            <div style=""width:240px; margin: auto;"">
                                <img src=""images/gray_32.png"" style= ""width:200px""alt=""img"">
                            </div>
                        </div>","-80","","0","images/gray_32.png","","","","positive"
"","","","","","html-slider-response","116","591799","0.0-112.0","yfdb4gemhp","NaN","<div style=""width:500px;"">
                            <p style=""font-size:50px; font-weight:bold;""
                            >positive</p>
                            <div style=""width:240px; margin: auto;"">
                                <img src=""images/gray_16.png"" style= ""width:200px""alt=""img"">
                            </div>
                        </div>","-80","","0","images/gray_16.png","","","","positive"
"","","","","","html-slider-response","117","592670","0.0-113.0","yfdb4gemhp","NaN","<div style=""width:500px;"">
                            <p style=""font-size:50px; font-weight:bold;""
                            >positive</p>
                            <div style=""width:240px; margin: auto;"">
                                <img src=""images/gray_09.png"" style= ""width:200px""alt=""img"">
                            </div>
                        </div>","-80","","0","images/gray_09.png","","","","positive"
"","","","","","html-slider-response","118","593548","0.0-114.0","yfdb4gemhp","NaN","<div style=""width:500px;"">
                            <p style=""font-size:50px; font-weight:bold;""
                            >positive</p>
                            <div style=""width:240px; margin: auto;"">
                                <img src=""images/gray_24.png"" style= ""width:200px""alt=""img"">
                            </div>
                        </div>","-80","","0","images/gray_24.png","","","","positive"
"","","","","","html-slider-response","119","595020","0.0-115.0","yfdb4gemhp","NaN","<div style=""width:500px;"">
                            <p style=""font-size:50px; font-weight:bold;""
                            >positive</p>
                            <div style=""width:240px; margin: auto;"">
                                <img src=""images/gray_22.png"" style= ""width:200px""alt=""img"">
                            </div>
                        </div>","-80","","0","images/gray_22.png","","","","positive"
"","","","","","html-slider-response","120","595957","0.0-116.0","yfdb4gemhp","NaN","<div style=""width:500px;"">
                            <p style=""font-size:50px; font-weight:bold;""
                            >positive</p>
                            <div style=""width:240px; margin: auto;"">
                                <img src=""images/gray_25.png"" style= ""width:200px""alt=""img"">
                            </div>
                        </div>","-80","","0","images/gray_25.png","","","","positive"
"","","","","","html-slider-response","121","597502","0.0-117.0","yfdb4gemhp","NaN","<div style=""width:500px;"">
                            <p style=""font-size:50px; font-weight:bold;""
                            >positive</p>
                            <div style=""width:240px; margin: auto;"">
                                <img src=""images/gray_31.png"" style= ""width:200px""alt=""img"">
                            </div>
                        </div>","82","","0","images/gray_31.png","","","","positive"
"","","","","","html-slider-response","122","598453","0.0-118.0","yfdb4gemhp","NaN","<div style=""width:500px;"">
                            <p style=""font-size:50px; font-weight:bold;""
                            >positive</p>
                            <div style=""width:240px; margin: auto;"">
                                <img src=""images/gray_44.png"" style= ""width:200px""alt=""img"">
                            </div>
                        </div>","129","","0","images/gray_44.png","","","","positive"
"","","","","","html-slider-response","123","599358","0.0-119.0","yfdb4gemhp","NaN","<div style=""width:500px;"">
                            <p style=""font-size:50px; font-weight:bold;""
                            >positive</p>
                            <div style=""width:240px; margin: auto;"">
                                <img src=""images/gray_19.png"" style= ""width:200px""alt=""img"">
                            </div>
                        </div>","121","","0","images/gray_19.png","","","","positive"
"","","","","","html-slider-response","124","600357","0.0-120.0","yfdb4gemhp","NaN","<div style=""width:500px;"">
                            <p style=""font-size:50px; font-weight:bold;""
                            >positive</p>
                            <div style=""width:240px; margin: auto;"">
                                <img src=""images/gray_02.png"" style= ""width:200px""alt=""img"">
                            </div>
                        </div>","113","","0","images/gray_02.png","","","","positive"
"","","","","","html-slider-response","125","628366","0.0-121.0","yfdb4gemhp","NaN","<div style=""width:500px;"">
                            <p style=""font-size:50px; font-weight:bold;""
                            >positive</p>
                            <div style=""width:240px; margin: auto;"">
                                <img src=""images/gray_33.png"" style= ""width:200px""alt=""img"">
                            </div>
                        </div>","113","","0","images/gray_33.png","","","","positive"
"","","","","","html-slider-response","126","629309","0.0-122.0","yfdb4gemhp","NaN","<div style=""width:500px;"">
                            <p style=""font-size:50px; font-weight:bold;""
                            >positive</p>
                            <div style=""width:240px; margin: auto;"">
                                <img src=""images/gray_18.png"" style= ""width:200px""alt=""img"">
                            </div>
                        </div>","113","","0","images/gray_18.png","","","","positive"
"","","","","","html-slider-response","127","632973","0.0-123.0","yfdb4gemhp","NaN","<div style=""width:500px;"">
                            <p style=""font-size:50px; font-weight:bold;""
                            >positive</p>
                            <div style=""width:240px; margin: auto;"">
                                <img src=""images/gray_27.png"" style= ""width:200px""alt=""img"">
                            </div>
                        </div>","113","","0","images/gray_27.png","","","","positive"
"","","","","","html-slider-response","128","633973","0.0-124.0","yfdb4gemhp","NaN","<div style=""width:500px;"">
                            <p style=""font-size:50px; font-weight:bold;""
                            >positive</p>
                            <div style=""width:240px; margin: auto;"">
                                <img src=""images/gray_23.png"" style= ""width:200px""alt=""img"">
                            </div>
                        </div>","94","","0","images/gray_23.png","","","","positive"
"","","","","","html-slider-response","129","636024","0.0-125.0","yfdb4gemhp","NaN","<div style=""width:500px;"">
                            <p style=""font-size:50px; font-weight:bold;""
                            >positive</p>
                            <div style=""width:240px; margin: auto;"">
                                <img src=""images/gray_36.png"" style= ""width:200px""alt=""img"">
                            </div>
                        </div>","-82","","0","images/gray_36.png","","","","positive"
"","","","","","html-slider-response","130","638016","0.0-126.0","yfdb4gemhp","NaN","<div style=""width:500px;"">
                            <p style=""font-size:50px; font-weight:bold;""
                            >positive</p>
                            <div style=""width:240px; margin: auto;"">
                                <img src=""images/gray_42.png"" style= ""width:200px""alt=""img"">
                            </div>
                        </div>","-82","","0","images/gray_42.png","","","","positive"
"","","","","","html-slider-response","131","640008","0.0-127.0","yfdb4gemhp","NaN","<div style=""width:500px;"">
                            <p style=""font-size:50px; font-weight:bold;""
                            >positive</p>
                            <div style=""width:240px; margin: auto;"">
                                <img src=""images/gray_17.png"" style= ""width:200px""alt=""img"">
                            </div>
                        </div>","111","","0","images/gray_17.png","","","","positive"
"","","","","","html-slider-response","132","640913","0.0-128.0","yfdb4gemhp","NaN","<div style=""width:500px;"">
                            <p style=""font-size:50px; font-weight:bold;""
                            >positive</p>
                            <div style=""width:240px; margin: auto;"">
                                <img src=""images/gray_07.png"" style= ""width:200px""alt=""img"">
                            </div>
                        </div>","111","","0","images/gray_07.png","","","","positive"
"","","","","","html-slider-response","133","641694","0.0-129.0","yfdb4gemhp","NaN","<div style=""width:500px;"">
                            <p style=""font-size:50px; font-weight:bold;""
                            >positive</p>
                            <div style=""width:240px; margin: auto;"">
                                <img src=""images/gray_41.png"" style= ""width:200px""alt=""img"">
                            </div>
                        </div>","111","","0","images/gray_41.png","","","","positive"
"","","","","","html-slider-response","134","643680","0.0-130.0","yfdb4gemhp","NaN","<div style=""width:500px;"">
                            <p style=""font-size:50px; font-weight:bold;""
                            >positive</p>
                            <div style=""width:240px; margin: auto;"">
                                <img src=""images/gray_21.png"" style= ""width:200px""alt=""img"">
                            </div>
                        </div>","-98","","0","images/gray_21.png","","","","positive"
"","","","","","html-slider-response","135","644851","0.0-131.0","yfdb4gemhp","NaN","<div style=""width:500px;"">
                            <p style=""font-size:50px; font-weight:bold;""
                            >positive</p>
                            <div style=""width:240px; margin: auto;"">
                                <img src=""images/gray_11.png"" style= ""width:200px""alt=""img"">
                            </div>
                        </div>","56","","0","images/gray_11.png","","","","positive"
"","","","","","html-slider-response","136","645885","0.0-132.0","yfdb4gemhp","NaN","<div style=""width:500px;"">
                            <p style=""font-size:50px; font-weight:bold;""
                            >positive</p>
                            <div style=""width:240px; margin: auto;"">
                                <img src=""images/gray_39.png"" style= ""width:200px""alt=""img"">
                            </div>
                        </div>","94","","0","images/gray_39.png","","","","positive"
"","","","","","html-slider-response","137","647292","0.0-133.0","yfdb4gemhp","NaN","<div style=""width:500px;"">
                            <p style=""font-size:50px; font-weight:bold;""
                            >positive</p>
                            <div style=""width:240px; margin: auto;"">
                                <img src=""images/gray_13.png"" style= ""width:200px""alt=""img"">
                            </div>
                        </div>","107","","0","images/gray_13.png","","","","positive"
"","","","","","html-slider-response","138","648553","0.0-134.0","yfdb4gemhp","NaN","<div style=""width:500px;"">
                            <p style=""font-size:50px; font-weight:bold;""
                            >positive</p>
                            <div style=""width:240px; margin: auto;"">
                                <img src=""images/gray_26.png"" style= ""width:200px""alt=""img"">
                            </div>
                        </div>","116","","0","images/gray_26.png","","","","positive"
"","","","","","html-slider-response","139","650114","0.0-135.0","yfdb4gemhp","NaN","<div style=""width:500px;"">
                            <p style=""font-size:50px; font-weight:bold;""
                            >positive</p>
                            <div style=""width:240px; margin: auto;"">
                                <img src=""images/gray_37.png"" style= ""width:200px""alt=""img"">
                            </div>
                        </div>","86","","0","images/gray_37.png","","","","positive"
"","","","","","html-slider-response","140","651002","0.0-136.0","yfdb4gemhp","NaN","<div style=""width:500px;"">
                            <p style=""font-size:50px; font-weight:bold;""
                            >positive</p>
                            <div style=""width:240px; margin: auto;"">
                                <img src=""images/gray_14.png"" style= ""width:200px""alt=""img"">
                            </div>
                        </div>","105","","0","images/gray_14.png","","","","positive"
"","","","","","html-slider-response","141","652627","0.0-137.0","yfdb4gemhp","NaN","<div style=""width:500px;"">
                            <p style=""font-size:50px; font-weight:bold;""
                            >positive</p>
                            <div style=""width:240px; margin: auto;"">
                                <img src=""images/gray_35.png"" style= ""width:200px""alt=""img"">
                            </div>
                        </div>","162","","0","images/gray_35.png","","","","positive"
"","","","","","html-slider-response","142","653507","0.0-138.0","yfdb4gemhp","NaN","<div style=""width:500px;"">
                            <p style=""font-size:50px; font-weight:bold;""
                            >positive</p>
                            <div style=""width:240px; margin: auto;"">
                                <img src=""images/gray_03.png"" style= ""width:200px""alt=""img"">
                            </div>
                        </div>","-110","","0","images/gray_03.png","","","","positive"
"","","","","","html-slider-response","143","654491","0.0-139.0","yfdb4gemhp","NaN","<div style=""width:500px;"">
                            <p style=""font-size:50px; font-weight:bold;""
                            >positive</p>
                            <div style=""width:240px; margin: auto;"">
                                <img src=""images/gray_30.png"" style= ""width:200px""alt=""img"">
                            </div>
                        </div>","-110","","0","images/gray_30.png","","","","positive"
"","","","","","html-slider-response","144","655704","0.0-140.0","yfdb4gemhp","NaN","<div style=""width:500px;"">
                            <p style=""font-size:50px; font-weight:bold;""
                            >positive</p>
                            <div style=""width:240px; margin: auto;"">
                                <img src=""images/gray_04.png"" style= ""width:200px""alt=""img"">
                            </div>
                        </div>","-110","","0","images/gray_04.png","","","","positive"
"","","","","","html-slider-response","145","658157","0.0-141.0","yfdb4gemhp","NaN","<div style=""width:500px;"">
                            <p style=""font-size:50px; font-weight:bold;""
                            >positive</p>
                            <div style=""width:240px; margin: auto;"">
                                <img src=""images/gray_40.png"" style= ""width:200px""alt=""img"">
                            </div>
                        </div>","-110","","0","images/gray_40.png","","","","positive"
"","","","","","html-slider-response","146","666353","0.0-142.0","yfdb4gemhp","NaN","<div style=""width:500px;"">
                            <p style=""font-size:50px; font-weight:bold;""
                            >positive</p>
                            <div style=""width:240px; margin: auto;"">
                                <img src=""images/gray_20.png"" style= ""width:200px""alt=""img"">
                            </div>
                        </div>","-78","","0","images/gray_20.png","","","","positive"
"","","","","","html-slider-response","147","667948","0.0-143.0","yfdb4gemhp","NaN","<div style=""width:500px;"">
                            <p style=""font-size:50px; font-weight:bold;""
                            >positive</p>
                            <div style=""width:240px; margin: auto;"">
                                <img src=""images/gray_08.png"" style= ""width:200px""alt=""img"">
                            </div>
                        </div>","100","","0","images/gray_08.png","","","","positive"
"","","","","","html-slider-response","148","669347","0.0-144.0","yfdb4gemhp","NaN","<div style=""width:500px;"">
                            <p style=""font-size:50px; font-weight:bold;""
                            >positive</p>
                            <div style=""width:240px; margin: auto;"">
                                <img src=""images/gray_01.png"" style= ""width:200px""alt=""img"">
                            </div>
                        </div>","100","","0","images/gray_01.png","","","","positive"
"","","","","","html-slider-response","149","681148","0.0-145.0","yfdb4gemhp","NaN","<div style=""width:500px;"">
                            <p style=""font-size:50px; font-weight:bold;""
                            >positive</p>
                            <div style=""width:240px; margin: auto;"">
                                <img src=""images/gray_34.png"" style= ""width:200px""alt=""img"">
                            </div>
                        </div>","100","","0","images/gray_34.png","","","","positive"
"","","","","","html-slider-response","150","688816","0.0-146.0","yfdb4gemhp","NaN","<div style=""width:500px;"">
                            <p style=""font-size:50px; font-weight:bold;""
                            >positive</p>
                            <div style=""width:240px; margin: auto;"">
                                <img src=""images/gray_29.png"" style= ""width:200px""alt=""img"">
                            </div>
                        </div>","105","","0","images/gray_29.png","","","","positive"
"","","","","","html-slider-response","151","689556","0.0-147.0","yfdb4gemhp","NaN","<div style=""width:500px;"">
                            <p style=""font-size:50px; font-weight:bold;""
                            >positive</p>
                            <div style=""width:240px; margin: auto;"">
                                <img src=""images/gray_28.png"" style= ""width:200px""alt=""img"">
                            </div>
                        </div>","-74","","0","images/gray_28.png","","","","positive"
"","","","","","html-slider-response","152","703381","0.0-148.0","yfdb4gemhp","NaN","<div style=""width:500px;"">
                            <p style=""font-size:50px; font-weight:bold;""
                            >positive</p>
                            <div style=""width:240px; margin: auto;"">
                                <img src=""images/gray_10.png"" style= ""width:200px""alt=""img"">
                            </div>
                        </div>","108","","0","images/gray_10.png","","","","positive"
"","","","","","html-slider-response","153","704195","0.0-149.0","yfdb4gemhp","NaN","<div style=""width:500px;"">
                            <p style=""font-size:50px; font-weight:bold;""
                            >positive</p>
                            <div style=""width:240px; margin: auto;"">
                                <img src=""images/gray_15.png"" style= ""width:200px""alt=""img"">
                            </div>
                        </div>","108","","0","images/gray_15.png","","","","positive"
"","","","","","html-button-response","154","705461","0.0-150.0","yfdb4gemhp","764","<p>Great Job! You've finished block 3.<br></br> You have 5 block(s) left to go.<br></br></p>","0","","","","","","",""
"","","","","","html-button-response","155","706503","0.0-151.0","yfdb4gemhp","1041","<p>In this block of trials, you will be asked to rate how much you associate each map with:</p > <p style = 'font-size:150%; font-weight: bold'>calm</p><br></br>","0","","","","","","",""
"","","","","","html-slider-response","156","707993","0.0-152.0","yfdb4gemhp","NaN","<div style=""width:500px;"">
                            <p style=""font-size:50px; font-weight:bold;""
                            >calm</p>
                            <div style=""width:240px; margin: auto;"">
                                <img src=""images/gray_24.png"" style= ""width:200px""alt=""img"">
                            </div>
                        </div>","-125","","0","images/gray_24.png","","","","calm"
"","","","","","html-slider-response","157","708969","0.0-153.0","yfdb4gemhp","NaN","<div style=""width:500px;"">
                            <p style=""font-size:50px; font-weight:bold;""
                            >calm</p>
                            <div style=""width:240px; margin: auto;"">
                                <img src=""images/gray_11.png"" style= ""width:200px""alt=""img"">
                            </div>
                        </div>","-150","","0","images/gray_11.png","","","","calm"
"","","","","","html-slider-response","158","709906","0.0-154.0","yfdb4gemhp","NaN","<div style=""width:500px;"">
                            <p style=""font-size:50px; font-weight:bold;""
                            >calm</p>
                            <div style=""width:240px; margin: auto;"">
                                <img src=""images/gray_20.png"" style= ""width:200px""alt=""img"">
                            </div>
                        </div>","-148","","0","images/gray_20.png","","","","calm"
"","","","","","html-slider-response","159","711014","0.0-155.0","yfdb4gemhp","NaN","<div style=""width:500px;"">
                            <p style=""font-size:50px; font-weight:bold;""
                            >calm</p>
                            <div style=""width:240px; margin: auto;"">
                                <img src=""images/gray_10.png"" style= ""width:200px""alt=""img"">
                            </div>
                        </div>","-148","","0","images/gray_10.png","","","","calm"
"","","","","","html-slider-response","160","712631","0.0-156.0","yfdb4gemhp","NaN","<div style=""width:500px;"">
                            <p style=""font-size:50px; font-weight:bold;""
                            >calm</p>
                            <div style=""width:240px; margin: auto;"">
                                <img src=""images/gray_07.png"" style= ""width:200px""alt=""img"">
                            </div>
                        </div>","-148","","0","images/gray_07.png","","","","calm"
"","","","","","html-slider-response","161","713484","0.0-157.0","yfdb4gemhp","NaN","<div style=""width:500px;"">
                            <p style=""font-size:50px; font-weight:bold;""
                            >calm</p>
                            <div style=""width:240px; margin: auto;"">
                                <img src=""images/gray_03.png"" style= ""width:200px""alt=""img"">
                            </div>
                        </div>","-148","","0","images/gray_03.png","","","","calm"
"","","","","","html-slider-response","162","714462","0.0-158.0","yfdb4gemhp","NaN","<div style=""width:500px;"">
                            <p style=""font-size:50px; font-weight:bold;""
                            >calm</p>
                            <div style=""width:240px; margin: auto;"">
                                <img src=""images/gray_42.png"" style= ""width:200px""alt=""img"">
                            </div>
                        </div>","-148","","0","images/gray_42.png","","","","calm"
"","","","","","html-slider-response","163","715934","0.0-159.0","yfdb4gemhp","NaN","<div style=""width:500px;"">
                            <p style=""font-size:50px; font-weight:bold;""
                            >calm</p>
                            <div style=""width:240px; margin: auto;"">
                                <img src=""images/gray_27.png"" style= ""width:200px""alt=""img"">
                            </div>
                        </div>","-148","","0","images/gray_27.png","","","","calm"
"","","","","","html-slider-response","164","716675","0.0-160.0","yfdb4gemhp","NaN","<div style=""width:500px;"">
                            <p style=""font-size:50px; font-weight:bold;""
                            >calm</p>
                            <div style=""width:240px; margin: auto;"">
                                <img src=""images/gray_40.png"" style= ""width:200px""alt=""img"">
                            </div>
                        </div>","-78","","0","images/gray_40.png","","","","calm"
"","","","","","html-slider-response","165","717406","0.0-161.0","yfdb4gemhp","NaN","<div style=""width:500px;"">
                            <p style=""font-size:50px; font-weight:bold;""
                            >calm</p>
                            <div style=""width:240px; margin: auto;"">
                                <img src=""images/gray_39.png"" style= ""width:200px""alt=""img"">
                            </div>
                        </div>","-144","","0","images/gray_39.png","","","","calm"
"","","","","","html-slider-response","166","718017","0.0-162.0","yfdb4gemhp","NaN","<div style=""width:500px;"">
                            <p style=""font-size:50px; font-weight:bold;""
                            >calm</p>
                            <div style=""width:240px; margin: auto;"">
                                <img src=""images/gray_14.png"" style= ""width:200px""alt=""img"">
                            </div>
                        </div>","-63","","0","images/gray_14.png","","","","calm"
"","","","","","html-slider-response","167","718774","0.0-163.0","yfdb4gemhp","NaN","<div style=""width:500px;"">
                            <p style=""font-size:50px; font-weight:bold;""
                            >calm</p>
                            <div style=""width:240px; margin: auto;"">
                                <img src=""images/gray_26.png"" style= ""width:200px""alt=""img"">
                            </div>
                        </div>","-137","","0","images/gray_26.png","","","","calm"
"","","","","","html-slider-response","168","719571","0.0-164.0","yfdb4gemhp","NaN","<div style=""width:500px;"">
                            <p style=""font-size:50px; font-weight:bold;""
                            >calm</p>
                            <div style=""width:240px; margin: auto;"">
                                <img src=""images/gray_43.png"" style= ""width:200px""alt=""img"">
                            </div>
                        </div>","-63","","0","images/gray_43.png","","","","calm"
"","","","","","html-slider-response","169","720189","0.0-165.0","yfdb4gemhp","NaN","<div style=""width:500px;"">
                            <p style=""font-size:50px; font-weight:bold;""
                            >calm</p>
                            <div style=""width:240px; margin: auto;"">
                                <img src=""images/gray_41.png"" style= ""width:200px""alt=""img"">
                            </div>
                        </div>","-31","","0","images/gray_41.png","","","","calm"
"","","","","","html-slider-response","170","720922","0.0-166.0","yfdb4gemhp","NaN","<div style=""width:500px;"">
                            <p style=""font-size:50px; font-weight:bold;""
                            >calm</p>
                            <div style=""width:240px; margin: auto;"">
                                <img src=""images/gray_15.png"" style= ""width:200px""alt=""img"">
                            </div>
                        </div>","-118","","0","images/gray_15.png","","","","calm"
"","","","","","html-slider-response","171","721661","0.0-167.0","yfdb4gemhp","NaN","<div style=""width:500px;"">
                            <p style=""font-size:50px; font-weight:bold;""
                            >calm</p>
                            <div style=""width:240px; margin: auto;"">
                                <img src=""images/gray_38.png"" style= ""width:200px""alt=""img"">
                            </div>
                        </div>","-89","","0","images/gray_38.png","","","","calm"
"","","","","","html-slider-response","172","722361","0.0-168.0","yfdb4gemhp","NaN","<div style=""width:500px;"">
                            <p style=""font-size:50px; font-weight:bold;""
                            >calm</p>
                            <div style=""width:240px; margin: auto;"">
                                <img src=""images/gray_37.png"" style= ""width:200px""alt=""img"">
                            </div>
                        </div>","-137","","0","images/gray_37.png","","","","calm"
"","","","","","html-slider-response","173","723109","0.0-169.0","yfdb4gemhp","NaN","<div style=""width:500px;"">
                            <p style=""font-size:50px; font-weight:bold;""
                            >calm</p>
                            <div style=""width:240px; margin: auto;"">
                                <img src=""images/gray_22.png"" style= ""width:200px""alt=""img"">
                            </div>
                        </div>","-90","","0","images/gray_22.png","","","","calm"
"","","","","","html-slider-response","174","723923","0.0-170.0","yfdb4gemhp","NaN","<div style=""width:500px;"">
                            <p style=""font-size:50px; font-weight:bold;""
                            >calm</p>
                            <div style=""width:240px; margin: auto;"">
                                <img src=""images/gray_06.png"" style= ""width:200px""alt=""img"">
                            </div>
                        </div>","-72","","0","images/gray_06.png","","","","calm"
"","","","","","html-slider-response","175","724721","0.0-171.0","yfdb4gemhp","NaN","<div style=""width:500px;"">
                            <p style=""font-size:50px; font-weight:bold;""
                            >calm</p>
                            <div style=""width:240px; margin: auto;"">
                                <img src=""images/gray_01.png"" style= ""width:200px""alt=""img"">
                            </div>
                        </div>","-100","","0","images/gray_01.png","","","","calm"
"","","","","","html-slider-response","176","725346","0.0-172.0","yfdb4gemhp","NaN","<div style=""width:500px;"">
                            <p style=""font-size:50px; font-weight:bold;""
                            >calm</p>
                            <div style=""width:240px; margin: auto;"">
                                <img src=""images/gray_21.png"" style= ""width:200px""alt=""img"">
                            </div>
                        </div>","-130","","0","images/gray_21.png","","","","calm"
"","","","","","html-slider-response","177","725973","0.0-173.0","yfdb4gemhp","NaN","<div style=""width:500px;"">
                            <p style=""font-size:50px; font-weight:bold;""
                            >calm</p>
                            <div style=""width:240px; margin: auto;"">
                                <img src=""images/gray_02.png"" style= ""width:200px""alt=""img"">
                            </div>
                        </div>","-135","","0","images/gray_02.png","","","","calm"
"","","","","","html-slider-response","178","726656","0.0-174.0","yfdb4gemhp","NaN","<div style=""width:500px;"">
                            <p style=""font-size:50px; font-weight:bold;""
                            >calm</p>
                            <div style=""width:240px; margin: auto;"">
                                <img src=""images/gray_23.png"" style= ""width:200px""alt=""img"">
                            </div>
                        </div>","-98","","0","images/gray_23.png","","","","calm"
"","","","","","html-slider-response","179","727226","0.0-175.0","yfdb4gemhp","NaN","<div style=""width:500px;"">
                            <p style=""font-size:50px; font-weight:bold;""
                            >calm</p>
                            <div style=""width:240px; margin: auto;"">
                                <img src=""images/gray_09.png"" style= ""width:200px""alt=""img"">
                            </div>
                        </div>","-78","","0","images/gray_09.png","","","","calm"
"","","","","","html-slider-response","180","728227","0.0-176.0","yfdb4gemhp","NaN","<div style=""width:500px;"">
                            <p style=""font-size:50px; font-weight:bold;""
                            >calm</p>
                            <div style=""width:240px; margin: auto;"">
                                <img src=""images/gray_32.png"" style= ""width:200px""alt=""img"">
                            </div>
                        </div>","-119","","0","images/gray_32.png","","","","calm"
"","","","","","html-slider-response","181","728967","0.0-177.0","yfdb4gemhp","NaN","<div style=""width:500px;"">
                            <p style=""font-size:50px; font-weight:bold;""
                            >calm</p>
                            <div style=""width:240px; margin: auto;"">
                                <img src=""images/gray_05.png"" style= ""width:200px""alt=""img"">
                            </div>
                        </div>","-74","","0","images/gray_05.png","","","","calm"
"","","","","","html-slider-response","182","729643","0.0-178.0","yfdb4gemhp","NaN","<div style=""width:500px;"">
                            <p style=""font-size:50px; font-weight:bold;""
                            >calm</p>
                            <div style=""width:240px; margin: auto;"">
                                <img src=""images/gray_16.png"" style= ""width:200px""alt=""img"">
                            </div>
                        </div>","-93","","0","images/gray_16.png","","","","calm"
"","","","","","html-slider-response","183","730513","0.0-179.0","yfdb4gemhp","NaN","<div style=""width:500px;"">
                            <p style=""font-size:50px; font-weight:bold;""
                            >calm</p>
                            <div style=""width:240px; margin: auto;"">
                                <img src=""images/gray_29.png"" style= ""width:200px""alt=""img"">
                            </div>
                        </div>","-87","","0","images/gray_29.png","","","","calm"
"","","","","","html-slider-response","184","731823","0.0-180.0","yfdb4gemhp","NaN","<div style=""width:500px;"">
                            <p style=""font-size:50px; font-weight:bold;""
                            >calm</p>
                            <div style=""width:240px; margin: auto;"">
                                <img src=""images/gray_25.png"" style= ""width:200px""alt=""img"">
                            </div>
                        </div>","67","","0","images/gray_25.png","","","","calm"
"","","","","","html-slider-response","185","733108","0.0-181.0","yfdb4gemhp","NaN","<div style=""width:500px;"">
                            <p style=""font-size:50px; font-weight:bold;""
                            >calm</p>
                            <div style=""width:240px; margin: auto;"">
                                <img src=""images/gray_30.png"" style= ""width:200px""alt=""img"">
                            </div>
                        </div>","-113","","0","images/gray_30.png","","","","calm"
"","","","","","html-slider-response","186","734532","0.0-182.0","yfdb4gemhp","NaN","<div style=""width:500px;"">
                            <p style=""font-size:50px; font-weight:bold;""
                            >calm</p>
                            <div style=""width:240px; margin: auto;"">
                                <img src=""images/gray_18.png"" style= ""width:200px""alt=""img"">
                            </div>
                        </div>","138","","0","images/gray_18.png","","","","calm"
"","","","","","html-slider-response","187","735801","0.0-183.0","yfdb4gemhp","NaN","<div style=""width:500px;"">
                            <p style=""font-size:50px; font-weight:bold;""
                            >calm</p>
                            <div style=""width:240px; margin: auto;"">
                                <img src=""images/gray_13.png"" style= ""width:200px""alt=""img"">
                            </div>
                        </div>","-94","","0","images/gray_13.png","","","","calm"
"","","","","","html-slider-response","188","737802","0.0-184.0","yfdb4gemhp","NaN","<div style=""width:500px;"">
                            <p style=""font-size:50px; font-weight:bold;""
                            >calm</p>
                            <div style=""width:240px; margin: auto;"">
                                <img src=""images/gray_33.png"" style= ""width:200px""alt=""img"">
                            </div>
                        </div>","-122","","0","images/gray_33.png","","","","calm"
"","","","","","html-slider-response","189","738876","0.0-185.0","yfdb4gemhp","NaN","<div style=""width:500px;"">
                            <p style=""font-size:50px; font-weight:bold;""
                            >calm</p>
                            <div style=""width:240px; margin: auto;"">
                                <img src=""images/gray_35.png"" style= ""width:200px""alt=""img"">
                            </div>
                        </div>","-122","","0","images/gray_35.png","","","","calm"
"","","","","","html-slider-response","190","739763","0.0-186.0","yfdb4gemhp","NaN","<div style=""width:500px;"">
                            <p style=""font-size:50px; font-weight:bold;""
                            >calm</p>
                            <div style=""width:240px; margin: auto;"">
                                <img src=""images/gray_19.png"" style= ""width:200px""alt=""img"">
                            </div>
                        </div>","-33","","0","images/gray_19.png","","","","calm"
"","","","","","html-slider-response","191","740796","0.0-187.0","yfdb4gemhp","NaN","<div style=""width:500px;"">
                            <p style=""font-size:50px; font-weight:bold;""
                            >calm</p>
                            <div style=""width:240px; margin: auto;"">
                                <img src=""images/gray_31.png"" style= ""width:200px""alt=""img"">
                            </div>
                        </div>","-100","","0","images/gray_31.png","","","","calm"
"","","","","","html-slider-response","192","741951","0.0-188.0","yfdb4gemhp","NaN","<div style=""width:500px;"">
                            <p style=""font-size:50px; font-weight:bold;""
                            >calm</p>
                            <div style=""width:240px; margin: auto;"">
                                <img src=""images/gray_28.png"" style= ""width:200px""alt=""img"">
                            </div>
                        </div>","-85","","0","images/gray_28.png","","","","calm"
"","","","","","html-slider-response","193","742887","0.0-189.0","yfdb4gemhp","NaN","<div style=""width:500px;"">
                            <p style=""font-size:50px; font-weight:bold;""
                            >calm</p>
                            <div style=""width:240px; margin: auto;"">
                                <img src=""images/gray_44.png"" style= ""width:200px""alt=""img"">
                            </div>
                        </div>","-83","","0","images/gray_44.png","","","","calm"
"","","","","","html-slider-response","194","743968","0.0-190.0","yfdb4gemhp","NaN","<div style=""width:500px;"">
                            <p style=""font-size:50px; font-weight:bold;""
                            >calm</p>
                            <div style=""width:240px; margin: auto;"">
                                <img src=""images/gray_36.png"" style= ""width:200px""alt=""img"">
                            </div>
                        </div>","-83","","0","images/gray_36.png","","","","calm"
"","","","","","html-slider-response","195","745279","0.0-191.0","yfdb4gemhp","NaN","<div style=""width:500px;"">
                            <p style=""font-size:50px; font-weight:bold;""
                            >calm</p>
                            <div style=""width:240px; margin: auto;"">
                                <img src=""images/gray_04.png"" style= ""width:200px""alt=""img"">
                            </div>
                        </div>","-73","","0","images/gray_04.png","","","","calm"
"","","","","","html-slider-response","196","746816","0.0-192.0","yfdb4gemhp","NaN","<div style=""width:500px;"">
                            <p style=""font-size:50px; font-weight:bold;""
                            >calm</p>
                            <div style=""width:240px; margin: auto;"">
                                <img src=""images/gray_17.png"" style= ""width:200px""alt=""img"">
                            </div>
                        </div>","-111","","0","images/gray_17.png","","","","calm"
"","","","","","html-slider-response","197","748622","0.0-193.0","yfdb4gemhp","NaN","<div style=""width:500px;"">
                            <p style=""font-size:50px; font-weight:bold;""
                            >calm</p>
                            <div style=""width:240px; margin: auto;"">
                                <img src=""images/gray_34.png"" style= ""width:200px""alt=""img"">
                            </div>
                        </div>","-53","","0","images/gray_34.png","","","","calm"
"","","","","","html-slider-response","198","749387","0.0-194.0","yfdb4gemhp","NaN","<div style=""width:500px;"">
                            <p style=""font-size:50px; font-weight:bold;""
                            >calm</p>
                            <div style=""width:240px; margin: auto;"">
                                <img src=""images/gray_08.png"" style= ""width:200px""alt=""img"">
                            </div>
                        </div>","-125","","0","images/gray_08.png","","","","calm"
"","","","","","html-slider-response","199","750217","0.0-195.0","yfdb4gemhp","NaN","<div style=""width:500px;"">
                            <p style=""font-size:50px; font-weight:bold;""
                            >calm</p>
                            <div style=""width:240px; margin: auto;"">
