"success","timeout","failed_images","failed_audio","failed_video","trial_type","trial_index","time_elapsed","internal_node_id","rt","response","question_order","stimulus","slider_start","image_path","practiceTrial","concept","practiceTrialNum","correct"
"true","false","[]","[]","[]","preload","0","53","0.0-0.0","","","","","","","","","",""
"","","","","","survey-multi-select","1","5988","0.0-1.0","5933","{""Consent"":[""<strong>I consent</strong>""]}","[0]","","","","","","",""
"","","","","","html-keyboard-response","2","7698","0.0-2.0","1707"," ","","<p>Great job!</p> You have completed the consent process and answered the demographic questions.<p> Press the spacebar to continue to instructions for the experiment. </p>","","","","","",""
"","","","","","html-slider-response","3","10921","0.0-3.0","3222","null","","
            <div style='text-align:left; font-size:20px; line-height:25px; width: 1200px;'>
                During this experiment you will be asked to rate how much you associate maps with    different concepts.<br> Below, you can see some examples of the maps you will be asked to rate. Next to the maps
    is the list of concepts.<br>You will be asked    to rate how much you associate each map with each concept on a scale from 'not at all' to 'very much' like the
    one below. <br><br>
    Now, please look at the list of concepts and maps. For each concept, think about the map you associate 'very
    much' with the concept.<br>     When you see that map during the experiment, please rate it near the 'very much' endpoint of the
    scale.<br>Now, please think about which map you associate 'not at all'     with each concept. When you see that map during the experiment, please rate it near the 'not at all' endpoint
    of the scale.<br>
    Please use the full range of the scale. That is, if a map is somewhat associated with the concept, you would
    click partway between the middle point and right side of the scale.    You will be asked to rate each map for a given concept before moving on to the next concept.<br><br>Press the
    'Continue' button when you're ready to begin four practice trials.    <br><br>
</div>

<div style=""width: 500px; margin: 0 auto;"">
    <div style=""text-align: right; width: 240px; float: left;"">
        <p style=""font-size:25px; line-height:18px;"">calm</p>
        <p style=""font-size:25px; line-height:18px;"">exciting</p>
        <p style=""font-size:25px;line-height:18px;"">positive</p>
        <p style=""font-size:25px;line-height:18px;"">negative</p>
        <p style=""font-size:25px;line-height:18px;"">serious</p>
        <p style=""font-size:25px;line-height:18px;"">playful</p>
        <p style=""font-size:25px;line-height:18px;"">trustworthy</p>
        <p style=""font-size:25px;line-height:18px;"">disturbing</p>
    </div>
    <div style=""width: 240px; float: right; padding-top:15px"">
        <img src=""patches71.png"" alt=""img"" style=""max-height:300px"">
    </div>
    <div style=""clear: both;""></div>
</div>
            ","0","patches71.png","true","","",""
"","","","","","html-slider-response","4","15339","0.0-4.0-0.0","NaN","200","","<div style=""width:500px;"">
                            <p style=""font-size:25px;"">Please move the slider all the way to the <br> right endpoint of the scale</p>
                            <p style=""font-size:50px; font-weight:bold;""
                            >exciting</p>
                            <div style=""width:240px; margin: auto;"">
                                <img src=""images/gray_h149_v612.png"" alt=""img"">
                            </div>
                        </div>","0","images/gray_h149_v612.png","true","exciting","0","true"
"","","","","","html-button-response","5","17186","0.0-4.0-1.0","1338","0","","<p align='center'><b>Good job!</b> Click on 'Continue' to proceed.</p>","","","","","",""
"","","","","","html-slider-response","6","22409","0.0-5.0-0.0","NaN","-200","","<div style=""width:500px;"">
                            <p style=""font-size:25px;"">Please move the slider all the way to the <br> left endpoint of the scale</p>
                            <p style=""font-size:50px; font-weight:bold;""
                            >exciting</p>
                            <div style=""width:240px; margin: auto;"">
                                <img src=""images/gray_h148_v607.png"" alt=""img"">
                            </div>
                        </div>","0","images/gray_h148_v607.png","true","exciting","1","true"
"","","","","","html-button-response","7","23918","0.0-5.0-1.0","997","0","","<p align='center'><b>Good job!</b> Click on 'Continue' to proceed.</p>","","","","","",""
"","","","","","html-slider-response","8","27640","0.0-6.0-0.0","NaN","114","","<div style=""width:500px;"">
                            <p style=""font-size:25px;"">Please move the slider halfway between the center and right endpoint of the scale</p>
                            <p style=""font-size:50px; font-weight:bold;""
                            >exciting</p>
                            <div style=""width:240px; margin: auto;"">
                                <img src=""images/gray_h176_v214.png"" alt=""img"">
                            </div>
                        </div>","0","images/gray_h176_v214.png","true","exciting","2","false"
"","","","","","html-button-response","9","29013","0.0-6.0-1.0","861","0","","<p align='center'><b>Not quite!</b> The slider was not placed near the instructed located. Click on 'Continue' to try again. </p>","","","","","",""
"","","","","","html-slider-response","10","30974","0.0-6.1-0.1","NaN","-110","","<div style=""width:500px;"">
                            <p style=""font-size:25px;"">Please move the slider halfway between the center and right endpoint of the scale</p>
                            <p style=""font-size:50px; font-weight:bold;""
                            >exciting</p>
                            <div style=""width:240px; margin: auto;"">
                                <img src=""images/gray_h176_v214.png"" alt=""img"">
                            </div>
                        </div>","0","images/gray_h176_v214.png","true","exciting","2","false"
"","","","","","html-button-response","11","32492","0.0-6.1-1.1","1014","0","","<p align='center'><b>Not quite!</b> The slider was not placed near the instructed located. Click on 'Continue' to try again. </p>","","","","","",""
"","","","","","html-slider-response","12","39196","0.0-6.2-0.2","NaN","108","","<div style=""width:500px;"">
                            <p style=""font-size:25px;"">Please move the slider halfway between the center and right endpoint of the scale</p>
                            <p style=""font-size:50px; font-weight:bold;""
                            >exciting</p>
                            <div style=""width:240px; margin: auto;"">
                                <img src=""images/gray_h176_v214.png"" alt=""img"">
                            </div>
                        </div>","0","images/gray_h176_v214.png","true","exciting","2","true"
"","","","","","html-button-response","13","40930","0.0-6.2-1.2","1219","0","","<p align='center'><b>Good job!</b> Click on 'Continue' to proceed.</p>","","","","","",""
"","","","","","html-slider-response","14","44504","0.0-7.0-0.0","NaN","-108","","<div style=""width:500px;"">
                            <p style=""font-size:25px;"">Please move the slider halfway between the center and left endpoint of the scale</p>
                            <p style=""font-size:50px; font-weight:bold;""
                            >exciting</p>
                            <div style=""width:240px; margin: auto;"">
                                <img src=""images/gray_h148_v605.png"" alt=""img"">
                            </div>
                        </div>","0","images/gray_h148_v605.png","true","exciting","3","true"
"","","","","","html-button-response","15","46053","0.0-7.0-1.0","1044","0","","<p align='center'><b>Good job!</b> Click on 'Continue' to proceed.</p>","","","","","",""
"","","","","","html-button-response","16","47593","0.0-8.0","1539","0","","<p>Great job! You've completed the practice trials. Now you will begin the main task.</p>","","","","","",""
"","","","","","html-button-response","17","49406","0.0-9.0","1812","0","","<p>In this block of trials, you will be asked to rate how much you associate each map with:</p > <p style = 'font-size:150%; font-weight: bold'>exciting</p><br></br>","","","","","",""
"","","","","","html-slider-response","18","54226","0.0-10.0","NaN","54","","<div style=""width:500px;"">
                            <p style=""font-size:50px; font-weight:bold;""
                            >exciting</p>
                            <div style=""width:240px; margin: auto;"">
                                <img src=""images/gray_h155_v647.png"" alt=""img"">
                            </div>
                        </div>","0","images/gray_h155_v647.png","","exciting","",""
"","","","","","html-slider-response","19","57773","0.0-11.0","NaN","170","","<div style=""width:500px;"">
                            <p style=""font-size:50px; font-weight:bold;""
                            >exciting</p>
                            <div style=""width:240px; margin: auto;"">
                                <img src=""images/gray_h250_v546.png"" alt=""img"">
                            </div>
                        </div>","0","images/gray_h250_v546.png","","exciting","",""
"","","","","","html-slider-response","20","62724","0.0-12.0","NaN","-33","","<div style=""width:500px;"">
                            <p style=""font-size:50px; font-weight:bold;""
                            >exciting</p>
                            <div style=""width:240px; margin: auto;"">
                                <img src=""images/gray_h147_v647.png"" alt=""img"">
                            </div>
                        </div>","0","images/gray_h147_v647.png","","exciting","",""
"","","","","","html-slider-response","21","66444","0.0-13.0","NaN","118","","<div style=""width:500px;"">
                            <p style=""font-size:50px; font-weight:bold;""
                            >exciting</p>
                            <div style=""width:240px; margin: auto;"">
                                <img src=""images/gray_h144_v597.png"" alt=""img"">
                            </div>
                        </div>","0","images/gray_h144_v597.png","","exciting","",""
"","","","","","html-slider-response","22","70657","0.0-14.0","NaN","-74","","<div style=""width:500px;"">
                            <p style=""font-size:50px; font-weight:bold;""
                            >exciting</p>
                            <div style=""width:240px; margin: auto;"">
                                <img src=""images/gray_h223_v317.png"" alt=""img"">
                            </div>
                        </div>","0","images/gray_h223_v317.png","","exciting","",""
"","","","","","html-slider-response","23","73148","0.0-15.0","NaN","14","","<div style=""width:500px;"">
                            <p style=""font-size:50px; font-weight:bold;""
                            >exciting</p>
                            <div style=""width:240px; margin: auto;"">
                                <img src=""images/gray_h146_v600.png"" alt=""img"">
                            </div>
                        </div>","0","images/gray_h146_v600.png","","exciting","",""
"","","","","","html-slider-response","24","75861","0.0-16.0","NaN","21","","<div style=""width:500px;"">
                            <p style=""font-size:50px; font-weight:bold;""
                            >exciting</p>
                            <div style=""width:240px; margin: auto;"">
                                <img src=""images/gray_h151_v616.png"" alt=""img"">
                            </div>
                        </div>","0","images/gray_h151_v616.png","","exciting","",""
"","","","","","html-slider-response","25","78718","0.0-17.0","NaN","112","","<div style=""width:500px;"">
                            <p style=""font-size:50px; font-weight:bold;""
                            >exciting</p>
                            <div style=""width:240px; margin: auto;"">
                                <img src=""images/gray_h143_v595.png"" alt=""img"">
                            </div>
                        </div>","0","images/gray_h143_v595.png","","exciting","",""
"","","","","","html-slider-response","26","82606","0.0-18.0","NaN","-22","","<div style=""width:500px;"">
                            <p style=""font-size:50px; font-weight:bold;""
                            >exciting</p>
                            <div style=""width:240px; margin: auto;"">
                                <img src=""images/gray_h200_v276.png"" alt=""img"">
                            </div>
                        </div>","0","images/gray_h200_v276.png","","exciting","",""
"","","","","","html-slider-response","27","85278","0.0-19.0","NaN","101","","<div style=""width:500px;"">
                            <p style=""font-size:50px; font-weight:bold;""
                            >exciting</p>
                            <div style=""width:240px; margin: auto;"">
                                <img src=""images/gray_h144_v595.png"" alt=""img"">
                            </div>
                        </div>","0","images/gray_h144_v595.png","","exciting","",""
"","","","","","html-slider-response","28","90325","0.0-20.0","NaN","163","","<div style=""width:500px;"">
                            <p style=""font-size:50px; font-weight:bold;""
                            >exciting</p>
                            <div style=""width:240px; margin: auto;"">
                                <img src=""images/gray_h183_v676.png"" alt=""img"">
                            </div>
                        </div>","0","images/gray_h183_v676.png","","exciting","",""
"","","","","","html-slider-response","29","92976","0.0-21.0","NaN","177","","<div style=""width:500px;"">
                            <p style=""font-size:50px; font-weight:bold;""
                            >exciting</p>
                            <div style=""width:240px; margin: auto;"">
                                <img src=""images/gray_h157_v677.png"" alt=""img"">
                            </div>
                        </div>","0","images/gray_h157_v677.png","","exciting","",""
"","","","","","html-slider-response","30","95606","0.0-22.0","NaN","61","","<div style=""width:500px;"">
                            <p style=""font-size:50px; font-weight:bold;""
                            >exciting</p>
                            <div style=""width:240px; margin: auto;"">
                                <img src=""images/gray_h246_v290.png"" alt=""img"">
                            </div>
                        </div>","0","images/gray_h246_v290.png","","exciting","",""
"","","","","","html-slider-response","31","98244","0.0-23.0","NaN","54","","<div style=""width:500px;"">
                            <p style=""font-size:50px; font-weight:bold;""
                            >exciting</p>
                            <div style=""width:240px; margin: auto;"">
                                <img src=""images/gray_h151_v618.png"" alt=""img"">
                            </div>
                        </div>","0","images/gray_h151_v618.png","","exciting","",""
"","","","","","html-slider-response","32","100934","0.0-24.0","NaN","175","","<div style=""width:500px;"">
                            <p style=""font-size:50px; font-weight:bold;""
                            >exciting</p>
                            <div style=""width:240px; margin: auto;"">
                                <img src=""images/gray_h147_v603.png"" alt=""img"">
                            </div>
                        </div>","0","images/gray_h147_v603.png","","exciting","",""
"","","","","","html-slider-response","33","105439","0.0-25.0","NaN","-31","","<div style=""width:500px;"">
                            <p style=""font-size:50px; font-weight:bold;""
                            >exciting</p>
                            <div style=""width:240px; margin: auto;"">
                                <img src=""images/gray_h239_v499.png"" alt=""img"">
                            </div>
                        </div>","0","images/gray_h239_v499.png","","exciting","",""
"","","","","","html-slider-response","34","108125","0.0-26.0","NaN","-22","","<div style=""width:500px;"">
                            <p style=""font-size:50px; font-weight:bold;""
                            >exciting</p>
                            <div style=""width:240px; margin: auto;"">
                                <img src=""images/gray_h150_v615.png"" alt=""img"">
                            </div>
                        </div>","0","images/gray_h150_v615.png","","exciting","",""
"","","","","","html-slider-response","35","110372","0.0-27.0","NaN","69","","<div style=""width:500px;"">
                            <p style=""font-size:50px; font-weight:bold;""
                            >exciting</p>
                            <div style=""width:240px; margin: auto;"">
                                <img src=""images/gray_h146_v602.png"" alt=""img"">
                            </div>
                        </div>","0","images/gray_h146_v602.png","","exciting","",""
"","","","","","html-slider-response","36","112696","0.0-28.0","NaN","96","","<div style=""width:500px;"">
                            <p style=""font-size:50px; font-weight:bold;""
                            >exciting</p>
                            <div style=""width:240px; margin: auto;"">
                                <img src=""images/gray_h153_v646.png"" alt=""img"">
                            </div>
                        </div>","0","images/gray_h153_v646.png","","exciting","",""
"","","","","","html-slider-response","37","115432","0.0-29.0","NaN","-62","","<div style=""width:500px;"">
                            <p style=""font-size:50px; font-weight:bold;""
                            >exciting</p>
                            <div style=""width:240px; margin: auto;"">
                                <img src=""images/gray_h167_v644.png"" alt=""img"">
                            </div>
                        </div>","0","images/gray_h167_v644.png","","exciting","",""
"","","","","","html-slider-response","38","119708","0.0-30.0","NaN","115","","<div style=""width:500px;"">
                            <p style=""font-size:50px; font-weight:bold;""
                            >exciting</p>
                            <div style=""width:240px; margin: auto;"">
                                <img src=""images/gray_h241_v296.png"" alt=""img"">
                            </div>
                        </div>","0","images/gray_h241_v296.png","","exciting","",""
"","","","","","html-slider-response","39","121920","0.0-31.0","NaN","61","","<div style=""width:500px;"">
                            <p style=""font-size:50px; font-weight:bold;""
                            >exciting</p>
                            <div style=""width:240px; margin: auto;"">
                                <img src=""images/gray_h151_v619.png"" alt=""img"">
                            </div>
                        </div>","0","images/gray_h151_v619.png","","exciting","",""
"","","","","","html-slider-response","40","124461","0.0-32.0","NaN","22","","<div style=""width:500px;"">
                            <p style=""font-size:50px; font-weight:bold;""
                            >exciting</p>
                            <div style=""width:240px; margin: auto;"">
                                <img src=""images/gray_h206_v494.png"" alt=""img"">
                            </div>
                        </div>","0","images/gray_h206_v494.png","","exciting","",""
"","","","","","html-slider-response","41","127687","0.0-33.0","NaN","32","","<div style=""width:500px;"">
                            <p style=""font-size:50px; font-weight:bold;""
                            >exciting</p>
                            <div style=""width:240px; margin: auto;"">
                                <img src=""images/gray_h147_v672.png"" alt=""img"">
                            </div>
                        </div>","0","images/gray_h147_v672.png","","exciting","",""
"","","","","","html-slider-response","42","131189","0.0-34.0","NaN","-66","","<div style=""width:500px;"">
                            <p style=""font-size:50px; font-weight:bold;""
                            >exciting</p>
                            <div style=""width:240px; margin: auto;"">
                                <img src=""images/gray_h241_v304.png"" alt=""img"">
                            </div>
                        </div>","0","images/gray_h241_v304.png","","exciting","",""
"","","","","","html-slider-response","43","134390","0.0-35.0","NaN","-118","","<div style=""width:500px;"">
                            <p style=""font-size:50px; font-weight:bold;""
                            >exciting</p>
                            <div style=""width:240px; margin: auto;"">
                                <img src=""images/gray_h205_v484.png"" alt=""img"">
                            </div>
                        </div>","0","images/gray_h205_v484.png","","exciting","",""
"","","","","","html-slider-response","44","136444","0.0-36.0","NaN","19","","<div style=""width:500px;"">
                            <p style=""font-size:50px; font-weight:bold;""
                            >exciting</p>
                            <div style=""width:240px; margin: auto;"">
                                <img src=""images/gray_h181_v683.png"" alt=""img"">
                            </div>
                        </div>","0","images/gray_h181_v683.png","","exciting","",""
"","","","","","html-slider-response","45","139250","0.0-37.0","NaN","-160","","<div style=""width:500px;"">
                            <p style=""font-size:50px; font-weight:bold;""
                            >exciting</p>
                            <div style=""width:240px; margin: auto;"">
                                <img src=""images/gray_h152_v629.png"" alt=""img"">
                            </div>
                        </div>","0","images/gray_h152_v629.png","","exciting","",""
"","","","","","html-slider-response","46","143072","0.0-38.0","NaN","-144","","<div style=""width:500px;"">
                            <p style=""font-size:50px; font-weight:bold;""
                            >exciting</p>
                            <div style=""width:240px; margin: auto;"">
                                <img src=""images/gray_h207_v480.png"" alt=""img"">
                            </div>
                        </div>","0","images/gray_h207_v480.png","","exciting","",""
"","","","","","html-slider-response","47","145804","0.0-39.0","NaN","-138","","<div style=""width:500px;"">
                            <p style=""font-size:50px; font-weight:bold;""
                            >exciting</p>
                            <div style=""width:240px; margin: auto;"">
                                <img src=""images/gray_h176_v209.png"" alt=""img"">
                            </div>
                        </div>","0","images/gray_h176_v209.png","","exciting","",""
"","","","","","html-slider-response","48","148363","0.0-40.0","NaN","19","","<div style=""width:500px;"">
                            <p style=""font-size:50px; font-weight:bold;""
                            >exciting</p>
                            <div style=""width:240px; margin: auto;"">
                                <img src=""images/gray_h149_v612.png"" alt=""img"">
                            </div>
                        </div>","0","images/gray_h149_v612.png","","exciting","",""
"","","","","","html-slider-response","49","150391","0.0-41.0","NaN","19","","<div style=""width:500px;"">
                            <p style=""font-size:50px; font-weight:bold;""
                            >exciting</p>
                            <div style=""width:240px; margin: auto;"">
                                <img src=""images/gray_h150_v613.png"" alt=""img"">
                            </div>
                        </div>","0","images/gray_h150_v613.png","","exciting","",""
"","","","","","html-slider-response","50","152900","0.0-42.0","NaN","62","","<div style=""width:500px;"">
                            <p style=""font-size:50px; font-weight:bold;""
                            >exciting</p>
                            <div style=""width:240px; margin: auto;"">
                                <img src=""images/gray_h178_v226.png"" alt=""img"">
                            </div>
                        </div>","0","images/gray_h178_v226.png","","exciting","",""
"","","","","","html-slider-response","51","156040","0.0-43.0","NaN","9","","<div style=""width:500px;"">
                            <p style=""font-size:50px; font-weight:bold;""
                            >exciting</p>
                            <div style=""width:240px; margin: auto;"">
                                <img src=""images/gray_h205_v494.png"" alt=""img"">
                            </div>
                        </div>","0","images/gray_h205_v494.png","","exciting","",""
"","","","","","html-slider-response","52","159435","0.0-44.0","NaN","-149","","<div style=""width:500px;"">
                            <p style=""font-size:50px; font-weight:bold;""
                            >exciting</p>
                            <div style=""width:240px; margin: auto;"">
                                <img src=""images/gray_h116_v508.png"" alt=""img"">
                            </div>
                        </div>","0","images/gray_h116_v508.png","","exciting","",""
"","","","","","html-slider-response","53","161839","0.0-45.0","NaN","82","","<div style=""width:500px;"">
                            <p style=""font-size:50px; font-weight:bold;""
                            >exciting</p>
                            <div style=""width:240px; margin: auto;"">
                                <img src=""images/gray_h148_v607.png"" alt=""img"">
                            </div>
                        </div>","0","images/gray_h148_v607.png","","exciting","",""
"","","","","","html-slider-response","54","164360","0.0-46.0","NaN","135","","<div style=""width:500px;"">
                            <p style=""font-size:50px; font-weight:bold;""
                            >exciting</p>
                            <div style=""width:240px; margin: auto;"">
                                <img src=""images/gray_h147_v604.png"" alt=""img"">
                            </div>
                        </div>","0","images/gray_h147_v604.png","","exciting","",""
"","","","","","html-slider-response","55","167273","0.0-47.0","NaN","10","","<div style=""width:500px;"">
                            <p style=""font-size:50px; font-weight:bold;""
                            >exciting</p>
                            <div style=""width:240px; margin: auto;"">
                                <img src=""images/gray_h146_v601.png"" alt=""img"">
                            </div>
                        </div>","0","images/gray_h146_v601.png","","exciting","",""
"","","","","","html-slider-response","56","169906","0.0-48.0","NaN","158","","<div style=""width:500px;"">
                            <p style=""font-size:50px; font-weight:bold;""
                            >exciting</p>
                            <div style=""width:240px; margin: auto;"">
                                <img src=""images/gray_h266_v305.png"" alt=""img"">
                            </div>
                        </div>","0","images/gray_h266_v305.png","","exciting","",""
"","","","","","html-slider-response","57","172042","0.0-49.0","NaN","45","","<div style=""width:500px;"">
                            <p style=""font-size:50px; font-weight:bold;""
                            >exciting</p>
                            <div style=""width:240px; margin: auto;"">
                                <img src=""images/gray_h143_v594.png"" alt=""img"">
                            </div>
                        </div>","0","images/gray_h143_v594.png","","exciting","",""
"","","","","","html-slider-response","58","174760","0.0-50.0","NaN","176","","<div style=""width:500px;"">
                            <p style=""font-size:50px; font-weight:bold;""
                            >exciting</p>
                            <div style=""width:240px; margin: auto;"">
                                <img src=""images/gray_h159_v655.png"" alt=""img"">
                            </div>
                        </div>","0","images/gray_h159_v655.png","","exciting","",""
"","","","","","html-slider-response","59","176679","0.0-51.0","NaN","27","","<div style=""width:500px;"">
                            <p style=""font-size:50px; font-weight:bold;""
                            >exciting</p>
                            <div style=""width:240px; margin: auto;"">
                                <img src=""images/gray_h267_v305.png"" alt=""img"">
                            </div>
                        </div>","0","images/gray_h267_v305.png","","exciting","",""
"","","","","","html-slider-response","60","178857","0.0-52.0","NaN","26","","<div style=""width:500px;"">
                            <p style=""font-size:50px; font-weight:bold;""
                            >exciting</p>
                            <div style=""width:240px; margin: auto;"">
                                <img src=""images/gray_h209_v481.png"" alt=""img"">
                            </div>
                        </div>","0","images/gray_h209_v481.png","","exciting","",""
"","","","","","html-slider-response","61","182577","0.0-53.0","NaN","45","","<div style=""width:500px;"">
                            <p style=""font-size:50px; font-weight:bold;""
                            >exciting</p>
                            <div style=""width:240px; margin: auto;"">
                                <img src=""images/gray_h114_v215.png"" alt=""img"">
                            </div>
                        </div>","0","images/gray_h114_v215.png","","exciting","",""
"","","","","","html-slider-response","62","184918","0.0-54.0","NaN","-120","","<div style=""width:500px;"">
                            <p style=""font-size:50px; font-weight:bold;""
                            >exciting</p>
                            <div style=""width:240px; margin: auto;"">
                                <img src=""images/gray_h148_v605.png"" alt=""img"">
                            </div>
                        </div>","0","images/gray_h148_v605.png","","exciting","",""
"","","","","","html-slider-response","63","187081","0.0-55.0","NaN","22","","<div style=""width:500px;"">
                            <p style=""font-size:50px; font-weight:bold;""
                            >exciting</p>
                            <div style=""width:240px; margin: auto;"">
                                <img src=""images/gray_h206_v476.png"" alt=""img"">
                            </div>
                        </div>","0","images/gray_h206_v476.png","","exciting","",""
"","","","","","html-slider-response","64","189464","0.0-56.0","NaN","144","","<div style=""width:500px;"">
                            <p style=""font-size:50px; font-weight:bold;""
                            >exciting</p>
                            <div style=""width:240px; margin: auto;"">
                                <img src=""images/gray_h148_v640.png"" alt=""img"">
                            </div>
                        </div>","0","images/gray_h148_v640.png","","exciting","",""
"","","","","","html-slider-response","65","192638","0.0-57.0","NaN","138","","<div style=""width:500px;"">
                            <p style=""font-size:50px; font-weight:bold;""
                            >exciting</p>
                            <div style=""width:240px; margin: auto;"">
                                <img src=""images/gray_h154_v646.png"" alt=""img"">
                            </div>
                        </div>","0","images/gray_h154_v646.png","","exciting","",""
"","","","","","html-slider-response","66","196471","0.0-58.0","NaN","113","","<div style=""width:500px;"">
                            <p style=""font-size:50px; font-weight:bold;""
                            >exciting</p>
                            <div style=""width:240px; margin: auto;"">
                                <img src=""images/gray_h072_v611.png"" alt=""img"">
                            </div>
                        </div>","0","images/gray_h072_v611.png","","exciting","",""
"","","","","","html-slider-response","67","199795","0.0-59.0","NaN","-80","","<div style=""width:500px;"">
                            <p style=""font-size:50px; font-weight:bold;""
                            >exciting</p>
                            <div style=""width:240px; margin: auto;"">
                                <img src=""images/gray_h203_v486.png"" alt=""img"">
                            </div>
                        </div>","0","images/gray_h203_v486.png","","exciting","",""
"","","","","","html-slider-response","68","201910","0.0-60.0","NaN","-112","","<div style=""width:500px;"">
                            <p style=""font-size:50px; font-weight:bold;""
                            >exciting</p>
                            <div style=""width:240px; margin: auto;"">
                                <img src=""images/gray_h176_v214.png"" alt=""img"">
                            </div>
                        </div>","0","images/gray_h176_v214.png","","exciting","",""
"","","","","","html-slider-response","69","204869","0.0-61.0","NaN","115","","<div style=""width:500px;"">
                            <p style=""font-size:50px; font-weight:bold;""
                            >exciting</p>
                            <div style=""width:240px; margin: auto;"">
                                <img src=""images/gray_h145_v600.png"" alt=""img"">
                            </div>
                        </div>","0","images/gray_h145_v600.png","","exciting","",""
"","","","","","html-slider-response","70","207660","0.0-62.0","NaN","114","","<div style=""width:500px;"">
                            <p style=""font-size:50px; font-weight:bold;""
                            >exciting</p>
                            <div style=""width:240px; margin: auto;"">
                                <img src=""images/gray_h147_v648.png"" alt=""img"">
                            </div>
                        </div>","0","images/gray_h147_v648.png","","exciting","",""
"","","","","","html-button-response","71","210048","0.0-63.0","1884","0","","<p>Great Job! You've finished block 1.<br></br> You have 7 block(s) left to go.<br></br></p>","","","","","",""
"","","","","","html-button-response","72","211211","0.0-64.0","1163","0","","<p>In this block of trials, you will be asked to rate how much you associate each map with:</p > <p style = 'font-size:150%; font-weight: bold'>negative</p><br></br>","","","","","",""
"","","","","","html-slider-response","73","214203","0.0-65.0","NaN","-126","","<div style=""width:500px;"">
                            <p style=""font-size:50px; font-weight:bold;""
                            >negative</p>
                            <div style=""width:240px; margin: auto;"">
                                <img src=""images/gray_h143_v594.png"" alt=""img"">
                            </div>
                        </div>","0","images/gray_h143_v594.png","","negative","",""
"","","","","","html-slider-response","74","217263","0.0-66.0","NaN","68","","<div style=""width:500px;"">
                            <p style=""font-size:50px; font-weight:bold;""
                            >negative</p>
                            <div style=""width:240px; margin: auto;"">
                                <img src=""images/gray_h147_v603.png"" alt=""img"">
                            </div>
                        </div>","0","images/gray_h147_v603.png","","negative","",""
"","","","","","html-slider-response","75","220086","0.0-67.0","NaN","86","","<div style=""width:500px;"">
                            <p style=""font-size:50px; font-weight:bold;""
                            >negative</p>
                            <div style=""width:240px; margin: auto;"">
                                <img src=""images/gray_h241_v296.png"" alt=""img"">
                            </div>
                        </div>","0","images/gray_h241_v296.png","","negative","",""
"","","","","","html-slider-response","76","225030","0.0-68.0","NaN","105","","<div style=""width:500px;"">
                            <p style=""font-size:50px; font-weight:bold;""
                            >negative</p>
                            <div style=""width:240px; margin: auto;"">
                                <img src=""images/gray_h176_v209.png"" alt=""img"">
                            </div>
                        </div>","0","images/gray_h176_v209.png","","negative","",""
"","","","","","html-slider-response","77","229003","0.0-69.0","NaN","176","","<div style=""width:500px;"">
                            <p style=""font-size:50px; font-weight:bold;""
                            >negative</p>
                            <div style=""width:240px; margin: auto;"">
                                <img src=""images/gray_h181_v683.png"" alt=""img"">
                            </div>
                        </div>","0","images/gray_h181_v683.png","","negative","",""
"","","","","","html-slider-response","78","231840","0.0-70.0","NaN","-83","","<div style=""width:500px;"">
                            <p style=""font-size:50px; font-weight:bold;""
                            >negative</p>
                            <div style=""width:240px; margin: auto;"">
                                <img src=""images/gray_h148_v607.png"" alt=""img"">
                            </div>
                        </div>","0","images/gray_h148_v607.png","","negative","",""
"","","","","","html-slider-response","79","234407","0.0-71.0","NaN","-110","","<div style=""width:500px;"">
                            <p style=""font-size:50px; font-weight:bold;""
                            >negative</p>
                            <div style=""width:240px; margin: auto;"">
                                <img src=""images/gray_h151_v616.png"" alt=""img"">
                            </div>
                        </div>","0","images/gray_h151_v616.png","","negative","",""
"","","","","","html-slider-response","80","237176","0.0-72.0","NaN","124","","<div style=""width:500px;"">
                            <p style=""font-size:50px; font-weight:bold;""
                            >negative</p>
                            <div style=""width:240px; margin: auto;"">
                                <img src=""images/gray_h154_v646.png"" alt=""img"">
                            </div>
                        </div>","0","images/gray_h154_v646.png","","negative","",""
"","","","","","html-slider-response","81","240607","0.0-73.0","NaN","70","","<div style=""width:500px;"">
                            <p style=""font-size:50px; font-weight:bold;""
                            >negative</p>
                            <div style=""width:240px; margin: auto;"">
                                <img src=""images/gray_h155_v647.png"" alt=""img"">
                            </div>
                        </div>","0","images/gray_h155_v647.png","","negative","",""
"","","","","","html-slider-response","82","245617","0.0-74.0","NaN","-19","","<div style=""width:500px;"">
                            <p style=""font-size:50px; font-weight:bold;""
                            >negative</p>
                            <div style=""width:240px; margin: auto;"">
                                <img src=""images/gray_h167_v644.png"" alt=""img"">
                            </div>
                        </div>","0","images/gray_h167_v644.png","","negative","",""
"","","","","","html-slider-response","83","248537","0.0-75.0","NaN","-41","","<div style=""width:500px;"">
                            <p style=""font-size:50px; font-weight:bold;""
                            >negative</p>
                            <div style=""width:240px; margin: auto;"">
                                <img src=""images/gray_h267_v305.png"" alt=""img"">
                            </div>
                        </div>","0","images/gray_h267_v305.png","","negative","",""
"","","","","","html-slider-response","84","250838","0.0-76.0","NaN","86","","<div style=""width:500px;"">
                            <p style=""font-size:50px; font-weight:bold;""
                            >negative</p>
                            <div style=""width:240px; margin: auto;"">
                                <img src=""images/gray_h151_v619.png"" alt=""img"">
                            </div>
                        </div>","0","images/gray_h151_v619.png","","negative","",""
"","","","","","html-slider-response","85","253624","0.0-77.0","NaN","156","","<div style=""width:500px;"">
                            <p style=""font-size:50px; font-weight:bold;""
                            >negative</p>
                            <div style=""width:240px; margin: auto;"">
                                <img src=""images/gray_h209_v481.png"" alt=""img"">
                            </div>
                        </div>","0","images/gray_h209_v481.png","","negative","",""
"","","","","","html-slider-response","86","256861","0.0-78.0","NaN","-50","","<div style=""width:500px;"">
                            <p style=""font-size:50px; font-weight:bold;""
                            >negative</p>
                            <div style=""width:240px; margin: auto;"">
                                <img src=""images/gray_h152_v629.png"" alt=""img"">
                            </div>
                        </div>","0","images/gray_h152_v629.png","","negative","",""
"","","","","","html-slider-response","87","259052","0.0-79.0","NaN","-105","","<div style=""width:500px;"">
                            <p style=""font-size:50px; font-weight:bold;""
                            >negative</p>
                            <div style=""width:240px; margin: auto;"">
                                <img src=""images/gray_h150_v613.png"" alt=""img"">
                            </div>
                        </div>","0","images/gray_h150_v613.png","","negative","",""
"","","","","","html-slider-response","88","261856","0.0-80.0","NaN","-151","","<div style=""width:500px;"">
                            <p style=""font-size:50px; font-weight:bold;""
                            >negative</p>
                            <div style=""width:240px; margin: auto;"">
                                <img src=""images/gray_h151_v618.png"" alt=""img"">
                            </div>
                        </div>","0","images/gray_h151_v618.png","","negative","",""
"","","","","","html-slider-response","89","264477","0.0-81.0","NaN","-103","","<div style=""width:500px;"">
                            <p style=""font-size:50px; font-weight:bold;""
                            >negative</p>
                            <div style=""width:240px; margin: auto;"">
                                <img src=""images/gray_h144_v597.png"" alt=""img"">
                            </div>
                        </div>","0","images/gray_h144_v597.png","","negative","",""
"","","","","","html-slider-response","90","266636","0.0-82.0","NaN","-112","","<div style=""width:500px;"">
                            <p style=""font-size:50px; font-weight:bold;""
                            >negative</p>
                            <div style=""width:240px; margin: auto;"">
                                <img src=""images/gray_h146_v600.png"" alt=""img"">
                            </div>
                        </div>","0","images/gray_h146_v600.png","","negative","",""
"","","","","","html-slider-response","91","269906","0.0-83.0","NaN","148","","<div style=""width:500px;"">
                            <p style=""font-size:50px; font-weight:bold;""
                            >negative</p>
                            <div style=""width:240px; margin: auto;"">
                                <img src=""images/gray_h239_v499.png"" alt=""img"">
                            </div>
                        </div>","0","images/gray_h239_v499.png","","negative","",""
"","","","","","html-slider-response","92","274310","0.0-84.0","NaN","-64","","<div style=""width:500px;"">
                            <p style=""font-size:50px; font-weight:bold;""
                            >negative</p>
                            <div style=""width:240px; margin: auto;"">
                                <img src=""images/gray_h147_v647.png"" alt=""img"">
                            </div>
                        </div>","0","images/gray_h147_v647.png","","negative","",""
"","","","","","html-slider-response","93","275845","0.0-85.0","NaN","-2","","<div style=""width:500px;"">
                            <p style=""font-size:50px; font-weight:bold;""
                            >negative</p>
                            <div style=""width:240px; margin: auto;"">
                                <img src=""images/gray_h206_v494.png"" alt=""img"">
                            </div>
                        </div>","0","images/gray_h206_v494.png","","negative","",""
"","","","","","html-slider-response","94","281858","0.0-86.0","NaN","140","","<div style=""width:500px;"">
                            <p style=""font-size:50px; font-weight:bold;""
                            >negative</p>
                            <div style=""width:240px; margin: auto;"">
                                <img src=""images/gray_h116_v508.png"" alt=""img"">
                            </div>
                        </div>","0","images/gray_h116_v508.png","","negative","",""
"","","","","","html-slider-response","95","285243","0.0-87.0","NaN","54","","<div style=""width:500px;"">
                            <p style=""font-size:50px; font-weight:bold;""
                            >negative</p>
                            <div style=""width:240px; margin: auto;"">
                                <img src=""images/gray_h207_v480.png"" alt=""img"">
                            </div>
                        </div>","0","images/gray_h207_v480.png","","negative","",""
"","","","","","html-slider-response","96","287863","0.0-88.0","NaN","176","","<div style=""width:500px;"">
                            <p style=""font-size:50px; font-weight:bold;""
                            >negative</p>
                            <div style=""width:240px; margin: auto;"">
                                <img src=""images/gray_h223_v317.png"" alt=""img"">
                            </div>
                        </div>","0","images/gray_h223_v317.png","","negative","",""
"","","","","","html-slider-response","97","290403","0.0-89.0","NaN","-66","","<div style=""width:500px;"">
                            <p style=""font-size:50px; font-weight:bold;""
                            >negative</p>
                            <div style=""width:240px; margin: auto;"">
                                <img src=""images/gray_h148_v605.png"" alt=""img"">
                            </div>
                        </div>","0","images/gray_h148_v605.png","","negative","",""
"","","","","","html-slider-response","98","292567","0.0-90.0","NaN","-99","","<div style=""width:500px;"">
                            <p style=""font-size:50px; font-weight:bold;""
                            >negative</p>
                            <div style=""width:240px; margin: auto;"">
                                <img src=""images/gray_h150_v615.png"" alt=""img"">
                            </div>
                        </div>","0","images/gray_h150_v615.png","","negative","",""
"","","","","","html-slider-response","99","295001","0.0-91.0","NaN","175","","<div style=""width:500px;"">
                            <p style=""font-size:50px; font-weight:bold;""
                            >negative</p>
                            <div style=""width:240px; margin: auto;"">
                                <img src=""images/gray_h114_v215.png"" alt=""img"">
                            </div>
                        </div>","0","images/gray_h114_v215.png","","negative","",""
"","","","","","html-slider-response","100","297941","0.0-92.0","NaN","-34","","<div style=""width:500px;"">
                            <p style=""font-size:50px; font-weight:bold;""
                            >negative</p>
                            <div style=""width:240px; margin: auto;"">
                                <img src=""images/gray_h147_v604.png"" alt=""img"">
                            </div>
                        </div>","0","images/gray_h147_v604.png","","negative","",""
"","","","","","html-slider-response","101","300286","0.0-93.0","NaN","200","","<div style=""width:500px;"">
                            <p style=""font-size:50px; font-weight:bold;""
                            >negative</p>
                            <div style=""width:240px; margin: auto;"">
                                <img src=""images/gray_h266_v305.png"" alt=""img"">
                            </div>
                        </div>","0","images/gray_h266_v305.png","","negative","",""
"","","","","","html-slider-response","102","302519","0.0-94.0","NaN","74","","<div style=""width:500px;"">
                            <p style=""font-size:50px; font-weight:bold;""
                            >negative</p>
                            <div style=""width:240px; margin: auto;"">
                                <img src=""images/gray_h241_v304.png"" alt=""img"">
                            </div>
                        </div>","0","images/gray_h241_v304.png","","negative","",""
"","","","","","html-slider-response","103","304501","0.0-95.0","NaN","52","","<div style=""width:500px;"">
                            <p style=""font-size:50px; font-weight:bold;""
                            >negative</p>
                            <div style=""width:240px; margin: auto;"">
                                <img src=""images/gray_h143_v595.png"" alt=""img"">
                            </div>
                        </div>","0","images/gray_h143_v595.png","","negative","",""
"","","","","","html-slider-response","104","307275","0.0-96.0","NaN","94","","<div style=""width:500px;"">
                            <p style=""font-size:50px; font-weight:bold;""
                            >negative</p>
                            <div style=""width:240px; margin: auto;"">
                                <img src=""images/gray_h148_v640.png"" alt=""img"">
                            </div>
                        </div>","0","images/gray_h148_v640.png","","negative","",""
"","","","","","html-slider-response","105","309908","0.0-97.0","NaN","21","","<div style=""width:500px;"">
                            <p style=""font-size:50px; font-weight:bold;""
                            >negative</p>
                            <div style=""width:240px; margin: auto;"">
                                <img src=""images/gray_h153_v646.png"" alt=""img"">
                            </div>
                        </div>","0","images/gray_h153_v646.png","","negative","",""
"","","","","","html-slider-response","106","314147","0.0-98.0","NaN","101","","<div style=""width:500px;"">
                            <p style=""font-size:50px; font-weight:bold;""
                            >negative</p>
                            <div style=""width:240px; margin: auto;"">
                                <img src=""images/gray_h157_v677.png"" alt=""img"">
                            </div>
                        </div>","0","images/gray_h157_v677.png","","negative","",""
"","","","","","html-slider-response","107","317616","0.0-99.0","NaN","173","","<div style=""width:500px;"">
                            <p style=""font-size:50px; font-weight:bold;""
                            >negative</p>
                            <div style=""width:240px; margin: auto;"">
                                <img src=""images/gray_h144_v595.png"" alt=""img"">
                            </div>
                        </div>","0","images/gray_h144_v595.png","","negative","",""
"","","","","","html-slider-response","108","320474","0.0-100.0","NaN","200","","<div style=""width:500px;"">
                            <p style=""font-size:50px; font-weight:bold;""
                            >negative</p>
                            <div style=""width:240px; margin: auto;"">
                                <img src=""images/gray_h159_v655.png"" alt=""img"">
                            </div>
                        </div>","0","images/gray_h159_v655.png","","negative","",""
"","","","","","html-slider-response","109","322891","0.0-101.0","NaN","134","","<div style=""width:500px;"">
                            <p style=""font-size:50px; font-weight:bold;""
                            >negative</p>
                            <div style=""width:240px; margin: auto;"">
                                <img src=""images/gray_h147_v672.png"" alt=""img"">
                            </div>
                        </div>","0","images/gray_h147_v672.png","","negative","",""
"","","","","","html-slider-response","110","325805","0.0-102.0","NaN","85","","<div style=""width:500px;"">
                            <p style=""font-size:50px; font-weight:bold;""
                            >negative</p>
                            <div style=""width:240px; margin: auto;"">
                                <img src=""images/gray_h183_v676.png"" alt=""img"">
                            </div>
                        </div>","0","images/gray_h183_v676.png","","negative","",""
"","","","","","html-slider-response","111","328880","0.0-103.0","NaN","200","","<div style=""width:500px;"">
                            <p style=""font-size:50px; font-weight:bold;""
                            >negative</p>
                            <div style=""width:240px; margin: auto;"">
                                <img src=""images/gray_h200_v276.png"" alt=""img"">
                            </div>
                        </div>","0","images/gray_h200_v276.png","","negative","",""
"","","","","","html-slider-response","112","332317","0.0-104.0","NaN","-54","","<div style=""width:500px;"">
                            <p style=""font-size:50px; font-weight:bold;""
                            >negative</p>
                            <div style=""width:240px; margin: auto;"">
                                <img src=""images/gray_h205_v484.png"" alt=""img"">
                            </div>
                        </div>","0","images/gray_h205_v484.png","","negative","",""
"","","","","","html-slider-response","113","334673","0.0-105.0","NaN","53","","<div style=""width:500px;"">
                            <p style=""font-size:50px; font-weight:bold;""
                            >negative</p>
                            <div style=""width:240px; margin: auto;"">
                                <img src=""images/gray_h072_v611.png"" alt=""img"">
                            </div>
                        </div>","0","images/gray_h072_v611.png","","negative","",""
"","","","","","html-slider-response","114","336933","0.0-106.0","NaN","-87","","<div style=""width:500px;"">
                            <p style=""font-size:50px; font-weight:bold;""
                            >negative</p>
                            <div style=""width:240px; margin: auto;"">
                                <img src=""images/gray_h147_v648.png"" alt=""img"">
                            </div>
                        </div>","0","images/gray_h147_v648.png","","negative","",""
"","","","","","html-slider-response","115","339831","0.0-107.0","NaN","90","","<div style=""width:500px;"">
                            <p style=""font-size:50px; font-weight:bold;""
                            >negative</p>
                            <div style=""width:240px; margin: auto;"">
                                <img src=""images/gray_h149_v612.png"" alt=""img"">
                            </div>
                        </div>","0","images/gray_h149_v612.png","","negative","",""
"","","","","","html-slider-response","116","342569","0.0-108.0","NaN","159","","<div style=""width:500px;"">
                            <p style=""font-size:50px; font-weight:bold;""
                            >negative</p>
                            <div style=""width:240px; margin: auto;"">
                                <img src=""images/gray_h250_v546.png"" alt=""img"">
                            </div>
                        </div>","0","images/gray_h250_v546.png","","negative","",""
"","","","","","html-slider-response","117","345016","0.0-109.0","NaN","-50","","<div style=""width:500px;"">
                            <p style=""font-size:50px; font-weight:bold;""
                            >negative</p>
                            <div style=""width:240px; margin: auto;"">
                                <img src=""images/gray_h176_v214.png"" alt=""img"">
                            </div>
                        </div>","0","images/gray_h176_v214.png","","negative","",""
"","","","","","html-slider-response","118","350150","0.0-110.0","NaN","50","","<div style=""width:500px;"">
                            <p style=""font-size:50px; font-weight:bold;""
                            >negative</p>
                            <div style=""width:240px; margin: auto;"">
                                <img src=""images/gray_h178_v226.png"" alt=""img"">
                            </div>
                        </div>","0","images/gray_h178_v226.png","","negative","",""
"","","","","","html-slider-response","119","352396","0.0-111.0","NaN","200","","<div style=""width:500px;"">
                            <p style=""font-size:50px; font-weight:bold;""
                            >negative</p>
                            <div style=""width:240px; margin: auto;"">
                                <img src=""images/gray_h206_v476.png"" alt=""img"">
                            </div>
                        </div>","0","images/gray_h206_v476.png","","negative","",""
"","","","","","html-slider-response","120","354870","0.0-112.0","NaN","162","","<div style=""width:500px;"">
                            <p style=""font-size:50px; font-weight:bold;""
                            >negative</p>
                            <div style=""width:240px; margin: auto;"">
                                <img src=""images/gray_h246_v290.png"" alt=""img"">
                            </div>
                        </div>","0","images/gray_h246_v290.png","","negative","",""
"","","","","","html-slider-response","121","357488","0.0-113.0","NaN","116","","<div style=""width:500px;"">
                            <p style=""font-size:50px; font-weight:bold;""
                            >negative</p>
                            <div style=""width:240px; margin: auto;"">
                                <img src=""images/gray_h145_v600.png"" alt=""img"">
                            </div>
                        </div>","0","images/gray_h145_v600.png","","negative","",""
"","","","","","html-slider-response","122","359826","0.0-114.0","NaN","-104","","<div style=""width:500px;"">
                            <p style=""font-size:50px; font-weight:bold;""
                            >negative</p>
                            <div style=""width:240px; margin: auto;"">
                                <img src=""images/gray_h146_v601.png"" alt=""img"">
                            </div>
                        </div>","0","images/gray_h146_v601.png","","negative","",""
"","","","","","html-slider-response","123","362487","0.0-115.0","NaN","-169","","<div style=""width:500px;"">
                            <p style=""font-size:50px; font-weight:bold;""
                            >negative</p>
                            <div style=""width:240px; margin: auto;"">
                                <img src=""images/gray_h205_v494.png"" alt=""img"">
                            </div>
                        </div>","0","images/gray_h205_v494.png","","negative","",""
"","","","","","html-slider-response","124","365155","0.0-116.0","NaN","38","","<div style=""width:500px;"">
                            <p style=""font-size:50px; font-weight:bold;""
                            >negative</p>
                            <div style=""width:240px; margin: auto;"">
                                <img src=""images/gray_h203_v486.png"" alt=""img"">
                            </div>
                        </div>","0","images/gray_h203_v486.png","","negative","",""
"","","","","","html-slider-response","125","369070","0.0-117.0","NaN","70","","<div style=""width:500px;"">
                            <p style=""font-size:50px; font-weight:bold;""
                            >negative</p>
                            <div style=""width:240px; margin: auto;"">
                                <img src=""images/gray_h146_v602.png"" alt=""img"">
                            </div>
                        </div>","0","images/gray_h146_v602.png","","negative","",""
"","","","","","html-button-response","126","370662","0.0-118.0","1088","0","","<p>Great Job! You've finished block 2.<br></br> You have 6 block(s) left to go.<br></br></p>","","","","","",""
"","","","","","html-button-response","127","371409","0.0-119.0","747","0","","<p>In this block of trials, you will be asked to rate how much you associate each map with:</p > <p style = 'font-size:150%; font-weight: bold'>positive</p><br></br>","","","","","",""
"","","","","","html-slider-response","128","374354","0.0-120.0","NaN","-131","","<div style=""width:500px;"">
                            <p style=""font-size:50px; font-weight:bold;""
                            >positive</p>
                            <div style=""width:240px; margin: auto;"">
                                <img src=""images/gray_h159_v655.png"" alt=""img"">
                            </div>
                        </div>","0","images/gray_h159_v655.png","","positive","",""
"","","","","","html-slider-response","129","376766","0.0-121.0","NaN","40","","<div style=""width:500px;"">
                            <p style=""font-size:50px; font-weight:bold;""
                            >positive</p>
                            <div style=""width:240px; margin: auto;"">
                                <img src=""images/gray_h147_v647.png"" alt=""img"">
                            </div>
                        </div>","0","images/gray_h147_v647.png","","positive","",""
"","","","","","html-slider-response","130","379068","0.0-122.0","NaN","-113","","<div style=""width:500px;"">
                            <p style=""font-size:50px; font-weight:bold;""
                            >positive</p>
                            <div style=""width:240px; margin: auto;"">
                                <img src=""images/gray_h144_v595.png"" alt=""img"">
                            </div>
                        </div>","0","images/gray_h144_v595.png","","positive","",""
"","","","","","html-slider-response","131","381277","0.0-123.0","NaN","-150","","<div style=""width:500px;"">
                            <p style=""font-size:50px; font-weight:bold;""
                            >positive</p>
                            <div style=""width:240px; margin: auto;"">
                                <img src=""images/gray_h239_v499.png"" alt=""img"">
                            </div>
                        </div>","0","images/gray_h239_v499.png","","positive","",""
"","","","","","html-slider-response","132","383532","0.0-124.0","NaN","51","","<div style=""width:500px;"">
                            <p style=""font-size:50px; font-weight:bold;""
                            >positive</p>
                            <div style=""width:240px; margin: auto;"">
                                <img src=""images/gray_h147_v648.png"" alt=""img"">
                            </div>
                        </div>","0","images/gray_h147_v648.png","","positive","",""
"","","","","","html-slider-response","133","386051","0.0-125.0","NaN","48","","<div style=""width:500px;"">
                            <p style=""font-size:50px; font-weight:bold;""
                            >positive</p>
                            <div style=""width:240px; margin: auto;"">
                                <img src=""images/gray_h151_v619.png"" alt=""img"">
                            </div>
                        </div>","0","images/gray_h151_v619.png","","positive","",""
"","","","","","html-slider-response","134","388365","0.0-126.0","NaN","-147","","<div style=""width:500px;"">
                            <p style=""font-size:50px; font-weight:bold;""
                            >positive</p>
                            <div style=""width:240px; margin: auto;"">
                                <img src=""images/gray_h154_v646.png"" alt=""img"">
                            </div>
                        </div>","0","images/gray_h154_v646.png","","positive","",""
"","","","","","html-slider-response","135","390664","0.0-127.0","NaN","-200","","<div style=""width:500px;"">
                            <p style=""font-size:50px; font-weight:bold;""
                            >positive</p>
                            <div style=""width:240px; margin: auto;"">
                                <img src=""images/gray_h223_v317.png"" alt=""img"">
                            </div>
                        </div>","0","images/gray_h223_v317.png","","positive","",""
"","","","","","html-slider-response","136","393014","0.0-128.0","NaN","-116","","<div style=""width:500px;"">
                            <p style=""font-size:50px; font-weight:bold;""
                            >positive</p>
                            <div style=""width:240px; margin: auto;"">
                                <img src=""images/gray_h072_v611.png"" alt=""img"">
                            </div>
                        </div>","0","images/gray_h072_v611.png","","positive","",""
"","","","","","html-slider-response","137","395589","0.0-129.0","NaN","-97","","<div style=""width:500px;"">
                            <p style=""font-size:50px; font-weight:bold;""
                            >positive</p>
                            <div style=""width:240px; margin: auto;"">
                                <img src=""images/gray_h241_v304.png"" alt=""img"">
                            </div>
                        </div>","0","images/gray_h241_v304.png","","positive","",""
"","","","","","html-slider-response","138","398483","0.0-130.0","NaN","162","","<div style=""width:500px;"">
                            <p style=""font-size:50px; font-weight:bold;""
                            >positive</p>
                            <div style=""width:240px; margin: auto;"">
                                <img src=""images/gray_h176_v209.png"" alt=""img"">
                            </div>
                        </div>","0","images/gray_h176_v209.png","","positive","",""
"","","","","","html-slider-response","139","400759","0.0-131.0","NaN","57","","<div style=""width:500px;"">
                            <p style=""font-size:50px; font-weight:bold;""
                            >positive</p>
                            <div style=""width:240px; margin: auto;"">
                                <img src=""images/gray_h155_v647.png"" alt=""img"">
                            </div>
                        </div>","0","images/gray_h155_v647.png","","positive","",""
"","","","","","html-slider-response","140","402955","0.0-132.0","NaN","-89","","<div style=""width:500px;"">
                            <p style=""font-size:50px; font-weight:bold;""
                            >positive</p>
                            <div style=""width:240px; margin: auto;"">
                                <img src=""images/gray_h266_v305.png"" alt=""img"">
                            </div>
                        </div>","0","images/gray_h266_v305.png","","positive","",""
"","","","","","html-slider-response","141","405725","0.0-133.0","NaN","70","","<div style=""width:500px;"">
                            <p style=""font-size:50px; font-weight:bold;""
                            >positive</p>
                            <div style=""width:240px; margin: auto;"">
                                <img src=""images/gray_h267_v305.png"" alt=""img"">
                            </div>
                        </div>","0","images/gray_h267_v305.png","","positive","",""
"","","","","","html-slider-response","142","408464","0.0-134.0","NaN","30","","<div style=""width:500px;"">
                            <p style=""font-size:50px; font-weight:bold;""
                            >positive</p>
                            <div style=""width:240px; margin: auto;"">
                                <img src=""images/gray_h206_v494.png"" alt=""img"">
                            </div>
                        </div>","0","images/gray_h206_v494.png","","positive","",""
"","","","","","html-slider-response","143","411159","0.0-135.0","NaN","132","","<div style=""width:500px;"">
                            <p style=""font-size:50px; font-weight:bold;""
                            >positive</p>
                            <div style=""width:240px; margin: auto;"">
                                <img src=""images/gray_h151_v616.png"" alt=""img"">
                            </div>
                        </div>","0","images/gray_h151_v616.png","","positive","",""
"","","","","","html-slider-response","144","415109","0.0-136.0","NaN","182","","<div style=""width:500px;"">
                            <p style=""font-size:50px; font-weight:bold;""
                            >positive</p>
                            <div style=""width:240px; margin: auto;"">
                                <img src=""images/gray_h176_v214.png"" alt=""img"">
                            </div>
                        </div>","0","images/gray_h176_v214.png","","positive","",""
"","","","","","html-slider-response","145","417143","0.0-137.0","NaN","200","","<div style=""width:500px;"">
                            <p style=""font-size:50px; font-weight:bold;""
                            >positive</p>
                            <div style=""width:240px; margin: auto;"">
                                <img src=""images/gray_h146_v600.png"" alt=""img"">
                            </div>
                        </div>","0","images/gray_h146_v600.png","","positive","",""
"","","","","","html-slider-response","146","419320","0.0-138.0","NaN","182","","<div style=""width:500px;"">
                            <p style=""font-size:50px; font-weight:bold;""
                            >positive</p>
                            <div style=""width:240px; margin: auto;"">
                                <img src=""images/gray_h150_v613.png"" alt=""img"">
                            </div>
                        </div>","0","images/gray_h150_v613.png","","positive","",""
"","","","","","html-slider-response","147","421438","0.0-139.0","NaN","200","","<div style=""width:500px;"">
                            <p style=""font-size:50px; font-weight:bold;""
                            >positive</p>
                            <div style=""width:240px; margin: auto;"">
                                <img src=""images/gray_h148_v605.png"" alt=""img"">
                            </div>
                        </div>","0","images/gray_h148_v605.png","","positive","",""
"","","","","","html-slider-response","148","424038","0.0-140.0","NaN","33","","<div style=""width:500px;"">
                            <p style=""font-size:50px; font-weight:bold;""
                            >positive</p>
                            <div style=""width:240px; margin: auto;"">
                                <img src=""images/gray_h178_v226.png"" alt=""img"">
                            </div>
                        </div>","0","images/gray_h178_v226.png","","positive","",""
"","","","","","html-slider-response","149","428357","0.0-141.0","NaN","63","","<div style=""width:500px;"">
                            <p style=""font-size:50px; font-weight:bold;""
                            >positive</p>
                            <div style=""width:240px; margin: auto;"">
                                <img src=""images/gray_h147_v604.png"" alt=""img"">
                            </div>
                        </div>","0","images/gray_h147_v604.png","","positive","",""
"","","","","","html-slider-response","150","432984","0.0-142.0","NaN","28","","<div style=""width:500px;"">
                            <p style=""font-size:50px; font-weight:bold;""
                            >positive</p>
                            <div style=""width:240px; margin: auto;"">
                                <img src=""images/gray_h147_v603.png"" alt=""img"">
                            </div>
                        </div>","0","images/gray_h147_v603.png","","positive","",""
"","","","","","html-slider-response","151","434832","0.0-143.0","NaN","58","","<div style=""width:500px;"">
                            <p style=""font-size:50px; font-weight:bold;""
                            >positive</p>
                            <div style=""width:240px; margin: auto;"">
                                <img src=""images/gray_h149_v612.png"" alt=""img"">
                            </div>
                        </div>","0","images/gray_h149_v612.png","","positive","",""
"","","","","","html-slider-response","152","437404","0.0-144.0","NaN","-118","","<div style=""width:500px;"">
                            <p style=""font-size:50px; font-weight:bold;""
                            >positive</p>
                            <div style=""width:240px; margin: auto;"">
                                <img src=""images/gray_h157_v677.png"" alt=""img"">
                            </div>
                        </div>","0","images/gray_h157_v677.png","","positive","",""
"","","","","","html-slider-response","153","439986","0.0-145.0","NaN","116","","<div style=""width:500px;"">
                            <p style=""font-size:50px; font-weight:bold;""
                            >positive</p>
                            <div style=""width:240px; margin: auto;"">
                                <img src=""images/gray_h153_v646.png"" alt=""img"">
                            </div>
                        </div>","0","images/gray_h153_v646.png","","positive","",""
"","","","","","html-slider-response","154","442223","0.0-146.0","NaN","-81","","<div style=""width:500px;"">
                            <p style=""font-size:50px; font-weight:bold;""
                            >positive</p>
                            <div style=""width:240px; margin: auto;"">
                                <img src=""images/gray_h145_v600.png"" alt=""img"">
                            </div>
                        </div>","0","images/gray_h145_v600.png","","positive","",""
"","","","","","html-slider-response","155","444448","0.0-147.0","NaN","-138","","<div style=""width:500px;"">
                            <p style=""font-size:50px; font-weight:bold;""
                            >positive</p>
                            <div style=""width:240px; margin: auto;"">
                                <img src=""images/gray_h200_v276.png"" alt=""img"">
                            </div>
                        </div>","0","images/gray_h200_v276.png","","positive","",""
"","","","","","html-slider-response","156","446984","0.0-148.0","NaN","-174","","<div style=""width:500px;"">
                            <p style=""font-size:50px; font-weight:bold;""
                            >positive</p>
                            <div style=""width:240px; margin: auto;"">
                                <img src=""images/gray_h183_v676.png"" alt=""img"">
                            </div>
                        </div>","0","images/gray_h183_v676.png","","positive","",""
"","","","","","html-slider-response","157","450022","0.0-149.0","NaN","35","","<div style=""width:500px;"">
                            <p style=""font-size:50px; font-weight:bold;""
                            >positive</p>
                            <div style=""width:240px; margin: auto;"">
                                <img src=""images/gray_h143_v594.png"" alt=""img"">
                            </div>
                        </div>","0","images/gray_h143_v594.png","","positive","",""
"","","","","","html-slider-response","158","452014","0.0-150.0","NaN","-191","","<div style=""width:500px;"">
                            <p style=""font-size:50px; font-weight:bold;""
                            >positive</p>
                            <div style=""width:240px; margin: auto;"">
                                <img src=""images/gray_h114_v215.png"" alt=""img"">
                            </div>
                        </div>","0","images/gray_h114_v215.png","","positive","",""
"","","","","","html-slider-response","159","456146","0.0-151.0","NaN","18","","<div style=""width:500px;"">
                            <p style=""font-size:50px; font-weight:bold;""
                            >positive</p>
                            <div style=""width:240px; margin: auto;"">
                                <img src=""images/gray_h116_v508.png"" alt=""img"">
                            </div>
                        </div>","0","images/gray_h116_v508.png","","positive","",""
"","","","","","html-slider-response","160","459158","0.0-152.0","NaN","-109","","<div style=""width:500px;"">
                            <p style=""font-size:50px; font-weight:bold;""
                            >positive</p>
                            <div style=""width:240px; margin: auto;"">
                                <img src=""images/gray_h246_v290.png"" alt=""img"">
                            </div>
                        </div>","0","images/gray_h246_v290.png","","positive","",""
"","","","","","html-slider-response","161","461325","0.0-153.0","NaN","-61","","<div style=""width:500px;"">
                            <p style=""font-size:50px; font-weight:bold;""
                            >positive</p>
                            <div style=""width:240px; margin: auto;"">
                                <img src=""images/gray_h250_v546.png"" alt=""img"">
                            </div>
                        </div>","0","images/gray_h250_v546.png","","positive","",""
"","","","","","html-slider-response","162","463326","0.0-154.0","NaN","101","","<div style=""width:500px;"">
                            <p style=""font-size:50px; font-weight:bold;""
                            >positive</p>
                            <div style=""width:240px; margin: auto;"">
                                <img src=""images/gray_h148_v607.png"" alt=""img"">
                            </div>
                        </div>","0","images/gray_h148_v607.png","","positive","",""
"","","","","","html-slider-response","163","465578","0.0-155.0","NaN","-77","","<div style=""width:500px;"">
                            <p style=""font-size:50px; font-weight:bold;""
                            >positive</p>
                            <div style=""width:240px; margin: auto;"">
                                <img src=""images/gray_h206_v476.png"" alt=""img"">
                            </div>
                        </div>","0","images/gray_h206_v476.png","","positive","",""
"","","","","","html-slider-response","164","469379","0.0-156.0","NaN","32","","<div style=""width:500px;"">
                            <p style=""font-size:50px; font-weight:bold;""
                            >positive</p>
                            <div style=""width:240px; margin: auto;"">
                                <img src=""images/gray_h144_v597.png"" alt=""img"">
                            </div>
                        </div>","0","images/gray_h144_v597.png","","positive","",""
"","","","","","html-slider-response","165","471965","0.0-157.0","NaN","-51","","<div style=""width:500px;"">
                            <p style=""font-size:50px; font-weight:bold;""
                            >positive</p>
                            <div style=""width:240px; margin: auto;"">
                                <img src=""images/gray_h181_v683.png"" alt=""img"">
                            </div>
                        </div>","0","images/gray_h181_v683.png","","positive","",""
"","","","","","html-slider-response","166","474673","0.0-158.0","NaN","168","","<div style=""width:500px;"">
                            <p style=""font-size:50px; font-weight:bold;""
                            >positive</p>
                            <div style=""width:240px; margin: auto;"">
                                <img src=""images/gray_h152_v629.png"" alt=""img"">
                            </div>
                        </div>","0","images/gray_h152_v629.png","","positive","",""
"","","","","","html-slider-response","167","476664","0.0-159.0","NaN","110","","<div style=""width:500px;"">
                            <p style=""font-size:50px; font-weight:bold;""
                            >positive</p>
                            <div style=""width:240px; margin: auto;"">
                                <img src=""images/gray_h148_v640.png"" alt=""img"">
                            </div>
                        </div>","0","images/gray_h148_v640.png","","positive","",""
"","","","","","html-slider-response","168","480383","0.0-160.0","NaN","180","","<div style=""width:500px;"">
                            <p style=""font-size:50px; font-weight:bold;""
                            >positive</p>
                            <div style=""width:240px; margin: auto;"">
                                <img src=""images/gray_h146_v601.png"" alt=""img"">
                            </div>
                        </div>","0","images/gray_h146_v601.png","","positive","",""
"","","","","","html-slider-response","169","482614","0.0-161.0","NaN","-68","","<div style=""width:500px;"">
                            <p style=""font-size:50px; font-weight:bold;""
                            >positive</p>
                            <div style=""width:240px; margin: auto;"">
                                <img src=""images/gray_h203_v486.png"" alt=""img"">
                            </div>
                        </div>","0","images/gray_h203_v486.png","","positive","",""
"","","","","","html-slider-response","170","484636","0.0-162.0","NaN","194","","<div style=""width:500px;"">
                            <p style=""font-size:50px; font-weight:bold;""
                            >positive</p>
                            <div style=""width:240px; margin: auto;"">
                                <img src=""images/gray_h167_v644.png"" alt=""img"">
                            </div>
                        </div>","0","images/gray_h167_v644.png","","positive","",""
"","","","","","html-slider-response","171","487525","0.0-163.0","NaN","106","","<div style=""width:500px;"">
                            <p style=""font-size:50px; font-weight:bold;""
                            >positive</p>
                            <div style=""width:240px; margin: auto;"">
                                <img src=""images/gray_h151_v618.png"" alt=""img"">
                            </div>
                        </div>","0","images/gray_h151_v618.png","","positive","",""
"","","","","","html-slider-response","172","489548","0.0-164.0","NaN","134","","<div style=""width:500px;"">
                            <p style=""font-size:50px; font-weight:bold;""
                            >positive</p>
                            <div style=""width:240px; margin: auto;"">
                                <img src=""images/gray_h150_v615.png"" alt=""img"">
                            </div>
                        </div>","0","images/gray_h150_v615.png","","positive","",""
"","","","","","html-slider-response","173","491751","0.0-165.0","NaN","74","","<div style=""width:500px;"">
                            <p style=""font-size:50px; font-weight:bold;""
                            >positive</p>
                            <div style=""width:240px; margin: auto;"">
                                <img src=""images/gray_h207_v480.png"" alt=""img"">
                            </div>
                        </div>","0","images/gray_h207_v480.png","","positive","",""
"","","","","","html-slider-response","174","494287","0.0-166.0","NaN","-111","","<div style=""width:500px;"">
                            <p style=""font-size:50px; font-weight:bold;""
                            >positive</p>
                            <div style=""width:240px; margin: auto;"">
                                <img src=""images/gray_h147_v672.png"" alt=""img"">
                            </div>
                        </div>","0","images/gray_h147_v672.png","","positive","",""
"","","","","","html-slider-response","175","497239","0.0-167.0","NaN","-200","","<div style=""width:500px;"">
                            <p style=""font-size:50px; font-weight:bold;""
                            >positive</p>
                            <div style=""width:240px; margin: auto;"">
                                <img src=""images/gray_h241_v296.png"" alt=""img"">
                            </div>
                        </div>","0","images/gray_h241_v296.png","","positive","",""
"","","","","","html-slider-response","176","499525","0.0-168.0","NaN","79","","<div style=""width:500px;"">
                            <p style=""font-size:50px; font-weight:bold;""
                            >positive</p>
                            <div style=""width:240px; margin: auto;"">
                                <img src=""images/gray_h205_v494.png"" alt=""img"">
                            </div>
                        </div>","0","images/gray_h205_v494.png","","positive","",""
"","","","","","html-slider-response","177","502466","0.0-169.0","NaN","96","","<div style=""width:500px;"">
                            <p style=""font-size:50px; font-weight:bold;""
                            >positive</p>
                            <div style=""width:240px; margin: auto;"">
                                <img src=""images/gray_h205_v484.png"" alt=""img"">
                            </div>
                        </div>","0","images/gray_h205_v484.png","","positive","",""
"","","","","","html-slider-response","178","506100","0.0-170.0","NaN","-65","","<div style=""width:500px;"">
                            <p style=""font-size:50px; font-weight:bold;""
                            >positive</p>
                            <div style=""width:240px; margin: auto;"">
                                <img src=""images/gray_h143_v595.png"" alt=""img"">
                            </div>
                        </div>","0","images/gray_h143_v595.png","","positive","",""
"","","","","","html-slider-response","179","508334","0.0-171.0","NaN","-86","","<div style=""width:500px;"">
                            <p style=""font-size:50px; font-weight:bold;""
                            >positive</p>
                            <div style=""width:240px; margin: auto;"">
                                <img src=""images/gray_h146_v602.png"" alt=""img"">
                            </div>
                        </div>","0","images/gray_h146_v602.png","","positive","",""
"","","","","","html-slider-response","180","510469","0.0-172.0","NaN","-26","","<div style=""width:500px;"">
                            <p style=""font-size:50px; font-weight:bold;""
                            >positive</p>
                            <div style=""width:240px; margin: auto;"">
                                <img src=""images/gray_h209_v481.png"" alt=""img"">
                            </div>
                        </div>","0","images/gray_h209_v481.png","","positive","",""
"","","","","","html-button-response","181","512312","0.0-173.0","1342","0","","<p>Great Job! You've finished block 3.<br></br> You have 5 block(s) left to go.<br></br></p>","","","","","",""
"","","","","","html-button-response","182","513975","0.0-174.0","1662","0","","<p>In this block of trials, you will be asked to rate how much you associate each map with:</p > <p style = 'font-size:150%; font-weight: bold'>trustworthy</p><br></br>","","","","","",""
"","","","","","html-slider-response","183","524431","0.0-175.0","NaN","-19","","<div style=""width:500px;"">
                            <p style=""font-size:50px; font-weight:bold;""
                            >trustworthy</p>
                            <div style=""width:240px; margin: auto;"">
                                <img src=""images/gray_h241_v296.png"" alt=""img"">
                            </div>
                        </div>","0","images/gray_h241_v296.png","","trustworthy","",""
"","","","","","html-slider-response","184","530301","0.0-176.0","NaN","42","","<div style=""width:500px;"">
                            <p style=""font-size:50px; font-weight:bold;""
                            >trustworthy</p>
                            <div style=""width:240px; margin: auto;"">
                                <img src=""images/gray_h072_v611.png"" alt=""img"">
                            </div>
                        </div>","0","images/gray_h072_v611.png","","trustworthy","",""
"","","","","","html-slider-response","185","533345","0.0-177.0","NaN","-73","","<div style=""width:500px;"">
                            <p style=""font-size:50px; font-weight:bold;""
                            >trustworthy</p>
                            <div style=""width:240px; margin: auto;"">
                                <img src=""images/gray_h159_v655.png"" alt=""img"">
                            </div>
                        </div>","0","images/gray_h159_v655.png","","trustworthy","",""
"","","","","","html-slider-response","186","537843","0.0-178.0","NaN","-70","","<div style=""width:500px;"">
                            <p style=""font-size:50px; font-weight:bold;""
                            >trustworthy</p>
                            <div style=""width:240px; margin: auto;"">
                                <img src=""images/gray_h209_v481.png"" alt=""img"">
                            </div>
                        </div>","0","images/gray_h209_v481.png","","trustworthy","",""
"","","","","","html-slider-response","187","539865","0.0-179.0","NaN","73","","<div style=""width:500px;"">
                            <p style=""font-size:50px; font-weight:bold;""
                            >trustworthy</p>
                            <div style=""width:240px; margin: auto;"">
                                <img src=""images/gray_h148_v640.png"" alt=""img"">
                            </div>
                        </div>","0","images/gray_h148_v640.png","","trustworthy","",""
"","","","","","html-slider-response","188","542526","0.0-180.0","NaN","156","","<div style=""width:500px;"">
                            <p style=""font-size:50px; font-weight:bold;""
                            >trustworthy</p>
                            <div style=""width:240px; margin: auto;"">
                                <img src=""images/gray_h246_v290.png"" alt=""img"">
                            </div>
                        </div>","0","images/gray_h246_v290.png","","trustworthy","",""
"","","","","","html-slider-response","189","544724","0.0-181.0","NaN","66","","<div style=""width:500px;"">
                            <p style=""font-size:50px; font-weight:bold;""
                            >trustworthy</p>
                            <div style=""width:240px; margin: auto;"">
                                <img src=""images/gray_h147_v604.png"" alt=""img"">
                            </div>
                        </div>","0","images/gray_h147_v604.png","","trustworthy","",""
"","","","","","html-slider-response","190","547603","0.0-182.0","NaN","51","","<div style=""width:500px;"">
                            <p style=""font-size:50px; font-weight:bold;""
                            >trustworthy</p>
                            <div style=""width:240px; margin: auto;"">
                                <img src=""images/gray_h145_v600.png"" alt=""img"">
                            </div>
                        </div>","0","images/gray_h145_v600.png","","trustworthy","",""
"","","","","","html-slider-response","191","550127","0.0-183.0","NaN","42","","<div style=""width:500px;"">
                            <p style=""font-size:50px; font-weight:bold;""
                            >trustworthy</p>
                            <div style=""width:240px; margin: auto;"">
                                <img src=""images/gray_h152_v629.png"" alt=""img"">
                            </div>
                        </div>","0","images/gray_h152_v629.png","","trustworthy","",""
"","","","","","html-slider-response","192","554994","0.0-184.0","NaN","-116","","<div style=""width:500px;"">
                            <p style=""font-size:50px; font-weight:bold;""
                            >trustworthy</p>
                            <div style=""width:240px; margin: auto;"">
                                <img src=""images/gray_h223_v317.png"" alt=""img"">
                            </div>
                        </div>","0","images/gray_h223_v317.png","","trustworthy","",""
"","","","","","html-slider-response","193","557280","0.0-185.0","NaN","-113","","<div style=""width:500px;"">
                            <p style=""font-size:50px; font-weight:bold;""
                            >trustworthy</p>
                            <div style=""width:240px; margin: auto;"">
                                <img src=""images/gray_h241_v304.png"" alt=""img"">
                            </div>
                        </div>","0","images/gray_h241_v304.png","","trustworthy","",""
"","","","","","html-slider-response","194","559477","0.0-186.0","NaN","-185","","<div style=""width:500px;"">
                            <p style=""font-size:50px; font-weight:bold;""
                            >trustworthy</p>
                            <div style=""width:240px; margin: auto;"">
                                <img src=""images/gray_h181_v683.png"" alt=""img"">
                            </div>
                        </div>","0","images/gray_h181_v683.png","","trustworthy","",""
"","","","","","html-slider-response","195","561853","0.0-187.0","NaN","36","","<div style=""width:500px;"">
                            <p style=""font-size:50px; font-weight:bold;""
                            >trustworthy</p>
                            <div style=""width:240px; margin: auto;"">
                                <img src=""images/gray_h146_v600.png"" alt=""img"">
                            </div>
                        </div>","0","images/gray_h146_v600.png","","trustworthy","",""
"","","","","","html-slider-response","196","563909","0.0-188.0","NaN","-44","","<div style=""width:500px;"">
                            <p style=""font-size:50px; font-weight:bold;""
                            >trustworthy</p>
                            <div style=""width:240px; margin: auto;"">
                                <img src=""images/gray_h205_v484.png"" alt=""img"">
                            </div>
                        </div>","0","images/gray_h205_v484.png","","trustworthy","",""
"","","","","","html-slider-response","197","566643","0.0-189.0","NaN","-31","","<div style=""width:500px;"">
                            <p style=""font-size:50px; font-weight:bold;""
                            >trustworthy</p>
                            <div style=""width:240px; margin: auto;"">
                                <img src=""images/gray_h153_v646.png"" alt=""img"">
                            </div>
                        </div>","0","images/gray_h153_v646.png","","trustworthy","",""
"","","","","","html-slider-response","198","569163","0.0-190.0","NaN","-105","","<div style=""width:500px;"">
                            <p style=""font-size:50px; font-weight:bold;""
                            >trustworthy</p>
                            <div style=""width:240px; margin: auto;"">
                                <img src=""images/gray_h207_v480.png"" alt=""img"">
                            </div>
                        </div>","0","images/gray_h207_v480.png","","trustworthy","",""
"","","","","","html-slider-response","199","573944","0.0-191.0","NaN","122","","<div style=""width:500px;"">
                            <p style=""font-size:50px; font-weight:bold;""
                            >trustworthy</p>
                            <div style=""width:240px; margin: auto;"">
                                <img src=""images/gray_h148_v607.png"" alt=""img"">
                            </div>
                        </div>","0","images/gray_h148_v607.png","","trustworthy","",""
"","","","","","html-slider-response","200","576320","0.0-192.0","NaN","97","","<div style=""width:500px;"">
                            <p style=""font-size:50px; font-weight:bold;""
                            >trustworthy</p>
                            <div style=""width:240px; margin: auto;"">
                                <img src=""images/gray_h157_v677.png"" alt=""img"">
                            </div>
                        </div>","0","images/gray_h157_v677.png","","trustworthy","",""
"","","","","","html-slider-response","201","579872","0.0-193.0","NaN","69","","<div style=""width:500px;"">
                            <p style=""font-size:50px; font-weight:bold;""
                            >trustworthy</p>
                            <div style=""width:240px; margin: auto;"">
                                <img src=""images/gray_h267_v305.png"" alt=""img"">
                            </div>
                        </div>","0","images/gray_h267_v305.png","","trustworthy","",""
"","","","","","html-slider-response","202","581898","0.0-194.0","NaN","150","","<div style=""width:500px;"">
                            <p style=""font-size:50px; font-weight:bold;""
                            >trustworthy</p>
                            <div style=""width:240px; margin: auto;"">
                                <img src=""images/gray_h147_v603.png"" alt=""img"">
                            </div>
                        </div>","0","images/gray_h147_v603.png","","trustworthy","",""
"","","","","","html-slider-response","203","584460","0.0-195.0","NaN","35","","<div style=""width:500px;"">
                            <p style=""font-size:50px; font-weight:bold;""
                            >trustworthy</p>
                            <div style=""width:240px; margin: auto;"">
                                <img src=""images/gray_h143_v595.png"" alt=""img"">
                            </div>
