"success","timeout","failed_images","failed_audio","failed_video","trial_type","trial_index","time_elapsed","internal_node_id","rt","response","question_order","stimulus","slider_start","image_path","practiceTrial","concept","practiceTrialNum","correct"
"true","false","[]","[]","[]","preload","0","379","0.0-0.0","","","","","","","","","",""
"","","","","","survey-multi-select","1","4876","0.0-1.0","4493","{""Consent"":[""<strong>I consent</strong>""]}","[0]","","","","","","",""
"","","","","","html-keyboard-response","2","6903","0.0-2.0","2019"," ","","<p>Great job!</p> You have completed the consent process and answered the demographic questions.<p> Press the spacebar to continue to instructions for the experiment. </p>","","","","","",""
"","","","","","html-slider-response","3","11506","0.0-3.0","4600","60","","
            <div style='text-align:left; font-size:20px; line-height:25px; width: 1200px;'>
                During this experiment you will be asked to rate how much you associate maps with    different concepts.<br> Below, you can see some examples of the maps you will be asked to rate. Next to the maps
    is the list of concepts.<br>You will be asked    to rate how much you associate each map with each concept on a scale from 'not at all' to 'very much' like the
    one below. <br><br>
    Now, please look at the list of concepts and maps. For each concept, think about the map you associate 'very
    much' with the concept.<br>     When you see that color during the experiment, please rate it near the 'very much' endpoint of the
    scale.<br>Now, please think about which map you associate 'not at all'     with each concept. When you see that color during the experiment, please rate it near the 'not at all' endpoint
    of the scale.<br>
    Please use the full range of the scale. That is, if a color is somewhat associated with the concept, you would
    click partway between the middle point and right side of the scale.    You will be asked to rate each map for a given concept before moving on to the next concept.<br><br>Press the
    'Continue' button when you're ready to begin four practice trials.    <br><br>
</div>

<div style=""width: 500px; margin: 0 auto;"">
    <div style=""text-align: right; width: 240px; float: left;"">
        <p style=""font-size:25px; line-height:18px;"">calm</p>
        <p style=""font-size:25px; line-height:18px;"">exciting</p>
        <p style=""font-size:25px;line-height:18px;"">positive</p>
        <p style=""font-size:25px;line-height:18px;"">negative</p>
        <p style=""font-size:25px;line-height:18px;"">serious</p>
        <p style=""font-size:25px;line-height:18px;"">playful</p>
        <p style=""font-size:25px;line-height:18px;"">trustworthy</p>
        <p style=""font-size:25px;line-height:18px;"">disturbing</p>
    </div>
    <div style=""width: 240px; float: right; padding-top:15px"">
        <img src=""patches71.png"" alt=""img"" style=""max-height:300px"">
    </div>
    <div style=""clear: both;""></div>
</div>
            ","0","patches71.png","true","","",""
"","","","","","html-slider-response","4","13449","0.0-4.0-0.0","NaN","110","","<div style=""width:500px;"">
                            <p style=""font-size:25px;"">Please move the slider all the way to the <br> right endpoint of the scale</p>
                            <p style=""font-size:50px; font-weight:bold;""
                            >positive</p>
                            <div style=""width:240px; margin: auto;"">
                                <img src=""images/gray_h149_v612.png"" alt=""img"">
                            </div>
                        </div>","0","images/gray_h149_v612.png","true","positive","0","false"
"","","","","","html-button-response","5","15507","0.0-4.0-1.0","1555","0","","<p align='center'><b>Not quite!</b> The slider was not placed near the instructed located. Click on 'Continue' to try again. </p>","","","","","",""
"","","","","","html-slider-response","6","16732","0.0-4.1-0.1","NaN","200","","<div style=""width:500px;"">
                            <p style=""font-size:25px;"">Please move the slider all the way to the <br> right endpoint of the scale</p>
                            <p style=""font-size:50px; font-weight:bold;""
                            >positive</p>
                            <div style=""width:240px; margin: auto;"">
                                <img src=""images/gray_h149_v612.png"" alt=""img"">
                            </div>
                        </div>","0","images/gray_h149_v612.png","true","positive","0","true"
"","","","","","html-button-response","7","18386","0.0-4.1-1.1","1151","0","","<p align='center'><b>Good job!</b> Click on 'Continue' to proceed.</p>","","","","","",""
"","","","","","html-slider-response","8","19582","0.0-5.0-0.0","NaN","-200","","<div style=""width:500px;"">
                            <p style=""font-size:25px;"">Please move the slider all the way to the <br> left endpoint of the scale</p>
                            <p style=""font-size:50px; font-weight:bold;""
                            >positive</p>
                            <div style=""width:240px; margin: auto;"">
                                <img src=""images/gray_h148_v607.png"" alt=""img"">
                            </div>
                        </div>","0","images/gray_h148_v607.png","true","positive","1","true"
"","","","","","html-button-response","9","20891","0.0-5.0-1.0","805","0","","<p align='center'><b>Good job!</b> Click on 'Continue' to proceed.</p>","","","","","",""
"","","","","","html-slider-response","10","22749","0.0-6.0-0.0","NaN","107","","<div style=""width:500px;"">
                            <p style=""font-size:25px;"">Please move the slider halfway between the center and right endpoint of the scale</p>
                            <p style=""font-size:50px; font-weight:bold;""
                            >positive</p>
                            <div style=""width:240px; margin: auto;"">
                                <img src=""images/gray_h176_v214.png"" alt=""img"">
                            </div>
                        </div>","0","images/gray_h176_v214.png","true","positive","2","true"
"","","","","","html-button-response","11","23774","0.0-6.0-1.0","520","0","","<p align='center'><b>Good job!</b> Click on 'Continue' to proceed.</p>","","","","","",""
"","","","","","html-slider-response","12","25699","0.0-7.0-0.0","NaN","-106","","<div style=""width:500px;"">
                            <p style=""font-size:25px;"">Please move the slider halfway between the center and left endpoint of the scale</p>
                            <p style=""font-size:50px; font-weight:bold;""
                            >positive</p>
                            <div style=""width:240px; margin: auto;"">
                                <img src=""images/gray_h148_v605.png"" alt=""img"">
                            </div>
                        </div>","0","images/gray_h148_v605.png","true","positive","3","true"
"","","","","","html-button-response","13","26770","0.0-7.0-1.0","566","0","","<p align='center'><b>Good job!</b> Click on 'Continue' to proceed.</p>","","","","","",""
"","","","","","html-button-response","14","27406","0.0-8.0","634","0","","<p>Great job! You've completed the practice trials. Now you will begin the main task.</p>","","","","","",""
"","","","","","html-button-response","15","28721","0.0-9.0","1313","0","","<p>In this block of trials, you will be asked to rate how much you associate each map with:</p > <p style = 'font-size:150%; font-weight: bold'>positive</p><br></br>","","","","","",""
"","","","","","html-slider-response","16","30184","0.0-10.0","NaN","200","","<div style=""width:500px;"">
                            <p style=""font-size:50px; font-weight:bold;""
                            >positive</p>
                            <div style=""width:240px; margin: auto;"">
                                <img src=""images/gray_h148_v605.png"" alt=""img"">
                            </div>
                        </div>","0","images/gray_h148_v605.png","","positive","",""
"","","","","","html-slider-response","17","32119","0.0-11.0","NaN","-80","","<div style=""width:500px;"">
                            <p style=""font-size:50px; font-weight:bold;""
                            >positive</p>
                            <div style=""width:240px; margin: auto;"">
                                <img src=""images/gray_h145_v600.png"" alt=""img"">
                            </div>
                        </div>","0","images/gray_h145_v600.png","","positive","",""
"","","","","","html-slider-response","18","34065","0.0-12.0","NaN","154","","<div style=""width:500px;"">
                            <p style=""font-size:50px; font-weight:bold;""
                            >positive</p>
                            <div style=""width:240px; margin: auto;"">
                                <img src=""images/gray_h147_v648.png"" alt=""img"">
                            </div>
                        </div>","0","images/gray_h147_v648.png","","positive","",""
"","","","","","html-slider-response","19","36931","0.0-13.0","NaN","-19","","<div style=""width:500px;"">
                            <p style=""font-size:50px; font-weight:bold;""
                            >positive</p>
                            <div style=""width:240px; margin: auto;"">
                                <img src=""images/gray_h114_v215.png"" alt=""img"">
                            </div>
                        </div>","0","images/gray_h114_v215.png","","positive","",""
"","","","","","html-slider-response","20","38949","0.0-14.0","NaN","200","","<div style=""width:500px;"">
                            <p style=""font-size:50px; font-weight:bold;""
                            >positive</p>
                            <div style=""width:240px; margin: auto;"">
                                <img src=""images/gray_h116_v508.png"" alt=""img"">
                            </div>
                        </div>","0","images/gray_h116_v508.png","","positive","",""
"","","","","","html-slider-response","21","47932","0.0-15.0","NaN","-29","","<div style=""width:500px;"">
                            <p style=""font-size:50px; font-weight:bold;""
                            >positive</p>
                            <div style=""width:240px; margin: auto;"">
                                <img src=""images/gray_h241_v304.png"" alt=""img"">
                            </div>
                        </div>","0","images/gray_h241_v304.png","","positive","",""
"","","","","","html-slider-response","22","52599","0.0-16.0","NaN","-66","","<div style=""width:500px;"">
                            <p style=""font-size:50px; font-weight:bold;""
                            >positive</p>
                            <div style=""width:240px; margin: auto;"">
                                <img src=""images/gray_h239_v499.png"" alt=""img"">
                            </div>
                        </div>","0","images/gray_h239_v499.png","","positive","",""
"","","","","","html-slider-response","23","54898","0.0-17.0","NaN","58","","<div style=""width:500px;"">
                            <p style=""font-size:50px; font-weight:bold;""
                            >positive</p>
                            <div style=""width:240px; margin: auto;"">
                                <img src=""images/gray_h205_v484.png"" alt=""img"">
                            </div>
                        </div>","0","images/gray_h205_v484.png","","positive","",""
"","","","","","html-slider-response","24","57982","0.0-18.0","NaN","-80","","<div style=""width:500px;"">
                            <p style=""font-size:50px; font-weight:bold;""
                            >positive</p>
                            <div style=""width:240px; margin: auto;"">
                                <img src=""images/gray_h181_v683.png"" alt=""img"">
                            </div>
                        </div>","0","images/gray_h181_v683.png","","positive","",""
"","","","","","html-slider-response","25","61432","0.0-19.0","NaN","-38","","<div style=""width:500px;"">
                            <p style=""font-size:50px; font-weight:bold;""
                            >positive</p>
                            <div style=""width:240px; margin: auto;"">
                                <img src=""images/gray_h223_v317.png"" alt=""img"">
                            </div>
                        </div>","0","images/gray_h223_v317.png","","positive","",""
"","","","","","html-slider-response","26","63948","0.0-20.0","NaN","94","","<div style=""width:500px;"">
                            <p style=""font-size:50px; font-weight:bold;""
                            >positive</p>
                            <div style=""width:240px; margin: auto;"">
                                <img src=""images/gray_h143_v594.png"" alt=""img"">
                            </div>
                        </div>","0","images/gray_h143_v594.png","","positive","",""
"","","","","","html-slider-response","27","66032","0.0-21.0","NaN","83","","<div style=""width:500px;"">
                            <p style=""font-size:50px; font-weight:bold;""
                            >positive</p>
                            <div style=""width:240px; margin: auto;"">
                                <img src=""images/gray_h267_v305.png"" alt=""img"">
                            </div>
                        </div>","0","images/gray_h267_v305.png","","positive","",""
"","","","","","html-slider-response","28","68883","0.0-22.0","NaN","107","","<div style=""width:500px;"">
                            <p style=""font-size:50px; font-weight:bold;""
                            >positive</p>
                            <div style=""width:240px; margin: auto;"">
                                <img src=""images/gray_h147_v647.png"" alt=""img"">
                            </div>
                        </div>","0","images/gray_h147_v647.png","","positive","",""
"","","","","","html-slider-response","29","71315","0.0-23.0","NaN","173","","<div style=""width:500px;"">
                            <p style=""font-size:50px; font-weight:bold;""
                            >positive</p>
                            <div style=""width:240px; margin: auto;"">
                                <img src=""images/gray_h148_v607.png"" alt=""img"">
                            </div>
                        </div>","0","images/gray_h148_v607.png","","positive","",""
"","","","","","html-slider-response","30","76633","0.0-24.0","NaN","78","","<div style=""width:500px;"">
                            <p style=""font-size:50px; font-weight:bold;""
                            >positive</p>
                            <div style=""width:240px; margin: auto;"">
                                <img src=""images/gray_h146_v600.png"" alt=""img"">
                            </div>
                        </div>","0","images/gray_h146_v600.png","","positive","",""
"","","","","","html-slider-response","31","79782","0.0-25.0","NaN","-42","","<div style=""width:500px;"">
                            <p style=""font-size:50px; font-weight:bold;""
                            >positive</p>
                            <div style=""width:240px; margin: auto;"">
                                <img src=""images/gray_h147_v604.png"" alt=""img"">
                            </div>
                        </div>","0","images/gray_h147_v604.png","","positive","",""
"","","","","","html-slider-response","32","82500","0.0-26.0","NaN","-37","","<div style=""width:500px;"">
                            <p style=""font-size:50px; font-weight:bold;""
                            >positive</p>
                            <div style=""width:240px; margin: auto;"">
                                <img src=""images/gray_h178_v226.png"" alt=""img"">
                            </div>
                        </div>","0","images/gray_h178_v226.png","","positive","",""
"","","","","","html-slider-response","33","84967","0.0-27.0","NaN","50","","<div style=""width:500px;"">
                            <p style=""font-size:50px; font-weight:bold;""
                            >positive</p>
                            <div style=""width:240px; margin: auto;"">
                                <img src=""images/gray_h150_v613.png"" alt=""img"">
                            </div>
                        </div>","0","images/gray_h150_v613.png","","positive","",""
"","","","","","html-slider-response","34","86881","0.0-28.0","NaN","186","","<div style=""width:500px;"">
                            <p style=""font-size:50px; font-weight:bold;""
                            >positive</p>
                            <div style=""width:240px; margin: auto;"">
                                <img src=""images/gray_h167_v644.png"" alt=""img"">
                            </div>
                        </div>","0","images/gray_h167_v644.png","","positive","",""
"","","","","","html-slider-response","35","89618","0.0-29.0","NaN","-78","","<div style=""width:500px;"">
                            <p style=""font-size:50px; font-weight:bold;""
                            >positive</p>
                            <div style=""width:240px; margin: auto;"">
                                <img src=""images/gray_h146_v602.png"" alt=""img"">
                            </div>
                        </div>","0","images/gray_h146_v602.png","","positive","",""
"","","","","","html-slider-response","36","91083","0.0-30.0","NaN","40","","<div style=""width:500px;"">
                            <p style=""font-size:50px; font-weight:bold;""
                            >positive</p>
                            <div style=""width:240px; margin: auto;"">
                                <img src=""images/gray_h153_v646.png"" alt=""img"">
                            </div>
                        </div>","0","images/gray_h153_v646.png","","positive","",""
"","","","","","html-slider-response","37","93133","0.0-31.0","NaN","138","","<div style=""width:500px;"">
                            <p style=""font-size:50px; font-weight:bold;""
                            >positive</p>
                            <div style=""width:240px; margin: auto;"">
                                <img src=""images/gray_h205_v494.png"" alt=""img"">
                            </div>
                        </div>","0","images/gray_h205_v494.png","","positive","",""
"","","","","","html-slider-response","38","96615","0.0-32.0","NaN","46","","<div style=""width:500px;"">
                            <p style=""font-size:50px; font-weight:bold;""
                            >positive</p>
                            <div style=""width:240px; margin: auto;"">
                                <img src=""images/gray_h152_v629.png"" alt=""img"">
                            </div>
                        </div>","0","images/gray_h152_v629.png","","positive","",""
"","","","","","html-slider-response","39","98383","0.0-33.0","NaN","116","","<div style=""width:500px;"">
                            <p style=""font-size:50px; font-weight:bold;""
                            >positive</p>
                            <div style=""width:240px; margin: auto;"">
                                <img src=""images/gray_h266_v305.png"" alt=""img"">
                            </div>
                        </div>","0","images/gray_h266_v305.png","","positive","",""
"","","","","","html-slider-response","40","99815","0.0-34.0","NaN","-66","","<div style=""width:500px;"">
                            <p style=""font-size:50px; font-weight:bold;""
                            >positive</p>
                            <div style=""width:240px; margin: auto;"">
                                <img src=""images/gray_h144_v597.png"" alt=""img"">
                            </div>
                        </div>","0","images/gray_h144_v597.png","","positive","",""
"","","","","","html-slider-response","41","101048","0.0-35.0","NaN","94","","<div style=""width:500px;"">
                            <p style=""font-size:50px; font-weight:bold;""
                            >positive</p>
                            <div style=""width:240px; margin: auto;"">
                                <img src=""images/gray_h151_v618.png"" alt=""img"">
                            </div>
                        </div>","0","images/gray_h151_v618.png","","positive","",""
"","","","","","html-slider-response","42","102467","0.0-36.0","NaN","-63","","<div style=""width:500px;"">
                            <p style=""font-size:50px; font-weight:bold;""
                            >positive</p>
                            <div style=""width:240px; margin: auto;"">
                                <img src=""images/gray_h144_v595.png"" alt=""img"">
                            </div>
                        </div>","0","images/gray_h144_v595.png","","positive","",""
"","","","","","html-slider-response","43","103984","0.0-37.0","NaN","58","","<div style=""width:500px;"">
                            <p style=""font-size:50px; font-weight:bold;""
                            >positive</p>
                            <div style=""width:240px; margin: auto;"">
                                <img src=""images/gray_h206_v476.png"" alt=""img"">
                            </div>
                        </div>","0","images/gray_h206_v476.png","","positive","",""
"","","","","","html-slider-response","44","105317","0.0-38.0","NaN","104","","<div style=""width:500px;"">
                            <p style=""font-size:50px; font-weight:bold;""
                            >positive</p>
                            <div style=""width:240px; margin: auto;"">
                                <img src=""images/gray_h149_v612.png"" alt=""img"">
                            </div>
                        </div>","0","images/gray_h149_v612.png","","positive","",""
"","","","","","html-slider-response","45","107566","0.0-39.0","NaN","58","","<div style=""width:500px;"">
                            <p style=""font-size:50px; font-weight:bold;""
                            >positive</p>
                            <div style=""width:240px; margin: auto;"">
                                <img src=""images/gray_h176_v209.png"" alt=""img"">
                            </div>
                        </div>","0","images/gray_h176_v209.png","","positive","",""
"","","","","","html-slider-response","46","109484","0.0-40.0","NaN","112","","<div style=""width:500px;"">
                            <p style=""font-size:50px; font-weight:bold;""
                            >positive</p>
                            <div style=""width:240px; margin: auto;"">
                                <img src=""images/gray_h143_v595.png"" alt=""img"">
                            </div>
                        </div>","0","images/gray_h143_v595.png","","positive","",""
"","","","","","html-slider-response","47","111737","0.0-41.0","NaN","-106","","<div style=""width:500px;"">
                            <p style=""font-size:50px; font-weight:bold;""
                            >positive</p>
                            <div style=""width:240px; margin: auto;"">
                                <img src=""images/gray_h151_v616.png"" alt=""img"">
                            </div>
                        </div>","0","images/gray_h151_v616.png","","positive","",""
"","","","","","html-slider-response","48","113650","0.0-42.0","NaN","66","","<div style=""width:500px;"">
                            <p style=""font-size:50px; font-weight:bold;""
                            >positive</p>
                            <div style=""width:240px; margin: auto;"">
                                <img src=""images/gray_h155_v647.png"" alt=""img"">
                            </div>
                        </div>","0","images/gray_h155_v647.png","","positive","",""
"","","","","","html-slider-response","49","115807","0.0-43.0","NaN","78","","<div style=""width:500px;"">
                            <p style=""font-size:50px; font-weight:bold;""
                            >positive</p>
                            <div style=""width:240px; margin: auto;"">
                                <img src=""images/gray_h241_v296.png"" alt=""img"">
                            </div>
                        </div>","0","images/gray_h241_v296.png","","positive","",""
"","","","","","html-slider-response","50","117585","0.0-44.0","NaN","117","","<div style=""width:500px;"">
                            <p style=""font-size:50px; font-weight:bold;""
                            >positive</p>
                            <div style=""width:240px; margin: auto;"">
                                <img src=""images/gray_h146_v601.png"" alt=""img"">
                            </div>
                        </div>","0","images/gray_h146_v601.png","","positive","",""
"","","","","","html-slider-response","51","120033","0.0-45.0","NaN","-98","","<div style=""width:500px;"">
                            <p style=""font-size:50px; font-weight:bold;""
                            >positive</p>
                            <div style=""width:240px; margin: auto;"">
                                <img src=""images/gray_h151_v619.png"" alt=""img"">
                            </div>
                        </div>","0","images/gray_h151_v619.png","","positive","",""
"","","","","","html-slider-response","52","122250","0.0-46.0","NaN","-67","","<div style=""width:500px;"">
                            <p style=""font-size:50px; font-weight:bold;""
                            >positive</p>
                            <div style=""width:240px; margin: auto;"">
                                <img src=""images/gray_h183_v676.png"" alt=""img"">
                            </div>
                        </div>","0","images/gray_h183_v676.png","","positive","",""
"","","","","","html-slider-response","53","125701","0.0-47.0","NaN","-19","","<div style=""width:500px;"">
                            <p style=""font-size:50px; font-weight:bold;""
                            >positive</p>
                            <div style=""width:240px; margin: auto;"">
                                <img src=""images/gray_h200_v276.png"" alt=""img"">
                            </div>
                        </div>","0","images/gray_h200_v276.png","","positive","",""
"","","","","","html-slider-response","54","128505","0.0-48.0","NaN","154","","<div style=""width:500px;"">
                            <p style=""font-size:50px; font-weight:bold;""
                            >positive</p>
                            <div style=""width:240px; margin: auto;"">
                                <img src=""images/gray_h148_v640.png"" alt=""img"">
                            </div>
                        </div>","0","images/gray_h148_v640.png","","positive","",""
"","","","","","html-slider-response","55","130767","0.0-49.0","NaN","-134","","<div style=""width:500px;"">
                            <p style=""font-size:50px; font-weight:bold;""
                            >positive</p>
                            <div style=""width:240px; margin: auto;"">
                                <img src=""images/gray_h207_v480.png"" alt=""img"">
                            </div>
                        </div>","0","images/gray_h207_v480.png","","positive","",""
"","","","","","html-slider-response","56","133183","0.0-50.0","NaN","-45","","<div style=""width:500px;"">
                            <p style=""font-size:50px; font-weight:bold;""
                            >positive</p>
                            <div style=""width:240px; margin: auto;"">
                                <img src=""images/gray_h250_v546.png"" alt=""img"">
                            </div>
                        </div>","0","images/gray_h250_v546.png","","positive","",""
"","","","","","html-slider-response","57","135082","0.0-51.0","NaN","-106","","<div style=""width:500px;"">
                            <p style=""font-size:50px; font-weight:bold;""
                            >positive</p>
                            <div style=""width:240px; margin: auto;"">
                                <img src=""images/gray_h246_v290.png"" alt=""img"">
                            </div>
                        </div>","0","images/gray_h246_v290.png","","positive","",""
"","","","","","html-slider-response","58","137265","0.0-52.0","NaN","-144","","<div style=""width:500px;"">
                            <p style=""font-size:50px; font-weight:bold;""
                            >positive</p>
                            <div style=""width:240px; margin: auto;"">
                                <img src=""images/gray_h159_v655.png"" alt=""img"">
                            </div>
                        </div>","0","images/gray_h159_v655.png","","positive","",""
"","","","","","html-slider-response","59","139101","0.0-53.0","NaN","122","","<div style=""width:500px;"">
                            <p style=""font-size:50px; font-weight:bold;""
                            >positive</p>
                            <div style=""width:240px; margin: auto;"">
                                <img src=""images/gray_h176_v214.png"" alt=""img"">
                            </div>
                        </div>","0","images/gray_h176_v214.png","","positive","",""
"","","","","","html-slider-response","60","143784","0.0-54.0","NaN","-52","","<div style=""width:500px;"">
                            <p style=""font-size:50px; font-weight:bold;""
                            >positive</p>
                            <div style=""width:240px; margin: auto;"">
                                <img src=""images/gray_h206_v494.png"" alt=""img"">
                            </div>
                        </div>","0","images/gray_h206_v494.png","","positive","",""
"","","","","","html-slider-response","61","145733","0.0-55.0","NaN","121","","<div style=""width:500px;"">
                            <p style=""font-size:50px; font-weight:bold;""
                            >positive</p>
                            <div style=""width:240px; margin: auto;"">
                                <img src=""images/gray_h072_v611.png"" alt=""img"">
                            </div>
                        </div>","0","images/gray_h072_v611.png","","positive","",""
"","","","","","html-slider-response","62","148148","0.0-56.0","NaN","146","","<div style=""width:500px;"">
                            <p style=""font-size:50px; font-weight:bold;""
                            >positive</p>
                            <div style=""width:240px; margin: auto;"">
                                <img src=""images/gray_h147_v603.png"" alt=""img"">
                            </div>
                        </div>","0","images/gray_h147_v603.png","","positive","",""
"","","","","","html-slider-response","63","151115","0.0-57.0","NaN","-94","","<div style=""width:500px;"">
                            <p style=""font-size:50px; font-weight:bold;""
                            >positive</p>
                            <div style=""width:240px; margin: auto;"">
                                <img src=""images/gray_h147_v672.png"" alt=""img"">
                            </div>
                        </div>","0","images/gray_h147_v672.png","","positive","",""
"","","","","","html-slider-response","64","152767","0.0-58.0","NaN","122","","<div style=""width:500px;"">
                            <p style=""font-size:50px; font-weight:bold;""
                            >positive</p>
                            <div style=""width:240px; margin: auto;"">
                                <img src=""images/gray_h157_v677.png"" alt=""img"">
                            </div>
                        </div>","0","images/gray_h157_v677.png","","positive","",""
"","","","","","html-slider-response","65","154250","0.0-59.0","NaN","98","","<div style=""width:500px;"">
                            <p style=""font-size:50px; font-weight:bold;""
                            >positive</p>
                            <div style=""width:240px; margin: auto;"">
                                <img src=""images/gray_h154_v646.png"" alt=""img"">
                            </div>
                        </div>","0","images/gray_h154_v646.png","","positive","",""
"","","","","","html-slider-response","66","155432","0.0-60.0","NaN","44","","<div style=""width:500px;"">
                            <p style=""font-size:50px; font-weight:bold;""
                            >positive</p>
                            <div style=""width:240px; margin: auto;"">
                                <img src=""images/gray_h150_v615.png"" alt=""img"">
                            </div>
                        </div>","0","images/gray_h150_v615.png","","positive","",""
"","","","","","html-slider-response","67","157583","0.0-61.0","NaN","-124","","<div style=""width:500px;"">
                            <p style=""font-size:50px; font-weight:bold;""
                            >positive</p>
                            <div style=""width:240px; margin: auto;"">
                                <img src=""images/gray_h203_v486.png"" alt=""img"">
                            </div>
                        </div>","0","images/gray_h203_v486.png","","positive","",""
"","","","","","html-slider-response","68","159432","0.0-62.0","NaN","-45","","<div style=""width:500px;"">
                            <p style=""font-size:50px; font-weight:bold;""
                            >positive</p>
                            <div style=""width:240px; margin: auto;"">
                                <img src=""images/gray_h209_v481.png"" alt=""img"">
                            </div>
                        </div>","0","images/gray_h209_v481.png","","positive","",""
"","","","","","html-button-response","69","160923","0.0-63.0","986","0","","<p>Great Job! You've finished block 1.<br></br> You have 7 block(s) left to go.<br></br></p>","","","","","",""
"","","","","","html-button-response","70","162856","0.0-64.0","1931","0","","<p>In this block of trials, you will be asked to rate how much you associate each map with:</p > <p style = 'font-size:150%; font-weight: bold'>trustworthy</p><br></br>","","","","","",""
"","","","","","html-slider-response","71","166583","0.0-65.0","NaN","52","","<div style=""width:500px;"">
                            <p style=""font-size:50px; font-weight:bold;""
                            >trustworthy</p>
                            <div style=""width:240px; margin: auto;"">
                                <img src=""images/gray_h072_v611.png"" alt=""img"">
                            </div>
                        </div>","0","images/gray_h072_v611.png","","trustworthy","",""
"","","","","","html-slider-response","72","168048","0.0-66.0","NaN","95","","<div style=""width:500px;"">
                            <p style=""font-size:50px; font-weight:bold;""
                            >trustworthy</p>
                            <div style=""width:240px; margin: auto;"">
                                <img src=""images/gray_h157_v677.png"" alt=""img"">
                            </div>
                        </div>","0","images/gray_h157_v677.png","","trustworthy","",""
"","","","","","html-slider-response","73","169849","0.0-67.0","NaN","-94","","<div style=""width:500px;"">
                            <p style=""font-size:50px; font-weight:bold;""
                            >trustworthy</p>
                            <div style=""width:240px; margin: auto;"">
                                <img src=""images/gray_h250_v546.png"" alt=""img"">
                            </div>
                        </div>","0","images/gray_h250_v546.png","","trustworthy","",""
"","","","","","html-slider-response","74","171289","0.0-68.0","NaN","54","","<div style=""width:500px;"">
                            <p style=""font-size:50px; font-weight:bold;""
                            >trustworthy</p>
                            <div style=""width:240px; margin: auto;"">
                                <img src=""images/gray_h144_v595.png"" alt=""img"">
                            </div>
                        </div>","0","images/gray_h144_v595.png","","trustworthy","",""
"","","","","","html-slider-response","75","172833","0.0-69.0","NaN","103","","<div style=""width:500px;"">
                            <p style=""font-size:50px; font-weight:bold;""
                            >trustworthy</p>
                            <div style=""width:240px; margin: auto;"">
                                <img src=""images/gray_h153_v646.png"" alt=""img"">
                            </div>
                        </div>","0","images/gray_h153_v646.png","","trustworthy","",""
"","","","","","html-slider-response","76","174234","0.0-70.0","NaN","-55","","<div style=""width:500px;"">
                            <p style=""font-size:50px; font-weight:bold;""
                            >trustworthy</p>
                            <div style=""width:240px; margin: auto;"">
                                <img src=""images/gray_h159_v655.png"" alt=""img"">
                            </div>
                        </div>","0","images/gray_h159_v655.png","","trustworthy","",""
"","","","","","html-slider-response","77","175250","0.0-71.0","NaN","-119","","<div style=""width:500px;"">
                            <p style=""font-size:50px; font-weight:bold;""
                            >trustworthy</p>
                            <div style=""width:240px; margin: auto;"">
                                <img src=""images/gray_h148_v605.png"" alt=""img"">
                            </div>
                        </div>","0","images/gray_h148_v605.png","","trustworthy","",""
"","","","","","html-slider-response","78","176516","0.0-72.0","NaN","83","","<div style=""width:500px;"">
                            <p style=""font-size:50px; font-weight:bold;""
                            >trustworthy</p>
                            <div style=""width:240px; margin: auto;"">
                                <img src=""images/gray_h200_v276.png"" alt=""img"">
                            </div>
                        </div>","0","images/gray_h200_v276.png","","trustworthy","",""
"","","","","","html-slider-response","79","178134","0.0-73.0","NaN","-102","","<div style=""width:500px;"">
                            <p style=""font-size:50px; font-weight:bold;""
                            >trustworthy</p>
                            <div style=""width:240px; margin: auto;"">
                                <img src=""images/gray_h155_v647.png"" alt=""img"">
                            </div>
                        </div>","0","images/gray_h155_v647.png","","trustworthy","",""
"","","","","","html-slider-response","80","181617","0.0-74.0","NaN","-23","","<div style=""width:500px;"">
                            <p style=""font-size:50px; font-weight:bold;""
                            >trustworthy</p>
                            <div style=""width:240px; margin: auto;"">
                                <img src=""images/gray_h181_v683.png"" alt=""img"">
                            </div>
                        </div>","0","images/gray_h181_v683.png","","trustworthy","",""
"","","","","","html-slider-response","81","183601","0.0-75.0","NaN","98","","<div style=""width:500px;"">
                            <p style=""font-size:50px; font-weight:bold;""
                            >trustworthy</p>
                            <div style=""width:240px; margin: auto;"">
                                <img src=""images/gray_h144_v597.png"" alt=""img"">
                            </div>
                        </div>","0","images/gray_h144_v597.png","","trustworthy","",""
"","","","","","html-slider-response","82","185867","0.0-76.0","NaN","32","","<div style=""width:500px;"">
                            <p style=""font-size:50px; font-weight:bold;""
                            >trustworthy</p>
                            <div style=""width:240px; margin: auto;"">
                                <img src=""images/gray_h145_v600.png"" alt=""img"">
                            </div>
                        </div>","0","images/gray_h145_v600.png","","trustworthy","",""
"","","","","","html-slider-response","83","187666","0.0-77.0","NaN","-64","","<div style=""width:500px;"">
                            <p style=""font-size:50px; font-weight:bold;""
                            >trustworthy</p>
                            <div style=""width:240px; margin: auto;"">
                                <img src=""images/gray_h147_v647.png"" alt=""img"">
                            </div>
                        </div>","0","images/gray_h147_v647.png","","trustworthy","",""
"","","","","","html-slider-response","84","189967","0.0-78.0","NaN","100","","<div style=""width:500px;"">
                            <p style=""font-size:50px; font-weight:bold;""
                            >trustworthy</p>
                            <div style=""width:240px; margin: auto;"">
                                <img src=""images/gray_h146_v602.png"" alt=""img"">
                            </div>
                        </div>","0","images/gray_h146_v602.png","","trustworthy","",""
"","","","","","html-slider-response","85","192219","0.0-79.0","NaN","-97","","<div style=""width:500px;"">
                            <p style=""font-size:50px; font-weight:bold;""
                            >trustworthy</p>
                            <div style=""width:240px; margin: auto;"">
                                <img src=""images/gray_h150_v615.png"" alt=""img"">
                            </div>
                        </div>","0","images/gray_h150_v615.png","","trustworthy","",""
"","","","","","html-slider-response","86","194066","0.0-80.0","NaN","65","","<div style=""width:500px;"">
                            <p style=""font-size:50px; font-weight:bold;""
                            >trustworthy</p>
                            <div style=""width:240px; margin: auto;"">
                                <img src=""images/gray_h147_v672.png"" alt=""img"">
                            </div>
                        </div>","0","images/gray_h147_v672.png","","trustworthy","",""
"","","","","","html-slider-response","87","196009","0.0-81.0","NaN","121","","<div style=""width:500px;"">
                            <p style=""font-size:50px; font-weight:bold;""
                            >trustworthy</p>
                            <div style=""width:240px; margin: auto;"">
                                <img src=""images/gray_h114_v215.png"" alt=""img"">
                            </div>
                        </div>","0","images/gray_h114_v215.png","","trustworthy","",""
"","","","","","html-slider-response","88","197652","0.0-82.0","NaN","82","","<div style=""width:500px;"">
                            <p style=""font-size:50px; font-weight:bold;""
                            >trustworthy</p>
                            <div style=""width:240px; margin: auto;"">
                                <img src=""images/gray_h207_v480.png"" alt=""img"">
                            </div>
                        </div>","0","images/gray_h207_v480.png","","trustworthy","",""
"","","","","","html-slider-response","89","199750","0.0-83.0","NaN","-94","","<div style=""width:500px;"">
                            <p style=""font-size:50px; font-weight:bold;""
                            >trustworthy</p>
                            <div style=""width:240px; margin: auto;"">
                                <img src=""images/gray_h116_v508.png"" alt=""img"">
                            </div>
                        </div>","0","images/gray_h116_v508.png","","trustworthy","",""
"","","","","","html-slider-response","90","201719","0.0-84.0","NaN","166","","<div style=""width:500px;"">
                            <p style=""font-size:50px; font-weight:bold;""
                            >trustworthy</p>
                            <div style=""width:240px; margin: auto;"">
                                <img src=""images/gray_h152_v629.png"" alt=""img"">
                            </div>
                        </div>","0","images/gray_h152_v629.png","","trustworthy","",""
"","","","","","html-slider-response","91","203401","0.0-85.0","NaN","61","","<div style=""width:500px;"">
                            <p style=""font-size:50px; font-weight:bold;""
                            >trustworthy</p>
                            <div style=""width:240px; margin: auto;"">
                                <img src=""images/gray_h147_v603.png"" alt=""img"">
                            </div>
                        </div>","0","images/gray_h147_v603.png","","trustworthy","",""
"","","","","","html-slider-response","92","205750","0.0-86.0","NaN","-117","","<div style=""width:500px;"">
                            <p style=""font-size:50px; font-weight:bold;""
                            >trustworthy</p>
                            <div style=""width:240px; margin: auto;"">
                                <img src=""images/gray_h176_v209.png"" alt=""img"">
                            </div>
                        </div>","0","images/gray_h176_v209.png","","trustworthy","",""
"","","","","","html-slider-response","93","207583","0.0-87.0","NaN","52","","<div style=""width:500px;"">
                            <p style=""font-size:50px; font-weight:bold;""
                            >trustworthy</p>
                            <div style=""width:240px; margin: auto;"">
                                <img src=""images/gray_h205_v494.png"" alt=""img"">
                            </div>
                        </div>","0","images/gray_h205_v494.png","","trustworthy","",""
"","","","","","html-slider-response","94","209417","0.0-88.0","NaN","-54","","<div style=""width:500px;"">
                            <p style=""font-size:50px; font-weight:bold;""
                            >trustworthy</p>
                            <div style=""width:240px; margin: auto;"">
                                <img src=""images/gray_h209_v481.png"" alt=""img"">
                            </div>
                        </div>","0","images/gray_h209_v481.png","","trustworthy","",""
"","","","","","html-slider-response","95","213267","0.0-89.0","NaN","109","","<div style=""width:500px;"">
                            <p style=""font-size:50px; font-weight:bold;""
                            >trustworthy</p>
                            <div style=""width:240px; margin: auto;"">
                                <img src=""images/gray_h143_v595.png"" alt=""img"">
                            </div>
                        </div>","0","images/gray_h143_v595.png","","trustworthy","",""
"","","","","","html-slider-response","96","215234","0.0-90.0","NaN","53","","<div style=""width:500px;"">
                            <p style=""font-size:50px; font-weight:bold;""
                            >trustworthy</p>
                            <div style=""width:240px; margin: auto;"">
                                <img src=""images/gray_h149_v612.png"" alt=""img"">
                            </div>
                        </div>","0","images/gray_h149_v612.png","","trustworthy","",""
"","","","","","html-slider-response","97","217066","0.0-91.0","NaN","64","","<div style=""width:500px;"">
                            <p style=""font-size:50px; font-weight:bold;""
                            >trustworthy</p>
                            <div style=""width:240px; margin: auto;"">
                                <img src=""images/gray_h148_v607.png"" alt=""img"">
                            </div>
                        </div>","0","images/gray_h148_v607.png","","trustworthy","",""
"","","","","","html-slider-response","98","218567","0.0-92.0","NaN","-67","","<div style=""width:500px;"">
                            <p style=""font-size:50px; font-weight:bold;""
                            >trustworthy</p>
                            <div style=""width:240px; margin: auto;"">
                                <img src=""images/gray_h205_v484.png"" alt=""img"">
                            </div>
                        </div>","0","images/gray_h205_v484.png","","trustworthy","",""
"","","","","","html-slider-response","99","220299","0.0-93.0","NaN","93","","<div style=""width:500px;"">
                            <p style=""font-size:50px; font-weight:bold;""
                            >trustworthy</p>
                            <div style=""width:240px; margin: auto;"">
                                <img src=""images/gray_h150_v613.png"" alt=""img"">
                            </div>
                        </div>","0","images/gray_h150_v613.png","","trustworthy","",""
"","","","","","html-slider-response","100","222056","0.0-94.0","NaN","54","","<div style=""width:500px;"">
                            <p style=""font-size:50px; font-weight:bold;""
                            >trustworthy</p>
                            <div style=""width:240px; margin: auto;"">
                                <img src=""images/gray_h203_v486.png"" alt=""img"">
                            </div>
                        </div>","0","images/gray_h203_v486.png","","trustworthy","",""
"","","","","","html-slider-response","101","223167","0.0-95.0","NaN","-126","","<div style=""width:500px;"">
                            <p style=""font-size:50px; font-weight:bold;""
                            >trustworthy</p>
                            <div style=""width:240px; margin: auto;"">
                                <img src=""images/gray_h146_v600.png"" alt=""img"">
                            </div>
                        </div>","0","images/gray_h146_v600.png","","trustworthy","",""
"","","","","","html-slider-response","102","224616","0.0-96.0","NaN","77","","<div style=""width:500px;"">
                            <p style=""font-size:50px; font-weight:bold;""
                            >trustworthy</p>
                            <div style=""width:240px; margin: auto;"">
                                <img src=""images/gray_h167_v644.png"" alt=""img"">
                            </div>
                        </div>","0","images/gray_h167_v644.png","","trustworthy","",""
"","","","","","html-slider-response","103","225533","0.0-97.0","NaN","123","","<div style=""width:500px;"">
                            <p style=""font-size:50px; font-weight:bold;""
                            >trustworthy</p>
                            <div style=""width:240px; margin: auto;"">
                                <img src=""images/gray_h183_v676.png"" alt=""img"">
                            </div>
                        </div>","0","images/gray_h183_v676.png","","trustworthy","",""
"","","","","","html-slider-response","104","226714","0.0-98.0","NaN","-90","","<div style=""width:500px;"">
                            <p style=""font-size:50px; font-weight:bold;""
                            >trustworthy</p>
                            <div style=""width:240px; margin: auto;"">
                                <img src=""images/gray_h241_v296.png"" alt=""img"">
                            </div>
                        </div>","0","images/gray_h241_v296.png","","trustworthy","",""
"","","","","","html-slider-response","105","228251","0.0-99.0","NaN","33","","<div style=""width:500px;"">
                            <p style=""font-size:50px; font-weight:bold;""
                            >trustworthy</p>
                            <div style=""width:240px; margin: auto;"">
                                <img src=""images/gray_h266_v305.png"" alt=""img"">
                            </div>
                        </div>","0","images/gray_h266_v305.png","","trustworthy","",""
"","","","","","html-slider-response","106","230217","0.0-100.0","NaN","43","","<div style=""width:500px;"">
                            <p style=""font-size:50px; font-weight:bold;""
                            >trustworthy</p>
                            <div style=""width:240px; margin: auto;"">
                                <img src=""images/gray_h178_v226.png"" alt=""img"">
                            </div>
                        </div>","0","images/gray_h178_v226.png","","trustworthy","",""
"","","","","","html-slider-response","107","233101","0.0-101.0","NaN","-56","","<div style=""width:500px;"">
                            <p style=""font-size:50px; font-weight:bold;""
                            >trustworthy</p>
                            <div style=""width:240px; margin: auto;"">
                                <img src=""images/gray_h151_v619.png"" alt=""img"">
                            </div>
                        </div>","0","images/gray_h151_v619.png","","trustworthy","",""
"","","","","","html-slider-response","108","234819","0.0-102.0","NaN","-84","","<div style=""width:500px;"">
                            <p style=""font-size:50px; font-weight:bold;""
                            >trustworthy</p>
                            <div style=""width:240px; margin: auto;"">
                                <img src=""images/gray_h147_v604.png"" alt=""img"">
                            </div>
                        </div>","0","images/gray_h147_v604.png","","trustworthy","",""
"","","","","","html-slider-response","109","236267","0.0-103.0","NaN","81","","<div style=""width:500px;"">
                            <p style=""font-size:50px; font-weight:bold;""
                            >trustworthy</p>
                            <div style=""width:240px; margin: auto;"">
                                <img src=""images/gray_h239_v499.png"" alt=""img"">
                            </div>
                        </div>","0","images/gray_h239_v499.png","","trustworthy","",""
"","","","","","html-slider-response","110","237351","0.0-104.0","NaN","102","","<div style=""width:500px;"">
                            <p style=""font-size:50px; font-weight:bold;""
                            >trustworthy</p>
                            <div style=""width:240px; margin: auto;"">
                                <img src=""images/gray_h148_v640.png"" alt=""img"">
                            </div>
                        </div>","0","images/gray_h148_v640.png","","trustworthy","",""
"","","","","","html-slider-response","111","238432","0.0-105.0","NaN","128","","<div style=""width:500px;"">
                            <p style=""font-size:50px; font-weight:bold;""
                            >trustworthy</p>
                            <div style=""width:240px; margin: auto;"">
                                <img src=""images/gray_h223_v317.png"" alt=""img"">
                            </div>
                        </div>","0","images/gray_h223_v317.png","","trustworthy","",""
"","","","","","html-slider-response","112","239416","0.0-106.0","NaN","-64","","<div style=""width:500px;"">
                            <p style=""font-size:50px; font-weight:bold;""
                            >trustworthy</p>
                            <div style=""width:240px; margin: auto;"">
                                <img src=""images/gray_h206_v476.png"" alt=""img"">
                            </div>
                        </div>","0","images/gray_h206_v476.png","","trustworthy","",""
"","","","","","html-slider-response","113","243183","0.0-107.0","NaN","-114","","<div style=""width:500px;"">
                            <p style=""font-size:50px; font-weight:bold;""
                            >trustworthy</p>
                            <div style=""width:240px; margin: auto;"">
                                <img src=""images/gray_h246_v290.png"" alt=""img"">
                            </div>
                        </div>","0","images/gray_h246_v290.png","","trustworthy","",""
"","","","","","html-slider-response","114","244600","0.0-108.0","NaN","81","","<div style=""width:500px;"">
                            <p style=""font-size:50px; font-weight:bold;""
                            >trustworthy</p>
                            <div style=""width:240px; margin: auto;"">
                                <img src=""images/gray_h206_v494.png"" alt=""img"">
                            </div>
                        </div>","0","images/gray_h206_v494.png","","trustworthy","",""
"","","","","","html-slider-response","115","245767","0.0-109.0","NaN","109","","<div style=""width:500px;"">
                            <p style=""font-size:50px; font-weight:bold;""
                            >trustworthy</p>
                            <div style=""width:240px; margin: auto;"">
                                <img src=""images/gray_h151_v618.png"" alt=""img"">
                            </div>
                        </div>","0","images/gray_h151_v618.png","","trustworthy","",""
"","","","","","html-slider-response","116","246802","0.0-110.0","NaN","-112","","<div style=""width:500px;"">
                            <p style=""font-size:50px; font-weight:bold;""
                            >trustworthy</p>
                            <div style=""width:240px; margin: auto;"">
                                <img src=""images/gray_h241_v304.png"" alt=""img"">
                            </div>
                        </div>","0","images/gray_h241_v304.png","","trustworthy","",""
"","","","","","html-slider-response","117","248482","0.0-111.0","NaN","-42","","<div style=""width:500px;"">
                            <p style=""font-size:50px; font-weight:bold;""
                            >trustworthy</p>
                            <div style=""width:240px; margin: auto;"">
                                <img src=""images/gray_h146_v601.png"" alt=""img"">
                            </div>
                        </div>","0","images/gray_h146_v601.png","","trustworthy","",""
"","","","","","html-slider-response","118","249434","0.0-112.0","NaN","22","","<div style=""width:500px;"">
                            <p style=""font-size:50px; font-weight:bold;""
                            >trustworthy</p>
                            <div style=""width:240px; margin: auto;"">
                                <img src=""images/gray_h267_v305.png"" alt=""img"">
                            </div>
                        </div>","0","images/gray_h267_v305.png","","trustworthy","",""
"","","","","","html-slider-response","119","250517","0.0-113.0","NaN","-67","","<div style=""width:500px;"">
                            <p style=""font-size:50px; font-weight:bold;""
                            >trustworthy</p>
                            <div style=""width:240px; margin: auto;"">
                                <img src=""images/gray_h176_v214.png"" alt=""img"">
                            </div>
                        </div>","0","images/gray_h176_v214.png","","trustworthy","",""
"","","","","","html-slider-response","120","251622","0.0-114.0","NaN","62","","<div style=""width:500px;"">
                            <p style=""font-size:50px; font-weight:bold;""
                            >trustworthy</p>
                            <div style=""width:240px; margin: auto;"">
                                <img src=""images/gray_h147_v648.png"" alt=""img"">
                            </div>
                        </div>","0","images/gray_h147_v648.png","","trustworthy","",""
"","","","","","html-slider-response","121","253334","0.0-115.0","NaN","-70","","<div style=""width:500px;"">
                            <p style=""font-size:50px; font-weight:bold;""
                            >trustworthy</p>
                            <div style=""width:240px; margin: auto;"">
                                <img src=""images/gray_h151_v616.png"" alt=""img"">
                            </div>
                        </div>","0","images/gray_h151_v616.png","","trustworthy","",""
"","","","","","html-slider-response","122","254985","0.0-116.0","NaN","64","","<div style=""width:500px;"">
                            <p style=""font-size:50px; font-weight:bold;""
                            >trustworthy</p>
                            <div style=""width:240px; margin: auto;"">
                                <img src=""images/gray_h154_v646.png"" alt=""img"">
                            </div>
                        </div>","0","images/gray_h154_v646.png","","trustworthy","",""
"","","","","","html-slider-response","123","257932","0.0-117.0","NaN","-97","","<div style=""width:500px;"">
                            <p style=""font-size:50px; font-weight:bold;""
                            >trustworthy</p>
                            <div style=""width:240px; margin: auto;"">
                                <img src=""images/gray_h143_v594.png"" alt=""img"">
                            </div>
                        </div>","0","images/gray_h143_v594.png","","trustworthy","",""
"","","","","","html-button-response","124","259406","0.0-118.0","970","0","","<p>Great Job! You've finished block 2.<br></br> You have 6 block(s) left to go.<br></br></p>","","","","","",""
"","","","","","html-button-response","125","260140","0.0-119.0","730","0","","<p>In this block of trials, you will be asked to rate how much you associate each map with:</p > <p style = 'font-size:150%; font-weight: bold'>exciting</p><br></br>","","","","","",""
"","","","","","html-slider-response","126","261468","0.0-120.0","NaN","-108","","<div style=""width:500px;"">
                            <p style=""font-size:50px; font-weight:bold;""
                            >exciting</p>
                            <div style=""width:240px; margin: auto;"">
                                <img src=""images/gray_h205_v494.png"" alt=""img"">
                            </div>
                        </div>","0","images/gray_h205_v494.png","","exciting","",""
"","","","","","html-slider-response","127","9287149","0.0-121.0","NaN","92","","<div style=""width:500px;"">
                            <p style=""font-size:50px; font-weight:bold;""
                            >exciting</p>
                            <div style=""width:240px; margin: auto;"">
                                <img src=""images/gray_h146_v601.png"" alt=""img"">
                            </div>
                        </div>","0","images/gray_h146_v601.png","","exciting","",""
"","","","","","html-slider-response","128","9290266","0.0-122.0","NaN","50","","<div style=""width:500px;"">
                            <p style=""font-size:50px; font-weight:bold;""
                            >exciting</p>
                            <div style=""width:240px; margin: auto;"">
                                <img src=""images/gray_h181_v683.png"" alt=""img"">
                            </div>
                        </div>","0","images/gray_h181_v683.png","","exciting","",""
"","","","","","html-slider-response","129","9291580","0.0-123.0","NaN","71","","<div style=""width:500px;"">
                            <p style=""font-size:50px; font-weight:bold;""
                            >exciting</p>
                            <div style=""width:240px; margin: auto;"">
                                <img src=""images/gray_h147_v648.png"" alt=""img"">
                            </div>
                        </div>","0","images/gray_h147_v648.png","","exciting","",""
"","","","","","html-slider-response","130","9295693","0.0-124.0","NaN","-142","","<div style=""width:500px;"">
                            <p style=""font-size:50px; font-weight:bold;""
                            >exciting</p>
                            <div style=""width:240px; margin: auto;"">
                                <img src=""images/gray_h072_v611.png"" alt=""img"">
                            </div>
                        </div>","0","images/gray_h072_v611.png","","exciting","",""
"","","","","","html-slider-response","131","9299578","0.0-125.0","NaN","68","","<div style=""width:500px;"">
                            <p style=""font-size:50px; font-weight:bold;""
                            >exciting</p>
                            <div style=""width:240px; margin: auto;"">
                                <img src=""images/gray_h176_v214.png"" alt=""img"">
                            </div>
                        </div>","0","images/gray_h176_v214.png","","exciting","",""
"","","","","","html-slider-response","132","9308470","0.0-126.0","NaN","-25","","<div style=""width:500px;"">
                            <p style=""font-size:50px; font-weight:bold;""
                            >exciting</p>
                            <div style=""width:240px; margin: auto;"">
                                <img src=""images/gray_h241_v304.png"" alt=""img"">
                            </div>
                        </div>","0","images/gray_h241_v304.png","","exciting","",""
"","","","","","html-slider-response","133","9310789","0.0-127.0","NaN","80","","<div style=""width:500px;"">
                            <p style=""font-size:50px; font-weight:bold;""
                            >exciting</p>
                            <div style=""width:240px; margin: auto;"">
                                <img src=""images/gray_h167_v644.png"" alt=""img"">
                            </div>
                        </div>","0","images/gray_h167_v644.png","","exciting","",""
"","","","","","html-slider-response","134","9315609","0.0-128.0","NaN","147","","<div style=""width:500px;"">
                            <p style=""font-size:50px; font-weight:bold;""
                            >exciting</p>
                            <div style=""width:240px; margin: auto;"">
                                <img src=""images/gray_h151_v619.png"" alt=""img"">
                            </div>
                        </div>","0","images/gray_h151_v619.png","","exciting","",""
"","","","","","html-slider-response","135","9318314","0.0-129.0","NaN","148","","<div style=""width:500px;"">
                            <p style=""font-size:50px; font-weight:bold;""
                            >exciting</p>
                            <div style=""width:240px; margin: auto;"">
                                <img src=""images/gray_h209_v481.png"" alt=""img"">
                            </div>
                        </div>","0","images/gray_h209_v481.png","","exciting","",""
"","","","","","html-slider-response","136","9323237","0.0-130.0","NaN","-58","","<div style=""width:500px;"">
                            <p style=""font-size:50px; font-weight:bold;""
                            >exciting</p>
                            <div style=""width:240px; margin: auto;"">
                                <img src=""images/gray_h152_v629.png"" alt=""img"">
                            </div>
                        </div>","0","images/gray_h152_v629.png","","exciting","",""
"","","","","","html-slider-response","137","9327208","0.0-131.0","NaN","-130","","<div style=""width:500px;"">
                            <p style=""font-size:50px; font-weight:bold;""
                            >exciting</p>
                            <div style=""width:240px; margin: auto;"">
                                <img src=""images/gray_h150_v613.png"" alt=""img"">
                            </div>
                        </div>","0","images/gray_h150_v613.png","","exciting","",""
"","","","","","html-slider-response","138","9330659","0.0-132.0","NaN","83","","<div style=""width:500px;"">
                            <p style=""font-size:50px; font-weight:bold;""
                            >exciting</p>
                            <div style=""width:240px; margin: auto;"">
                                <img src=""images/gray_h178_v226.png"" alt=""img"">
                            </div>
                        </div>","0","images/gray_h178_v226.png","","exciting","",""
"","","","","","html-slider-response","139","9332793","0.0-133.0","NaN","-43","","<div style=""width:500px;"">
                            <p style=""font-size:50px; font-weight:bold;""
                            >exciting</p>
                            <div style=""width:240px; margin: auto;"">
                                <img src=""images/gray_h147_v647.png"" alt=""img"">
                            </div>
                        </div>","0","images/gray_h147_v647.png","","exciting","",""
"","","","","","html-slider-response","140","9335424","0.0-134.0","NaN","-84","","<div style=""width:500px;"">
                            <p style=""font-size:50px; font-weight:bold;""
                            >exciting</p>
                            <div style=""width:240px; margin: auto;"">
                                <img src=""images/gray_h239_v499.png"" alt=""img"">
                            </div>
                        </div>","0","images/gray_h239_v499.png","","exciting","",""
"","","","","","html-slider-response","141","9339595","0.0-135.0","NaN","103","","<div style=""width:500px;"">
                            <p style=""font-size:50px; font-weight:bold;""
                            >exciting</p>
                            <div style=""width:240px; margin: auto;"">
                                <img src=""images/gray_h159_v655.png"" alt=""img"">
                            </div>
                        </div>","0","images/gray_h159_v655.png","","exciting","",""
"","","","","","html-slider-response","142","9345259","0.0-136.0","NaN","105","","<div style=""width:500px;"">
                            <p style=""font-size:50px; font-weight:bold;""
                            >exciting</p>
                            <div style=""width:240px; margin: auto;"">
                                <img src=""images/gray_h200_v276.png"" alt=""img"">
                            </div>
                        </div>","0","images/gray_h200_v276.png","","exciting","",""
"","","","","","html-slider-response","143","9352210","0.0-137.0","NaN","126","","<div style=""width:500px;"">
                            <p style=""font-size:50px; font-weight:bold;""
                            >exciting</p>
                            <div style=""width:240px; margin: auto;"">
                                <img src=""images/gray_h144_v595.png"" alt=""img"">
                            </div>
                        </div>","0","images/gray_h144_v595.png","","exciting","",""
"","","","","","html-slider-response","144","9356807","0.0-138.0","NaN","51","","<div style=""width:500px;"">
                            <p style=""font-size:50px; font-weight:bold;""
                            >exciting</p>
                            <div style=""width:240px; margin: auto;"">
                                <img src=""images/gray_h148_v640.png"" alt=""img"">
                            </div>
                        </div>","0","images/gray_h148_v640.png","","exciting","",""
"","","","","","html-slider-response","145","9361625","0.0-139.0","NaN","60","","<div style=""width:500px;"">
                            <p style=""font-size:50px; font-weight:bold;""
                            >exciting</p>
                            <div style=""width:240px; margin: auto;"">
                                <img src=""images/gray_h206_v494.png"" alt=""img"">
                            </div>
                        </div>","0","images/gray_h206_v494.png","","exciting","",""
"","","","","","html-slider-response","146","9367642","0.0-140.0","NaN","124","","<div style=""width:500px;"">
                            <p style=""font-size:50px; font-weight:bold;""
                            >exciting</p>
                            <div style=""width:240px; margin: auto;"">
                                <img src=""images/gray_h116_v508.png"" alt=""img"">
                            </div>
                        </div>","0","images/gray_h116_v508.png","","exciting","",""
"","","","","","html-slider-response","147","9370034","0.0-141.0","NaN","127","","<div style=""width:500px;"">
                            <p style=""font-size:50px; font-weight:bold;""
                            >exciting</p>
                            <div style=""width:240px; margin: auto;"">
                                <img src=""images/gray_h206_v476.png"" alt=""img"">
                            </div>
                        </div>","0","images/gray_h206_v476.png","","exciting","",""
"","","","","","html-slider-response","148","9372509","0.0-142.0","NaN","24","","<div style=""width:500px;"">
                            <p style=""font-size:50px; font-weight:bold;""
                            >exciting</p>
                            <div style=""width:240px; margin: auto;"">
                                <img src=""images/gray_h147_v604.png"" alt=""img"">
                            </div>
                        </div>","0","images/gray_h147_v604.png","","exciting","",""
"","","","","","html-slider-response","149","9376008","0.0-143.0","NaN","119","","<div style=""width:500px;"">
                            <p style=""font-size:50px; font-weight:bold;""
                            >exciting</p>
                            <div style=""width:240px; margin: auto;"">
                                <img src=""images/gray_h147_v672.png"" alt=""img"">
                            </div>
                        </div>","0","images/gray_h147_v672.png","","exciting","",""
"","","","","","html-slider-response","150","9377876","0.0-144.0","NaN","-131","","<div style=""width:500px;"">
                            <p style=""font-size:50px; font-weight:bold;""
                            >exciting</p>
                            <div style=""width:240px; margin: auto;"">
                                <img src=""images/gray_h146_v600.png"" alt=""img"">
                            </div>
                        </div>","0","images/gray_h146_v600.png","","exciting","",""
"","","","","","html-slider-response","151","9381844","0.0-145.0","NaN","22","","<div style=""width:500px;"">
                            <p style=""font-size:50px; font-weight:bold;""
                            >exciting</p>
                            <div style=""width:240px; margin: auto;"">
                                <img src=""images/gray_h183_v676.png"" alt=""img"">
                            </div>
                        </div>","0","images/gray_h183_v676.png","","exciting","",""
"","","","","","html-slider-response","152","9384343","0.0-146.0","NaN","-127","","<div style=""width:500px;"">
                            <p style=""font-size:50px; font-weight:bold;""
                            >exciting</p>
                            <div style=""width:240px; margin: auto;"">
                                <img src=""images/gray_h150_v615.png"" alt=""img"">
                            </div>
                        </div>","0","images/gray_h150_v615.png","","exciting","",""
"","","","","","html-slider-response","153","9386375","0.0-147.0","NaN","-136","","<div style=""width:500px;"">
                            <p style=""font-size:50px; font-weight:bold;""
                            >exciting</p>
                            <div style=""width:240px; margin: auto;"">
                                <img src=""images/gray_h143_v595.png"" alt=""img"">
                            </div>
                        </div>","0","images/gray_h143_v595.png","","exciting","",""
"","","","","","html-slider-response","154","9388309","0.0-148.0","NaN","-87","","<div style=""width:500px;"">
                            <p style=""font-size:50px; font-weight:bold;""
                            >exciting</p>
                            <div style=""width:240px; margin: auto;"">
                                <img src=""images/gray_h155_v647.png"" alt=""img"">
                            </div>
                        </div>","0","images/gray_h155_v647.png","","exciting","",""
"","","","","","html-slider-response","155","9390476","0.0-149.0","NaN","108","","<div style=""width:500px;"">
                            <p style=""font-size:50px; font-weight:bold;""
                            >exciting</p>
                            <div style=""width:240px; margin: auto;"">
                                <img src=""images/gray_h148_v607.png"" alt=""img"">
                            </div>
                        </div>","0","images/gray_h148_v607.png","","exciting","",""
"","","","","","html-slider-response","156","9392709","0.0-150.0","NaN","-45","","<div style=""width:500px;"">
                            <p style=""font-size:50px; font-weight:bold;""
                            >exciting</p>
                            <div style=""width:240px; margin: auto;"">
                                <img src=""images/gray_h223_v317.png"" alt=""img"">
                            </div>
                        </div>","0","images/gray_h223_v317.png","","exciting","",""
"","","","","","html-slider-response","157","9394676","0.0-151.0","NaN","-107","","<div style=""width:500px;"">
                            <p style=""font-size:50px; font-weight:bold;""
                            >exciting</p>
                            <div style=""width:240px; margin: auto;"">
                                <img src=""images/gray_h246_v290.png"" alt=""img"">
                            </div>
                        </div>","0","images/gray_h246_v290.png","","exciting","",""
"","","","","","html-slider-response","158","9401926","0.0-152.0","NaN","103","","<div style=""width:500px;"">
                            <p style=""font-size:50px; font-weight:bold;""
                            >exciting</p>
                            <div style=""width:240px; margin: auto;"">
                                <img src=""images/gray_h205_v484.png"" alt=""img"">
                            </div>
                        </div>","0","images/gray_h205_v484.png","","exciting","",""
"","","","","","html-slider-response","159","9404960","0.0-153.0","NaN","-184","","<div style=""width:500px;"">
                            <p style=""font-size:50px; font-weight:bold;""
                            >exciting</p>
                            <div style=""width:240px; margin: auto;"">
                                <img src=""images/gray_h203_v486.png"" alt=""img"">
                            </div>
                        </div>","0","images/gray_h203_v486.png","","exciting","",""
"","","","","","html-slider-response","160","9406977","0.0-154.0","NaN","-61","","<div style=""width:500px;"">
                            <p style=""font-size:50px; font-weight:bold;""
                            >exciting</p>
                            <div style=""width:240px; margin: auto;"">
                                <img src=""images/gray_h241_v296.png"" alt=""img"">
                            </div>
                        </div>","0","images/gray_h241_v296.png","","exciting","",""
"","","","","","html-slider-response","161","9426563","0.0-155.0","NaN","-63","","<div style=""width:500px;"">
                            <p style=""font-size:50px; font-weight:bold;""
                            >exciting</p>
                            <div style=""width:240px; margin: auto;"">
                                <img src=""images/gray_h266_v305.png"" alt=""img"">
                            </div>
                        </div>","0","images/gray_h266_v305.png","","exciting","",""
"","","","","","html-slider-response","162","9428328","0.0-156.0","NaN","-192","","<div style=""width:500px;"">
                            <p style=""font-size:50px; font-weight:bold;""
                            >exciting</p>
                            <div style=""width:240px; margin: auto;"">
                                <img src=""images/gray_h148_v605.png"" alt=""img"">
                            </div>
                        </div>","0","images/gray_h148_v605.png","","exciting","",""
"","","","","","html-slider-response","163","9429594","0.0-157.0","NaN","-136","","<div style=""width:500px;"">
                            <p style=""font-size:50px; font-weight:bold;""
                            >exciting</p>
                            <div style=""width:240px; margin: auto;"">
                                <img src=""images/gray_h144_v597.png"" alt=""img"">
                            </div>
                        </div>","0","images/gray_h144_v597.png","","exciting","",""
"","","","","","html-slider-response","164","9431544","0.0-158.0","NaN","48","","<div style=""width:500px;"">
                            <p style=""font-size:50px; font-weight:bold;""
                            >exciting</p>
                            <div style=""width:240px; margin: auto;"">
                                <img src=""images/gray_h154_v646.png"" alt=""img"">
                            </div>
                        </div>","0","images/gray_h154_v646.png","","exciting","",""
"","","","","","html-slider-response","165","9433709","0.0-159.0","NaN","-169","","<div style=""width:500px;"">
                            <p style=""font-size:50px; font-weight:bold;""
                            >exciting</p>
                            <div style=""width:240px; margin: auto;"">
                                <img src=""images/gray_h176_v209.png"" alt=""img"">
                            </div>
                        </div>","0","images/gray_h176_v209.png","","exciting","",""
"","","","","","html-slider-response","166","9434810","0.0-160.0","NaN","-156","","<div style=""width:500px;"">
                            <p style=""font-size:50px; font-weight:bold;""
                            >exciting</p>
                            <div style=""width:240px; margin: auto;"">
                                <img src=""images/gray_h149_v612.png"" alt=""img"">
                            </div>
                        </div>","0","images/gray_h149_v612.png","","exciting","",""
"","","","","","html-slider-response","167","9436744","0.0-161.0","NaN","-144","","<div style=""width:500px;"">
                            <p style=""font-size:50px; font-weight:bold;""
                            >exciting</p>
                            <div style=""width:240px; margin: auto;"">
                                <img src=""images/gray_h267_v305.png"" alt=""img"">
                            </div>
                        </div>","0","images/gray_h267_v305.png","","exciting","",""
"","","","","","html-slider-response","168","9449742","0.0-162.0","NaN","-144","","<div style=""width:500px;"">
                            <p style=""font-size:50px; font-weight:bold;""
                            >exciting</p>
                            <div style=""width:240px; margin: auto;"">
                                <img src=""images/gray_h157_v677.png"" alt=""img"">
                            </div>
                        </div>","0","images/gray_h157_v677.png","","exciting","",""
"","","","","","html-slider-response","169","9452893","0.0-163.0","NaN","-84","","<div style=""width:500px;"">
                            <p style=""font-size:50px; font-weight:bold;""
                            >exciting</p>
                            <div style=""width:240px; margin: auto;"">
                                <img src=""images/gray_h147_v603.png"" alt=""img"">
                            </div>
                        </div>","0","images/gray_h147_v603.png","","exciting","",""
"","","","","","html-slider-response","170","9454128","0.0-164.0","NaN","-131","","<div style=""width:500px;"">
                            <p style=""font-size:50px; font-weight:bold;""
                            >exciting</p>
                            <div style=""width:240px; margin: auto;"">
                                <img src=""images/gray_h153_v646.png"" alt=""img"">
                            </div>
                        </div>","0","images/gray_h153_v646.png","","exciting","",""
"","","","","","html-slider-response","171","9456944","0.0-165.0","NaN","30","","<div style=""width:500px;"">
                            <p style=""font-size:50px; font-weight:bold;""
                            >exciting</p>
                            <div style=""width:240px; margin: auto;"">
                                <img src=""images/gray_h250_v546.png"" alt=""img"">
                            </div>
                        </div>","0","images/gray_h250_v546.png","","exciting","",""
"","","","","","html-slider-response","172","9458928","0.0-166.0","NaN","-64","","<div style=""width:500px;"">
                            <p style=""font-size:50px; font-weight:bold;""
                            >exciting</p>
                            <div style=""width:240px; margin: auto;"">
                                <img src=""images/gray_h151_v616.png"" alt=""img"">
                            </div>
                        </div>","0","images/gray_h151_v616.png","","exciting","",""
"","","","","","html-slider-response","173","9465078","0.0-167.0","NaN","-138","","<div style=""width:500px;"">
                            <p style=""font-size:50px; font-weight:bold;""
                            >exciting</p>
                            <div style=""width:240px; margin: auto;"">
                                <img src=""images/gray_h207_v480.png"" alt=""img"">
                            </div>
                        </div>","0","images/gray_h207_v480.png","","exciting","",""
"","","","","","html-slider-response","174","9466695","0.0-168.0","NaN","104","","<div style=""width:500px;"">
                            <p style=""font-size:50px; font-weight:bold;""
                            >exciting</p>
                            <div style=""width:240px; margin: auto;"">
                                <img src=""images/gray_h146_v602.png"" alt=""img"">
                            </div>
                        </div>","0","images/gray_h146_v602.png","","exciting","",""
"","","","","","html-slider-response","175","9467961","0.0-169.0","NaN","-60","","<div style=""width:500px;"">
                            <p style=""font-size:50px; font-weight:bold;""
                            >exciting</p>
                            <div style=""width:240px; margin: auto;"">
                                <img src=""images/gray_h151_v618.png"" alt=""img"">
                            </div>
                        </div>","0","images/gray_h151_v618.png","","exciting","",""
"","","","","","html-slider-response","176","9468926","0.0-170.0","NaN","-128","","<div style=""width:500px;"">
                            <p style=""font-size:50px; font-weight:bold;""
                            >exciting</p>
                            <div style=""width:240px; margin: auto;"">
                                <img src=""images/gray_h145_v600.png"" alt=""img"">
                            </div>
                        </div>","0","images/gray_h145_v600.png","","exciting","",""
"","","","","","html-slider-response","177","9471660","0.0-171.0","NaN","-196","","<div style=""width:500px;"">
                            <p style=""font-size:50px; font-weight:bold;""
                            >exciting</p>
                            <div style=""width:240px; margin: auto;"">
                                <img src=""images/gray_h114_v215.png"" alt=""img"">
                            </div>
                        </div>","0","images/gray_h114_v215.png","","exciting","",""
"","","","","","html-slider-response","178","9473542","0.0-172.0","NaN","-161","","<div style=""width:500px;"">
                            <p style=""font-size:50px; font-weight:bold;""
                            >exciting</p>
                            <div style=""width:240px; margin: auto;"">
                                <img src=""images/gray_h143_v594.png"" alt=""img"">
                            </div>
                        </div>","0","images/gray_h143_v594.png","","exciting","",""
"","","","","","html-button-response","179","9474984","0.0-173.0","937","0","","<p>Great Job! You've finished block 3.<br></br> You have 5 block(s) left to go.<br></br></p>","","","","","",""
"","","","","","html-button-response","180","9477664","0.0-174.0","2679","0","","<p>In this block of trials, you will be asked to rate how much you associate each map with:</p > <p style = 'font-size:150%; font-weight: bold'>disturbing</p><br></br>","","","","","",""
"","","","","","html-slider-response","181","9480028","0.0-175.0","NaN","-150","","<div style=""width:500px;"">
                            <p style=""font-size:50px; font-weight:bold;""
                            >disturbing</p>
                            <div style=""width:240px; margin: auto;"">
                                <img src=""images/gray_h148_v607.png"" alt=""img"">
                            </div>
                        </div>","0","images/gray_h148_v607.png","","disturbing","",""
"","","","","","html-slider-response","182","9498779","0.0-176.0","NaN","-145","","<div style=""width:500px;"">
                            <p style=""font-size:50px; font-weight:bold;""
                            >disturbing</p>
                            <div style=""width:240px; margin: auto;"">
                                <img src=""images/gray_h114_v215.png"" alt=""img"">
                            </div>
                        </div>","0","images/gray_h114_v215.png","","disturbing","",""
"","","","","","html-slider-response","183","9500446","0.0-177.0","NaN","-94","","<div style=""width:500px;"">
                            <p style=""font-size:50px; font-weight:bold;""
                            >disturbing</p>
                            <div style=""width:240px; margin: auto;"">
                                <img src=""images/gray_h144_v595.png"" alt=""img"">
                            </div>
                        </div>","0","images/gray_h144_v595.png","","disturbing","",""
"","","","","","html-slider-response","184","9502511","0.0-178.0","NaN","56","","<div style=""width:500px;"">
                            <p style=""font-size:50px; font-weight:bold;""
                            >disturbing</p>
                            <div style=""width:240px; margin: auto;"">
                                <img src=""images/gray_h146_v602.png"" alt=""img"">
                            </div>
                        </div>","0","images/gray_h146_v602.png","","disturbing","",""
"","","","","","html-slider-response","185","9505229","0.0-179.0","NaN","160","","<div style=""width:500px;"">
                            <p style=""font-size:50px; font-weight:bold;""
                            >disturbing</p>
                            <div style=""width:240px; margin: auto;"">
                                <img src=""images/gray_h223_v317.png"" alt=""img"">
                            </div>
                        </div>","0","images/gray_h223_v317.png","","disturbing","",""
"","","","","","html-slider-response","186","9508446","0.0-180.0","NaN","-99","","<div style=""width:500px;"">
                            <p style=""font-size:50px; font-weight:bold;""
                            >disturbing</p>
                            <div style=""width:240px; margin: auto;"">
                                <img src=""images/gray_h152_v629.png"" alt=""img"">
                            </div>
                        </div>","0","images/gray_h152_v629.png","","disturbing","",""
"","","","","","html-slider-response","187","9509980","0.0-181.0","NaN","-49","","<div style=""width:500px;"">
                            <p style=""font-size:50px; font-weight:bold;""
                            >disturbing</p>
                            <div style=""width:240px; margin: auto;"">
                                <img src=""images/gray_h146_v601.png"" alt=""img"">
                            </div>
                        </div>","0","images/gray_h146_v601.png","","disturbing","",""
"","","","","","html-slider-response","188","9512812","0.0-182.0","NaN","-164","","<div style=""width:500px;"">
                            <p style=""font-size:50px; font-weight:bold;""
                            >disturbing</p>
                            <div style=""width:240px; margin: auto;"">
                                <img src=""images/gray_h241_v304.png"" alt=""img"">
                            </div>
                        </div>","0","images/gray_h241_v304.png","","disturbing","",""
"","","","","","html-slider-response","189","9514596","0.0-183.0","NaN","-200","","<div style=""width:500px;"">
                            <p style=""font-size:50px; font-weight:bold;""
                            >disturbing</p>
                            <div style=""width:240px; margin: auto;"">
                                <img src=""images/gray_h176_v209.png"" alt=""img"">
                            </div>
                        </div>","0","images/gray_h176_v209.png","","disturbing","",""
"","","","","","html-slider-response","190","9516446","0.0-184.0","NaN","37","","<div style=""width:500px;"">
                            <p style=""font-size:50px; font-weight:bold;""
                            >disturbing</p>
                            <div style=""width:240px; margin: auto;"">
                                <img src=""images/gray_h153_v646.png"" alt=""img"">
                            </div>
                        </div>","0","images/gray_h153_v646.png","","disturbing","",""
"","","","","","html-slider-response","191","9520659","0.0-185.0","NaN","-151","","<div style=""width:500px;"">
                            <p style=""font-size:50px; font-weight:bold;""
                            >disturbing</p>
                            <div style=""width:240px; margin: auto;"">
                                <img src=""images/gray_h147_v672.png"" alt=""img"">
                            </div>
                        </div>","0","images/gray_h147_v672.png","","disturbing","",""
"","","","","","html-slider-response","192","9523562","0.0-186.0","NaN","59","","<div style=""width:500px;"">
                            <p style=""font-size:50px; font-weight:bold;""
                            >disturbing</p>
                            <div style=""width:240px; margin: auto;"">
                                <img src=""images/gray_h144_v597.png"" alt=""img"">
                            </div>
                        </div>","0","images/gray_h144_v597.png","","disturbing","",""
"","","","","","html-slider-response","193","9525477","0.0-187.0","NaN","176","","<div style=""width:500px;"">
                            <p style=""font-size:50px; font-weight:bold;""
                            >disturbing</p>
                            <div style=""width:240px; margin: auto;"">
                                <img src=""images/gray_h203_v486.png"" alt=""img"">
                            </div>
                        </div>","0","images/gray_h203_v486.png","","disturbing","",""
"","","","","","html-slider-response","194","9528578","0.0-188.0","NaN","79","","<div style=""width:500px;"">
                            <p style=""font-size:50px; font-weight:bold;""
                            >disturbing</p>
                            <div style=""width:240px; margin: auto;"">
                                <img src=""images/gray_h151_v616.png"" alt=""img"">
                            </div>
                        </div>","0","images/gray_h151_v616.png","","disturbing","",""
"","","","","","html-slider-response","195","9530729","0.0-189.0","NaN","169","","<div style=""width:500px;"">
                            <p style=""font-size:50px; font-weight:bold;""
                            >disturbing</p>
                            <div style=""width:240px; margin: auto;"">
                                <img src=""images/gray_h239_v499.png"" alt=""img"">
                            </div>
                        </div>","0","images/gray_h239_v499.png","","disturbing","",""
"","","","","","html-slider-response","196","9532127","0.0-190.0","NaN","82","","<div style=""width:500px;"">
                            <p style=""font-size:50px; font-weight:bold;""
                            >disturbing</p>
                            <div style=""width:240px; margin: auto;"">
                                <img src=""images/gray_h143_v594.png"" alt=""img"">
                            </div>
                        </div>","0","images/gray_h143_v594.png","","disturbing","",""
"","","","","","html-slider-response","197","9535044","0.0-191.0","NaN","-136","","<div style=""width:500px;"">
                            <p style=""font-size:50px; font-weight:bold;""
                            >disturbing</p>
                            <div style=""width:240px; margin: auto;"">
                                <img src=""images/gray_h146_v600.png"" alt=""img"">
                            </div>
                        </div>","0","images/gray_h146_v600.png","","disturbing","",""
"","","","","","html-slider-response","198","9537763","0.0-192.0","NaN","-200","","<div style=""width:500px;"">
                            <p style=""font-size:50px; font-weight:bold;""
                            >disturbing</p>
                            <div style=""width:240px; margin: auto;"">
                                <img src=""images/gray_h205_v484.png"" alt=""img"">
                            </div>
                        </div>","0","images/gray_h205_v484.png","","disturbing","",""
"","","","","","html-slider-response","199","9540361","0.0-193.0","NaN","-57","","<div style=""width:500px;"">
                            <p style=""font-size:50px; font-weight:bold;""
                            >disturbing</p>
                            <div style=""width:240px; margin: auto;"">
                                <img src=""images/gray_h178_v226.png"" alt=""img"">
                            </div>
                        </div>","0","images/gray_h178_v226.png","","disturbing","",""
"","","","","","html-slider-response","200","9543643","0.0-194.0","NaN","-122","","<div style=""width:500px;"">
                            <p style=""font-size:50px; font-weight:bold;""
                            >disturbing</p>
                            <div style=""width:240px; margin: auto;"">
                                <img src=""images/gray_h246_v290.png"" alt=""img"">
                            </div>
                        </div>","0","images/gray_h246_v290.png","","disturbing","",""
"","","","","","html-slider-response","201","9545895","0.0-195.0","NaN","43","","<div style=""width:500px;"">
                            <p style=""font-size:50px; font-weight:bold;""
                            >disturbing</p>
                            <div style=""width:240px; margin: auto;"">
                                <img src=""images/gray_h157_v677.png"" alt=""img"">
                            </div>
                        </div>","0","images/gray_h157_v677.png","","disturbing","",""
"","","","","","html-slider-response","202","9548946","0.0-196.0","NaN","189","","<div style=""width:500px;"">
                            <p style=""font-size:50px; font-weight:bold;""
                            >disturbing</p>
                            <div style=""width:240px; margin: auto;"">
