"success","timeout","failed_images","failed_audio","failed_video","trial_type","trial_index","time_elapsed","internal_node_id","rt","response","question_order","stimulus","slider_start","image_path","practiceTrial","concept","practiceTrialNum","correct"
"true","false","[]","[]","[]","preload","0","1024","0.0-0.0","","","","","","","","","",""
"","","","","","survey-multi-select","1","20943","0.0-1.0","19914","{""Consent"":[""<strong>I consent</strong>""]}","[0]","","","","","","",""
"","","","","","html-keyboard-response","2","23193","0.0-2.0","2247"," ","","<p>Great job!</p> You have completed the consent process and answered the demographic questions.<p> Press the spacebar to continue to instructions for the experiment. </p>","","","","","",""
"","","","","","html-slider-response","3","95374","0.0-3.0","72178","58","","
            <div style='text-align:left; font-size:20px; line-height:25px; width: 1200px;'>
                During this experiment you will be asked to rate how much you associate maps with    different concepts.<br> Below, you can see some examples of the maps you will be asked to rate. Next to the maps
    is the list of concepts.<br>You will be asked    to rate how much you associate each map with each concept on a scale from 'not at all' to 'very much' like the
    one below. <br><br>
    Now, please look at the list of concepts and maps. For each concept, think about the map you associate 'very
    much' with the concept.<br>     When you see that map during the experiment, please rate it near the 'very much' endpoint of the
    scale.<br>Now, please think about which map you associate 'not at all'     with each concept. When you see that map during the experiment, please rate it near the 'not at all' endpoint
    of the scale.<br>
    Please use the full range of the scale. That is, if a map is somewhat associated with the concept, you would
    click partway between the middle point and right side of the scale.    You will be asked to rate each map for a given concept before moving on to the next concept.<br><br>Press the
    'Continue' button when you're ready to begin four practice trials.    <br><br>
</div>

<div style=""width: 500px; margin: 0 auto;"">
    <div style=""text-align: right; width: 240px; float: left;"">
        <p style=""font-size:25px; line-height:18px;"">calm</p>
        <p style=""font-size:25px; line-height:18px;"">exciting</p>
        <p style=""font-size:25px;line-height:18px;"">positive</p>
        <p style=""font-size:25px;line-height:18px;"">negative</p>
        <p style=""font-size:25px;line-height:18px;"">serious</p>
        <p style=""font-size:25px;line-height:18px;"">playful</p>
        <p style=""font-size:25px;line-height:18px;"">trustworthy</p>
        <p style=""font-size:25px;line-height:18px;"">disturbing</p>
    </div>
    <div style=""width: 240px; float: right; padding-top:15px"">
        <img src=""patches71.png"" alt=""img"" style=""max-height:300px"">
    </div>
    <div style=""clear: both;""></div>
</div>
            ","0","patches71.png","true","","",""
"","","","","","html-slider-response","4","99616","0.0-4.0-0.0","NaN","59","","<div style=""width:500px;"">
                            <p style=""font-size:25px;"">Please move the slider all the way to the <br> right endpoint of the scale</p>
                            <p style=""font-size:50px; font-weight:bold;""
                            >exciting</p>
                            <div style=""width:240px; margin: auto;"">
                                <img src=""images/gray_h149_v612.png"" alt=""img"">
                            </div>
                        </div>","0","images/gray_h149_v612.png","true","exciting","0","false"
"","","","","","html-button-response","5","103139","0.0-4.0-1.0","3021","0","","<p align='center'><b>Not quite!</b> The slider was not placed near the instructed located. Click on 'Continue' to try again. </p>","","","","","",""
"","","","","","html-slider-response","6","108813","0.0-4.1-0.1","NaN","200","","<div style=""width:500px;"">
                            <p style=""font-size:25px;"">Please move the slider all the way to the <br> right endpoint of the scale</p>
                            <p style=""font-size:50px; font-weight:bold;""
                            >exciting</p>
                            <div style=""width:240px; margin: auto;"">
                                <img src=""images/gray_h149_v612.png"" alt=""img"">
                            </div>
                        </div>","0","images/gray_h149_v612.png","true","exciting","0","true"
"","","","","","html-button-response","7","110467","0.0-4.1-1.1","1151","0","","<p align='center'><b>Good job!</b> Click on 'Continue' to proceed.</p>","","","","","",""
"","","","","","html-slider-response","8","113800","0.0-5.0-0.0","NaN","-200","","<div style=""width:500px;"">
                            <p style=""font-size:25px;"">Please move the slider all the way to the <br> left endpoint of the scale</p>
                            <p style=""font-size:50px; font-weight:bold;""
                            >exciting</p>
                            <div style=""width:240px; margin: auto;"">
                                <img src=""images/gray_h148_v607.png"" alt=""img"">
                            </div>
                        </div>","0","images/gray_h148_v607.png","true","exciting","1","true"
"","","","","","html-button-response","9","115281","0.0-5.0-1.0","979","0","","<p align='center'><b>Good job!</b> Click on 'Continue' to proceed.</p>","","","","","",""
"","","","","","html-slider-response","10","121794","0.0-6.0-0.0","NaN","101","","<div style=""width:500px;"">
                            <p style=""font-size:25px;"">Please move the slider halfway between the center and right endpoint of the scale</p>
                            <p style=""font-size:50px; font-weight:bold;""
                            >exciting</p>
                            <div style=""width:240px; margin: auto;"">
                                <img src=""images/gray_h176_v214.png"" alt=""img"">
                            </div>
                        </div>","0","images/gray_h176_v214.png","true","exciting","2","true"
"","","","","","html-button-response","11","123432","0.0-6.0-1.0","1137","0","","<p align='center'><b>Good job!</b> Click on 'Continue' to proceed.</p>","","","","","",""
"","","","","","html-slider-response","12","127162","0.0-7.0-0.0","NaN","-114","","<div style=""width:500px;"">
                            <p style=""font-size:25px;"">Please move the slider halfway between the center and left endpoint of the scale</p>
                            <p style=""font-size:50px; font-weight:bold;""
                            >exciting</p>
                            <div style=""width:240px; margin: auto;"">
                                <img src=""images/gray_h148_v605.png"" alt=""img"">
                            </div>
                        </div>","0","images/gray_h148_v605.png","true","exciting","3","false"
"","","","","","html-button-response","13","128570","0.0-7.0-1.0","905","0","","<p align='center'><b>Not quite!</b> The slider was not placed near the instructed located. Click on 'Continue' to try again. </p>","","","","","",""
"","","","","","html-slider-response","14","134365","0.0-7.1-0.1","NaN","-106","","<div style=""width:500px;"">
                            <p style=""font-size:25px;"">Please move the slider halfway between the center and left endpoint of the scale</p>
                            <p style=""font-size:50px; font-weight:bold;""
                            >exciting</p>
                            <div style=""width:240px; margin: auto;"">
                                <img src=""images/gray_h148_v605.png"" alt=""img"">
                            </div>
                        </div>","0","images/gray_h148_v605.png","true","exciting","3","true"
"","","","","","html-button-response","15","135904","0.0-7.1-1.1","1037","0","","<p align='center'><b>Good job!</b> Click on 'Continue' to proceed.</p>","","","","","",""
"","","","","","html-button-response","16","138075","0.0-8.0","2170","0","","<p>Great job! You've completed the practice trials. Now you will begin the main task.</p>","","","","","",""
"","","","","","html-button-response","17","139788","0.0-9.0","1712","0","","<p>In this block of trials, you will be asked to rate how much you associate each map with:</p > <p style = 'font-size:150%; font-weight: bold'>exciting</p><br></br>","","","","","",""
"","","","","","html-slider-response","18","143894","0.0-10.0","NaN","67","","<div style=""width:500px;"">
                            <p style=""font-size:50px; font-weight:bold;""
                            >exciting</p>
                            <div style=""width:240px; margin: auto;"">
                                <img src=""images/gray_h246_v290.png"" alt=""img"">
                            </div>
                        </div>","0","images/gray_h246_v290.png","","exciting","",""
"","","","","","html-slider-response","19","148367","0.0-11.0","NaN","75","","<div style=""width:500px;"">
                            <p style=""font-size:50px; font-weight:bold;""
                            >exciting</p>
                            <div style=""width:240px; margin: auto;"">
                                <img src=""images/gray_h223_v317.png"" alt=""img"">
                            </div>
                        </div>","0","images/gray_h223_v317.png","","exciting","",""
"","","","","","html-slider-response","20","151034","0.0-12.0","NaN","146","","<div style=""width:500px;"">
                            <p style=""font-size:50px; font-weight:bold;""
                            >exciting</p>
                            <div style=""width:240px; margin: auto;"">
                                <img src=""images/gray_h114_v215.png"" alt=""img"">
                            </div>
                        </div>","0","images/gray_h114_v215.png","","exciting","",""
"","","","","","html-slider-response","21","154035","0.0-13.0","NaN","-50","","<div style=""width:500px;"">
                            <p style=""font-size:50px; font-weight:bold;""
                            >exciting</p>
                            <div style=""width:240px; margin: auto;"">
                                <img src=""images/gray_h159_v655.png"" alt=""img"">
                            </div>
                        </div>","0","images/gray_h159_v655.png","","exciting","",""
"","","","","","html-slider-response","22","157243","0.0-14.0","NaN","-46","","<div style=""width:500px;"">
                            <p style=""font-size:50px; font-weight:bold;""
                            >exciting</p>
                            <div style=""width:240px; margin: auto;"">
                                <img src=""images/gray_h155_v647.png"" alt=""img"">
                            </div>
                        </div>","0","images/gray_h155_v647.png","","exciting","",""
"","","","","","html-slider-response","23","160554","0.0-15.0","NaN","-72","","<div style=""width:500px;"">
                            <p style=""font-size:50px; font-weight:bold;""
                            >exciting</p>
                            <div style=""width:240px; margin: auto;"">
                                <img src=""images/gray_h200_v276.png"" alt=""img"">
                            </div>
                        </div>","0","images/gray_h200_v276.png","","exciting","",""
"","","","","","html-slider-response","24","163650","0.0-16.0","NaN","-63","","<div style=""width:500px;"">
                            <p style=""font-size:50px; font-weight:bold;""
                            >exciting</p>
                            <div style=""width:240px; margin: auto;"">
                                <img src=""images/gray_h267_v305.png"" alt=""img"">
                            </div>
                        </div>","0","images/gray_h267_v305.png","","exciting","",""
"","","","","","html-slider-response","25","168682","0.0-17.0","NaN","-70","","<div style=""width:500px;"">
                            <p style=""font-size:50px; font-weight:bold;""
                            >exciting</p>
                            <div style=""width:240px; margin: auto;"">
                                <img src=""images/gray_h148_v640.png"" alt=""img"">
                            </div>
                        </div>","0","images/gray_h148_v640.png","","exciting","",""
"","","","","","html-slider-response","26","174017","0.0-18.0","NaN","26","","<div style=""width:500px;"">
                            <p style=""font-size:50px; font-weight:bold;""
                            >exciting</p>
                            <div style=""width:240px; margin: auto;"">
                                <img src=""images/gray_h143_v594.png"" alt=""img"">
                            </div>
                        </div>","0","images/gray_h143_v594.png","","exciting","",""
"","","","","","html-slider-response","27","177361","0.0-19.0","NaN","78","","<div style=""width:500px;"">
                            <p style=""font-size:50px; font-weight:bold;""
                            >exciting</p>
                            <div style=""width:240px; margin: auto;"">
                                <img src=""images/gray_h147_v603.png"" alt=""img"">
                            </div>
                        </div>","0","images/gray_h147_v603.png","","exciting","",""
"","","","","","html-slider-response","28","183397","0.0-20.0","NaN","144","","<div style=""width:500px;"">
                            <p style=""font-size:50px; font-weight:bold;""
                            >exciting</p>
                            <div style=""width:240px; margin: auto;"">
                                <img src=""images/gray_h207_v480.png"" alt=""img"">
                            </div>
                        </div>","0","images/gray_h207_v480.png","","exciting","",""
"","","","","","html-slider-response","29","188033","0.0-21.0","NaN","-115","","<div style=""width:500px;"">
                            <p style=""font-size:50px; font-weight:bold;""
                            >exciting</p>
                            <div style=""width:240px; margin: auto;"">
                                <img src=""images/gray_h147_v672.png"" alt=""img"">
                            </div>
                        </div>","0","images/gray_h147_v672.png","","exciting","",""
"","","","","","html-slider-response","30","194100","0.0-22.0","NaN","-58","","<div style=""width:500px;"">
                            <p style=""font-size:50px; font-weight:bold;""
                            >exciting</p>
                            <div style=""width:240px; margin: auto;"">
                                <img src=""images/gray_h183_v676.png"" alt=""img"">
                            </div>
                        </div>","0","images/gray_h183_v676.png","","exciting","",""
"","","","","","html-slider-response","31","197774","0.0-23.0","NaN","102","","<div style=""width:500px;"">
                            <p style=""font-size:50px; font-weight:bold;""
                            >exciting</p>
                            <div style=""width:240px; margin: auto;"">
                                <img src=""images/gray_h241_v296.png"" alt=""img"">
                            </div>
                        </div>","0","images/gray_h241_v296.png","","exciting","",""
"","","","","","html-slider-response","32","200707","0.0-24.0","NaN","150","","<div style=""width:500px;"">
                            <p style=""font-size:50px; font-weight:bold;""
                            >exciting</p>
                            <div style=""width:240px; margin: auto;"">
                                <img src=""images/gray_h154_v646.png"" alt=""img"">
                            </div>
                        </div>","0","images/gray_h154_v646.png","","exciting","",""
"","","","","","html-slider-response","33","203913","0.0-25.0","NaN","-124","","<div style=""width:500px;"">
                            <p style=""font-size:50px; font-weight:bold;""
                            >exciting</p>
                            <div style=""width:240px; margin: auto;"">
                                <img src=""images/gray_h167_v644.png"" alt=""img"">
                            </div>
                        </div>","0","images/gray_h167_v644.png","","exciting","",""
"","","","","","html-slider-response","34","206947","0.0-26.0","NaN","-44","","<div style=""width:500px;"">
                            <p style=""font-size:50px; font-weight:bold;""
                            >exciting</p>
                            <div style=""width:240px; margin: auto;"">
                                <img src=""images/gray_h143_v595.png"" alt=""img"">
                            </div>
                        </div>","0","images/gray_h143_v595.png","","exciting","",""
"","","","","","html-slider-response","35","211678","0.0-27.0","NaN","-106","","<div style=""width:500px;"">
                            <p style=""font-size:50px; font-weight:bold;""
                            >exciting</p>
                            <div style=""width:240px; margin: auto;"">
                                <img src=""images/gray_h116_v508.png"" alt=""img"">
                            </div>
                        </div>","0","images/gray_h116_v508.png","","exciting","",""
"","","","","","html-slider-response","36","217545","0.0-28.0","NaN","53","","<div style=""width:500px;"">
                            <p style=""font-size:50px; font-weight:bold;""
                            >exciting</p>
                            <div style=""width:240px; margin: auto;"">
                                <img src=""images/gray_h149_v612.png"" alt=""img"">
                            </div>
                        </div>","0","images/gray_h149_v612.png","","exciting","",""
"","","","","","html-slider-response","37","222500","0.0-29.0","NaN","-104","","<div style=""width:500px;"">
                            <p style=""font-size:50px; font-weight:bold;""
                            >exciting</p>
                            <div style=""width:240px; margin: auto;"">
                                <img src=""images/gray_h266_v305.png"" alt=""img"">
                            </div>
                        </div>","0","images/gray_h266_v305.png","","exciting","",""
"","","","","","html-slider-response","38","226162","0.0-30.0","NaN","-20","","<div style=""width:500px;"">
                            <p style=""font-size:50px; font-weight:bold;""
                            >exciting</p>
                            <div style=""width:240px; margin: auto;"">
                                <img src=""images/gray_h203_v486.png"" alt=""img"">
                            </div>
                        </div>","0","images/gray_h203_v486.png","","exciting","",""
"","","","","","html-slider-response","39","231104","0.0-31.0","NaN","18","","<div style=""width:500px;"">
                            <p style=""font-size:50px; font-weight:bold;""
                            >exciting</p>
                            <div style=""width:240px; margin: auto;"">
                                <img src=""images/gray_h145_v600.png"" alt=""img"">
                            </div>
                        </div>","0","images/gray_h145_v600.png","","exciting","",""
"","","","","","html-slider-response","40","233731","0.0-32.0","NaN","-14","","<div style=""width:500px;"">
                            <p style=""font-size:50px; font-weight:bold;""
                            >exciting</p>
                            <div style=""width:240px; margin: auto;"">
                                <img src=""images/gray_h144_v597.png"" alt=""img"">
                            </div>
                        </div>","0","images/gray_h144_v597.png","","exciting","",""
"","","","","","html-slider-response","41","237252","0.0-33.0","NaN","-142","","<div style=""width:500px;"">
                            <p style=""font-size:50px; font-weight:bold;""
                            >exciting</p>
                            <div style=""width:240px; margin: auto;"">
                                <img src=""images/gray_h176_v214.png"" alt=""img"">
                            </div>
                        </div>","0","images/gray_h176_v214.png","","exciting","",""
"","","","","","html-slider-response","42","239948","0.0-34.0","NaN","-111","","<div style=""width:500px;"">
                            <p style=""font-size:50px; font-weight:bold;""
                            >exciting</p>
                            <div style=""width:240px; margin: auto;"">
                                <img src=""images/gray_h157_v677.png"" alt=""img"">
                            </div>
                        </div>","0","images/gray_h157_v677.png","","exciting","",""
"","","","","","html-slider-response","43","248114","0.0-35.0","NaN","-56","","<div style=""width:500px;"">
                            <p style=""font-size:50px; font-weight:bold;""
                            >exciting</p>
                            <div style=""width:240px; margin: auto;"">
                                <img src=""images/gray_h151_v616.png"" alt=""img"">
                            </div>
                        </div>","0","images/gray_h151_v616.png","","exciting","",""
"","","","","","html-slider-response","44","250628","0.0-36.0","NaN","58","","<div style=""width:500px;"">
                            <p style=""font-size:50px; font-weight:bold;""
                            >exciting</p>
                            <div style=""width:240px; margin: auto;"">
                                <img src=""images/gray_h205_v494.png"" alt=""img"">
                            </div>
                        </div>","0","images/gray_h205_v494.png","","exciting","",""
"","","","","","html-slider-response","45","253182","0.0-37.0","NaN","13","","<div style=""width:500px;"">
                            <p style=""font-size:50px; font-weight:bold;""
                            >exciting</p>
                            <div style=""width:240px; margin: auto;"">
                                <img src=""images/gray_h150_v615.png"" alt=""img"">
                            </div>
                        </div>","0","images/gray_h150_v615.png","","exciting","",""
"","","","","","html-slider-response","46","256582","0.0-38.0","NaN","19","","<div style=""width:500px;"">
                            <p style=""font-size:50px; font-weight:bold;""
                            >exciting</p>
                            <div style=""width:240px; margin: auto;"">
                                <img src=""images/gray_h151_v619.png"" alt=""img"">
                            </div>
                        </div>","0","images/gray_h151_v619.png","","exciting","",""
"","","","","","html-slider-response","47","260397","0.0-39.0","NaN","-111","","<div style=""width:500px;"">
                            <p style=""font-size:50px; font-weight:bold;""
                            >exciting</p>
                            <div style=""width:240px; margin: auto;"">
                                <img src=""images/gray_h239_v499.png"" alt=""img"">
                            </div>
                        </div>","0","images/gray_h239_v499.png","","exciting","",""
"","","","","","html-slider-response","48","262700","0.0-40.0","NaN","-50","","<div style=""width:500px;"">
                            <p style=""font-size:50px; font-weight:bold;""
                            >exciting</p>
                            <div style=""width:240px; margin: auto;"">
                                <img src=""images/gray_h146_v600.png"" alt=""img"">
                            </div>
                        </div>","0","images/gray_h146_v600.png","","exciting","",""
"","","","","","html-slider-response","49","265698","0.0-41.0","NaN","-83","","<div style=""width:500px;"">
                            <p style=""font-size:50px; font-weight:bold;""
                            >exciting</p>
                            <div style=""width:240px; margin: auto;"">
                                <img src=""images/gray_h209_v481.png"" alt=""img"">
                            </div>
                        </div>","0","images/gray_h209_v481.png","","exciting","",""
"","","","","","html-slider-response","50","269450","0.0-42.0","NaN","-22","","<div style=""width:500px;"">
                            <p style=""font-size:50px; font-weight:bold;""
                            >exciting</p>
                            <div style=""width:240px; margin: auto;"">
                                <img src=""images/gray_h150_v613.png"" alt=""img"">
                            </div>
                        </div>","0","images/gray_h150_v613.png","","exciting","",""
"","","","","","html-slider-response","51","273193","0.0-43.0","NaN","-30","","<div style=""width:500px;"">
                            <p style=""font-size:50px; font-weight:bold;""
                            >exciting</p>
                            <div style=""width:240px; margin: auto;"">
                                <img src=""images/gray_h148_v607.png"" alt=""img"">
                            </div>
                        </div>","0","images/gray_h148_v607.png","","exciting","",""
"","","","","","html-slider-response","52","279059","0.0-44.0","NaN","-87","","<div style=""width:500px;"">
                            <p style=""font-size:50px; font-weight:bold;""
                            >exciting</p>
                            <div style=""width:240px; margin: auto;"">
                                <img src=""images/gray_h153_v646.png"" alt=""img"">
                            </div>
                        </div>","0","images/gray_h153_v646.png","","exciting","",""
"","","","","","html-slider-response","53","281826","0.0-45.0","NaN","-159","","<div style=""width:500px;"">
                            <p style=""font-size:50px; font-weight:bold;""
                            >exciting</p>
                            <div style=""width:240px; margin: auto;"">
                                <img src=""images/gray_h250_v546.png"" alt=""img"">
                            </div>
                        </div>","0","images/gray_h250_v546.png","","exciting","",""
"","","","","","html-slider-response","54","284068","0.0-46.0","NaN","-180","","<div style=""width:500px;"">
                            <p style=""font-size:50px; font-weight:bold;""
                            >exciting</p>
                            <div style=""width:240px; margin: auto;"">
                                <img src=""images/gray_h176_v209.png"" alt=""img"">
                            </div>
                        </div>","0","images/gray_h176_v209.png","","exciting","",""
"","","","","","html-slider-response","55","287044","0.0-47.0","NaN","-159","","<div style=""width:500px;"">
                            <p style=""font-size:50px; font-weight:bold;""
                            >exciting</p>
                            <div style=""width:240px; margin: auto;"">
                                <img src=""images/gray_h152_v629.png"" alt=""img"">
                            </div>
                        </div>","0","images/gray_h152_v629.png","","exciting","",""
"","","","","","html-slider-response","56","289602","0.0-48.0","NaN","-68","","<div style=""width:500px;"">
                            <p style=""font-size:50px; font-weight:bold;""
                            >exciting</p>
                            <div style=""width:240px; margin: auto;"">
                                <img src=""images/gray_h178_v226.png"" alt=""img"">
                            </div>
                        </div>","0","images/gray_h178_v226.png","","exciting","",""
"","","","","","html-slider-response","57","292709","0.0-49.0","NaN","25","","<div style=""width:500px;"">
                            <p style=""font-size:50px; font-weight:bold;""
                            >exciting</p>
                            <div style=""width:240px; margin: auto;"">
                                <img src=""images/gray_h146_v602.png"" alt=""img"">
                            </div>
                        </div>","0","images/gray_h146_v602.png","","exciting","",""
"","","","","","html-slider-response","58","295091","0.0-50.0","NaN","20","","<div style=""width:500px;"">
                            <p style=""font-size:50px; font-weight:bold;""
                            >exciting</p>
                            <div style=""width:240px; margin: auto;"">
                                <img src=""images/gray_h147_v604.png"" alt=""img"">
                            </div>
                        </div>","0","images/gray_h147_v604.png","","exciting","",""
"","","","","","html-slider-response","59","301155","0.0-51.0","NaN","-19","","<div style=""width:500px;"">
                            <p style=""font-size:50px; font-weight:bold;""
                            >exciting</p>
                            <div style=""width:240px; margin: auto;"">
                                <img src=""images/gray_h148_v605.png"" alt=""img"">
                            </div>
                        </div>","0","images/gray_h148_v605.png","","exciting","",""
"","","","","","html-slider-response","60","306014","0.0-52.0","NaN","38","","<div style=""width:500px;"">
                            <p style=""font-size:50px; font-weight:bold;""
                            >exciting</p>
                            <div style=""width:240px; margin: auto;"">
                                <img src=""images/gray_h151_v618.png"" alt=""img"">
                            </div>
                        </div>","0","images/gray_h151_v618.png","","exciting","",""
"","","","","","html-slider-response","61","310665","0.0-53.0","NaN","23","","<div style=""width:500px;"">
                            <p style=""font-size:50px; font-weight:bold;""
                            >exciting</p>
                            <div style=""width:240px; margin: auto;"">
                                <img src=""images/gray_h147_v648.png"" alt=""img"">
                            </div>
                        </div>","0","images/gray_h147_v648.png","","exciting","",""
"","","","","","html-slider-response","62","314036","0.0-54.0","NaN","146","","<div style=""width:500px;"">
                            <p style=""font-size:50px; font-weight:bold;""
                            >exciting</p>
                            <div style=""width:240px; margin: auto;"">
                                <img src=""images/gray_h205_v484.png"" alt=""img"">
                            </div>
                        </div>","0","images/gray_h205_v484.png","","exciting","",""
"","","","","","html-slider-response","63","316609","0.0-55.0","NaN","-10","","<div style=""width:500px;"">
                            <p style=""font-size:50px; font-weight:bold;""
                            >exciting</p>
                            <div style=""width:240px; margin: auto;"">
                                <img src=""images/gray_h147_v647.png"" alt=""img"">
                            </div>
                        </div>","0","images/gray_h147_v647.png","","exciting","",""
"","","","","","html-slider-response","64","318931","0.0-56.0","NaN","-46","","<div style=""width:500px;"">
                            <p style=""font-size:50px; font-weight:bold;""
                            >exciting</p>
                            <div style=""width:240px; margin: auto;"">
                                <img src=""images/gray_h144_v595.png"" alt=""img"">
                            </div>
                        </div>","0","images/gray_h144_v595.png","","exciting","",""
"","","","","","html-slider-response","65","322827","0.0-57.0","NaN","20","","<div style=""width:500px;"">
                            <p style=""font-size:50px; font-weight:bold;""
                            >exciting</p>
                            <div style=""width:240px; margin: auto;"">
                                <img src=""images/gray_h146_v601.png"" alt=""img"">
                            </div>
                        </div>","0","images/gray_h146_v601.png","","exciting","",""
"","","","","","html-slider-response","66","326309","0.0-58.0","NaN","73","","<div style=""width:500px;"">
                            <p style=""font-size:50px; font-weight:bold;""
                            >exciting</p>
                            <div style=""width:240px; margin: auto;"">
                                <img src=""images/gray_h206_v476.png"" alt=""img"">
                            </div>
                        </div>","0","images/gray_h206_v476.png","","exciting","",""
"","","","","","html-slider-response","67","328646","0.0-59.0","NaN","94","","<div style=""width:500px;"">
                            <p style=""font-size:50px; font-weight:bold;""
                            >exciting</p>
                            <div style=""width:240px; margin: auto;"">
                                <img src=""images/gray_h181_v683.png"" alt=""img"">
                            </div>
                        </div>","0","images/gray_h181_v683.png","","exciting","",""
"","","","","","html-slider-response","68","334257","0.0-60.0","NaN","-31","","<div style=""width:500px;"">
                            <p style=""font-size:50px; font-weight:bold;""
                            >exciting</p>
                            <div style=""width:240px; margin: auto;"">
                                <img src=""images/gray_h241_v304.png"" alt=""img"">
                            </div>
                        </div>","0","images/gray_h241_v304.png","","exciting","",""
"","","","","","html-slider-response","69","337287","0.0-61.0","NaN","140","","<div style=""width:500px;"">
                            <p style=""font-size:50px; font-weight:bold;""
                            >exciting</p>
                            <div style=""width:240px; margin: auto;"">
                                <img src=""images/gray_h072_v611.png"" alt=""img"">
                            </div>
                        </div>","0","images/gray_h072_v611.png","","exciting","",""
"","","","","","html-slider-response","70","339836","0.0-62.0","NaN","90","","<div style=""width:500px;"">
                            <p style=""font-size:50px; font-weight:bold;""
                            >exciting</p>
                            <div style=""width:240px; margin: auto;"">
                                <img src=""images/gray_h206_v494.png"" alt=""img"">
                            </div>
                        </div>","0","images/gray_h206_v494.png","","exciting","",""
"","","","","","html-button-response","71","341838","0.0-63.0","1500","0","","<p>Great Job! You've finished block 1.<br></br> You have 7 block(s) left to go.<br></br></p>","","","","","",""
"","","","","","html-button-response","72","342967","0.0-64.0","1128","0","","<p>In this block of trials, you will be asked to rate how much you associate each map with:</p > <p style = 'font-size:150%; font-weight: bold'>serious</p><br></br>","","","","","",""
"","","","","","html-slider-response","73","349813","0.0-65.0","NaN","-30","","<div style=""width:500px;"">
                            <p style=""font-size:50px; font-weight:bold;""
                            >serious</p>
                            <div style=""width:240px; margin: auto;"">
                                <img src=""images/gray_h147_v648.png"" alt=""img"">
                            </div>
                        </div>","0","images/gray_h147_v648.png","","serious","",""
"","","","","","html-slider-response","74","352257","0.0-66.0","NaN","49","","<div style=""width:500px;"">
                            <p style=""font-size:50px; font-weight:bold;""
                            >serious</p>
                            <div style=""width:240px; margin: auto;"">
                                <img src=""images/gray_h206_v476.png"" alt=""img"">
                            </div>
                        </div>","0","images/gray_h206_v476.png","","serious","",""
"","","","","","html-slider-response","75","358470","0.0-67.0","NaN","-65","","<div style=""width:500px;"">
                            <p style=""font-size:50px; font-weight:bold;""
                            >serious</p>
                            <div style=""width:240px; margin: auto;"">
                                <img src=""images/gray_h148_v607.png"" alt=""img"">
                            </div>
                        </div>","0","images/gray_h148_v607.png","","serious","",""
"","","","","","html-slider-response","76","364347","0.0-68.0","NaN","30","","<div style=""width:500px;"">
                            <p style=""font-size:50px; font-weight:bold;""
                            >serious</p>
                            <div style=""width:240px; margin: auto;"">
                                <img src=""images/gray_h155_v647.png"" alt=""img"">
                            </div>
                        </div>","0","images/gray_h155_v647.png","","serious","",""
"","","","","","html-slider-response","77","368095","0.0-69.0","NaN","117","","<div style=""width:500px;"">
                            <p style=""font-size:50px; font-weight:bold;""
                            >serious</p>
                            <div style=""width:240px; margin: auto;"">
                                <img src=""images/gray_h181_v683.png"" alt=""img"">
                            </div>
                        </div>","0","images/gray_h181_v683.png","","serious","",""
"","","","","","html-slider-response","78","370925","0.0-70.0","NaN","-37","","<div style=""width:500px;"">
                            <p style=""font-size:50px; font-weight:bold;""
                            >serious</p>
                            <div style=""width:240px; margin: auto;"">
                                <img src=""images/gray_h148_v605.png"" alt=""img"">
                            </div>
                        </div>","0","images/gray_h148_v605.png","","serious","",""
"","","","","","html-slider-response","79","375222","0.0-71.0","NaN","65","","<div style=""width:500px;"">
                            <p style=""font-size:50px; font-weight:bold;""
                            >serious</p>
                            <div style=""width:240px; margin: auto;"">
                                <img src=""images/gray_h239_v499.png"" alt=""img"">
                            </div>
                        </div>","0","images/gray_h239_v499.png","","serious","",""
"","","","","","html-slider-response","80","378252","0.0-72.0","NaN","-24","","<div style=""width:500px;"">
                            <p style=""font-size:50px; font-weight:bold;""
                            >serious</p>
                            <div style=""width:240px; margin: auto;"">
                                <img src=""images/gray_h147_v604.png"" alt=""img"">
                            </div>
                        </div>","0","images/gray_h147_v604.png","","serious","",""
"","","","","","html-slider-response","81","385076","0.0-73.0","NaN","59","","<div style=""width:500px;"">
                            <p style=""font-size:50px; font-weight:bold;""
                            >serious</p>
                            <div style=""width:240px; margin: auto;"">
                                <img src=""images/gray_h145_v600.png"" alt=""img"">
                            </div>
                        </div>","0","images/gray_h145_v600.png","","serious","",""
"","","","","","html-slider-response","82","387821","0.0-74.0","NaN","90","","<div style=""width:500px;"">
                            <p style=""font-size:50px; font-weight:bold;""
                            >serious</p>
                            <div style=""width:240px; margin: auto;"">
                                <img src=""images/gray_h151_v618.png"" alt=""img"">
                            </div>
                        </div>","0","images/gray_h151_v618.png","","serious","",""
"","","","","","html-slider-response","83","392020","0.0-75.0","NaN","-44","","<div style=""width:500px;"">
                            <p style=""font-size:50px; font-weight:bold;""
                            >serious</p>
                            <div style=""width:240px; margin: auto;"">
                                <img src=""images/gray_h144_v597.png"" alt=""img"">
                            </div>
                        </div>","0","images/gray_h144_v597.png","","serious","",""
"","","","","","html-slider-response","84","394595","0.0-76.0","NaN","140","","<div style=""width:500px;"">
                            <p style=""font-size:50px; font-weight:bold;""
                            >serious</p>
                            <div style=""width:240px; margin: auto;"">
                                <img src=""images/gray_h207_v480.png"" alt=""img"">
                            </div>
                        </div>","0","images/gray_h207_v480.png","","serious","",""
"","","","","","html-slider-response","85","399088","0.0-77.0","NaN","-58","","<div style=""width:500px;"">
                            <p style=""font-size:50px; font-weight:bold;""
                            >serious</p>
                            <div style=""width:240px; margin: auto;"">
                                <img src=""images/gray_h143_v594.png"" alt=""img"">
                            </div>
                        </div>","0","images/gray_h143_v594.png","","serious","",""
"","","","","","html-slider-response","86","402319","0.0-78.0","NaN","139","","<div style=""width:500px;"">
                            <p style=""font-size:50px; font-weight:bold;""
                            >serious</p>
                            <div style=""width:240px; margin: auto;"">
                                <img src=""images/gray_h176_v214.png"" alt=""img"">
                            </div>
                        </div>","0","images/gray_h176_v214.png","","serious","",""
"","","","","","html-slider-response","87","404845","0.0-79.0","NaN","82","","<div style=""width:500px;"">
                            <p style=""font-size:50px; font-weight:bold;""
                            >serious</p>
                            <div style=""width:240px; margin: auto;"">
                                <img src=""images/gray_h159_v655.png"" alt=""img"">
                            </div>
                        </div>","0","images/gray_h159_v655.png","","serious","",""
"","","","","","html-slider-response","88","407748","0.0-80.0","NaN","111","","<div style=""width:500px;"">
                            <p style=""font-size:50px; font-weight:bold;""
                            >serious</p>
                            <div style=""width:240px; margin: auto;"">
                                <img src=""images/gray_h267_v305.png"" alt=""img"">
                            </div>
                        </div>","0","images/gray_h267_v305.png","","serious","",""
"","","","","","html-slider-response","89","411130","0.0-81.0","NaN","41","","<div style=""width:500px;"">
                            <p style=""font-size:50px; font-weight:bold;""
                            >serious</p>
                            <div style=""width:240px; margin: auto;"">
                                <img src=""images/gray_h116_v508.png"" alt=""img"">
                            </div>
                        </div>","0","images/gray_h116_v508.png","","serious","",""
"","","","","","html-slider-response","90","415878","0.0-82.0","NaN","-125","","<div style=""width:500px;"">
                            <p style=""font-size:50px; font-weight:bold;""
                            >serious</p>
                            <div style=""width:240px; margin: auto;"">
                                <img src=""images/gray_h154_v646.png"" alt=""img"">
                            </div>
                        </div>","0","images/gray_h154_v646.png","","serious","",""
"","","","","","html-slider-response","91","418930","0.0-83.0","NaN","-145","","<div style=""width:500px;"">
                            <p style=""font-size:50px; font-weight:bold;""
                            >serious</p>
                            <div style=""width:240px; margin: auto;"">
                                <img src=""images/gray_h203_v486.png"" alt=""img"">
                            </div>
                        </div>","0","images/gray_h203_v486.png","","serious","",""
"","","","","","html-slider-response","92","423131","0.0-84.0","NaN","-63","","<div style=""width:500px;"">
                            <p style=""font-size:50px; font-weight:bold;""
                            >serious</p>
                            <div style=""width:240px; margin: auto;"">
                                <img src=""images/gray_h147_v672.png"" alt=""img"">
                            </div>
                        </div>","0","images/gray_h147_v672.png","","serious","",""
"","","","","","html-slider-response","93","427332","0.0-85.0","NaN","48","","<div style=""width:500px;"">
                            <p style=""font-size:50px; font-weight:bold;""
                            >serious</p>
                            <div style=""width:240px; margin: auto;"">
                                <img src=""images/gray_h266_v305.png"" alt=""img"">
                            </div>
                        </div>","0","images/gray_h266_v305.png","","serious","",""
"","","","","","html-slider-response","94","430000","0.0-86.0","NaN","163","","<div style=""width:500px;"">
                            <p style=""font-size:50px; font-weight:bold;""
                            >serious</p>
                            <div style=""width:240px; margin: auto;"">
                                <img src=""images/gray_h178_v226.png"" alt=""img"">
                            </div>
                        </div>","0","images/gray_h178_v226.png","","serious","",""
"","","","","","html-slider-response","95","435973","0.0-87.0","NaN","-53","","<div style=""width:500px;"">
                            <p style=""font-size:50px; font-weight:bold;""
                            >serious</p>
                            <div style=""width:240px; margin: auto;"">
                                <img src=""images/gray_h143_v595.png"" alt=""img"">
                            </div>
                        </div>","0","images/gray_h143_v595.png","","serious","",""
"","","","","","html-slider-response","96","439774","0.0-88.0","NaN","-30","","<div style=""width:500px;"">
                            <p style=""font-size:50px; font-weight:bold;""
                            >serious</p>
                            <div style=""width:240px; margin: auto;"">
                                <img src=""images/gray_h072_v611.png"" alt=""img"">
                            </div>
                        </div>","0","images/gray_h072_v611.png","","serious","",""
"","","","","","html-slider-response","97","442451","0.0-89.0","NaN","58","","<div style=""width:500px;"">
                            <p style=""font-size:50px; font-weight:bold;""
                            >serious</p>
                            <div style=""width:240px; margin: auto;"">
                                <img src=""images/gray_h183_v676.png"" alt=""img"">
                            </div>
                        </div>","0","images/gray_h183_v676.png","","serious","",""
"","","","","","html-slider-response","98","445518","0.0-90.0","NaN","91","","<div style=""width:500px;"">
                            <p style=""font-size:50px; font-weight:bold;""
                            >serious</p>
                            <div style=""width:240px; margin: auto;"">
                                <img src=""images/gray_h146_v601.png"" alt=""img"">
                            </div>
                        </div>","0","images/gray_h146_v601.png","","serious","",""
"","","","","","html-slider-response","99","450598","0.0-91.0","NaN","-136","","<div style=""width:500px;"">
                            <p style=""font-size:50px; font-weight:bold;""
                            >serious</p>
                            <div style=""width:240px; margin: auto;"">
                                <img src=""images/gray_h146_v600.png"" alt=""img"">
                            </div>
                        </div>","0","images/gray_h146_v600.png","","serious","",""
"","","","","","html-slider-response","100","453774","0.0-92.0","NaN","-42","","<div style=""width:500px;"">
                            <p style=""font-size:50px; font-weight:bold;""
                            >serious</p>
                            <div style=""width:240px; margin: auto;"">
                                <img src=""images/gray_h200_v276.png"" alt=""img"">
                            </div>
                        </div>","0","images/gray_h200_v276.png","","serious","",""
"","","","","","html-slider-response","101","456888","0.0-93.0","NaN","-134","","<div style=""width:500px;"">
                            <p style=""font-size:50px; font-weight:bold;""
                            >serious</p>
                            <div style=""width:240px; margin: auto;"">
                                <img src=""images/gray_h223_v317.png"" alt=""img"">
                            </div>
                        </div>","0","images/gray_h223_v317.png","","serious","",""
"","","","","","html-slider-response","102","461038","0.0-94.0","NaN","81","","<div style=""width:500px;"">
                            <p style=""font-size:50px; font-weight:bold;""
                            >serious</p>
                            <div style=""width:240px; margin: auto;"">
                                <img src=""images/gray_h148_v640.png"" alt=""img"">
                            </div>
                        </div>","0","images/gray_h148_v640.png","","serious","",""
"","","","","","html-slider-response","103","463760","0.0-95.0","NaN","-83","","<div style=""width:500px;"">
                            <p style=""font-size:50px; font-weight:bold;""
                            >serious</p>
                            <div style=""width:240px; margin: auto;"">
                                <img src=""images/gray_h205_v484.png"" alt=""img"">
                            </div>
                        </div>","0","images/gray_h205_v484.png","","serious","",""
"","","","","","html-slider-response","104","465901","0.0-96.0","NaN","-81","","<div style=""width:500px;"">
                            <p style=""font-size:50px; font-weight:bold;""
                            >serious</p>
                            <div style=""width:240px; margin: auto;"">
                                <img src=""images/gray_h114_v215.png"" alt=""img"">
                            </div>
                        </div>","0","images/gray_h114_v215.png","","serious","",""
"","","","","","html-slider-response","105","468793","0.0-97.0","NaN","-72","","<div style=""width:500px;"">
                            <p style=""font-size:50px; font-weight:bold;""
                            >serious</p>
                            <div style=""width:240px; margin: auto;"">
                                <img src=""images/gray_h150_v615.png"" alt=""img"">
                            </div>
                        </div>","0","images/gray_h150_v615.png","","serious","",""
"","","","","","html-slider-response","106","471486","0.0-98.0","NaN","-133","","<div style=""width:500px;"">
                            <p style=""font-size:50px; font-weight:bold;""
                            >serious</p>
                            <div style=""width:240px; margin: auto;"">
                                <img src=""images/gray_h205_v494.png"" alt=""img"">
                            </div>
                        </div>","0","images/gray_h205_v494.png","","serious","",""
"","","","","","html-slider-response","107","474848","0.0-99.0","NaN","64","","<div style=""width:500px;"">
                            <p style=""font-size:50px; font-weight:bold;""
                            >serious</p>
                            <div style=""width:240px; margin: auto;"">
                                <img src=""images/gray_h149_v612.png"" alt=""img"">
                            </div>
                        </div>","0","images/gray_h149_v612.png","","serious","",""
"","","","","","html-slider-response","108","478703","0.0-100.0","NaN","121","","<div style=""width:500px;"">
                            <p style=""font-size:50px; font-weight:bold;""
                            >serious</p>
                            <div style=""width:240px; margin: auto;"">
                                <img src=""images/gray_h152_v629.png"" alt=""img"">
                            </div>
                        </div>","0","images/gray_h152_v629.png","","serious","",""
"","","","","","html-slider-response","109","480964","0.0-101.0","NaN","-80","","<div style=""width:500px;"">
                            <p style=""font-size:50px; font-weight:bold;""
                            >serious</p>
                            <div style=""width:240px; margin: auto;"">
                                <img src=""images/gray_h153_v646.png"" alt=""img"">
                            </div>
                        </div>","0","images/gray_h153_v646.png","","serious","",""
"","","","","","html-slider-response","110","485207","0.0-102.0","NaN","99","","<div style=""width:500px;"">
                            <p style=""font-size:50px; font-weight:bold;""
                            >serious</p>
                            <div style=""width:240px; margin: auto;"">
                                <img src=""images/gray_h144_v595.png"" alt=""img"">
                            </div>
                        </div>","0","images/gray_h144_v595.png","","serious","",""
"","","","","","html-slider-response","111","487075","0.0-103.0","NaN","-50","","<div style=""width:500px;"">
                            <p style=""font-size:50px; font-weight:bold;""
                            >serious</p>
                            <div style=""width:240px; margin: auto;"">
                                <img src=""images/gray_h146_v602.png"" alt=""img"">
                            </div>
                        </div>","0","images/gray_h146_v602.png","","serious","",""
"","","","","","html-slider-response","112","490416","0.0-104.0","NaN","-75","","<div style=""width:500px;"">
                            <p style=""font-size:50px; font-weight:bold;""
                            >serious</p>
                            <div style=""width:240px; margin: auto;"">
                                <img src=""images/gray_h246_v290.png"" alt=""img"">
                            </div>
                        </div>","0","images/gray_h246_v290.png","","serious","",""
"","","","","","html-slider-response","113","492698","0.0-105.0","NaN","-42","","<div style=""width:500px;"">
                            <p style=""font-size:50px; font-weight:bold;""
                            >serious</p>
                            <div style=""width:240px; margin: auto;"">
                                <img src=""images/gray_h150_v613.png"" alt=""img"">
                            </div>
                        </div>","0","images/gray_h150_v613.png","","serious","",""
"","","","","","html-slider-response","114","495333","0.0-106.0","NaN","83","","<div style=""width:500px;"">
                            <p style=""font-size:50px; font-weight:bold;""
                            >serious</p>
                            <div style=""width:240px; margin: auto;"">
                                <img src=""images/gray_h167_v644.png"" alt=""img"">
                            </div>
                        </div>","0","images/gray_h167_v644.png","","serious","",""
"","","","","","html-slider-response","115","497641","0.0-107.0","NaN","-80","","<div style=""width:500px;"">
                            <p style=""font-size:50px; font-weight:bold;""
                            >serious</p>
                            <div style=""width:240px; margin: auto;"">
                                <img src=""images/gray_h147_v647.png"" alt=""img"">
                            </div>
                        </div>","0","images/gray_h147_v647.png","","serious","",""
"","","","","","html-slider-response","116","504065","0.0-108.0","NaN","-164","","<div style=""width:500px;"">
                            <p style=""font-size:50px; font-weight:bold;""
                            >serious</p>
                            <div style=""width:240px; margin: auto;"">
                                <img src=""images/gray_h206_v494.png"" alt=""img"">
                            </div>
                        </div>","0","images/gray_h206_v494.png","","serious","",""
"","","","","","html-slider-response","117","509713","0.0-109.0","NaN","106","","<div style=""width:500px;"">
                            <p style=""font-size:50px; font-weight:bold;""
                            >serious</p>
                            <div style=""width:240px; margin: auto;"">
                                <img src=""images/gray_h250_v546.png"" alt=""img"">
                            </div>
                        </div>","0","images/gray_h250_v546.png","","serious","",""
"","","","","","html-slider-response","118","511845","0.0-110.0","NaN","41","","<div style=""width:500px;"">
                            <p style=""font-size:50px; font-weight:bold;""
                            >serious</p>
                            <div style=""width:240px; margin: auto;"">
                                <img src=""images/gray_h151_v616.png"" alt=""img"">
                            </div>
                        </div>","0","images/gray_h151_v616.png","","serious","",""
"","","","","","html-slider-response","119","514246","0.0-111.0","NaN","85","","<div style=""width:500px;"">
                            <p style=""font-size:50px; font-weight:bold;""
                            >serious</p>
                            <div style=""width:240px; margin: auto;"">
                                <img src=""images/gray_h151_v619.png"" alt=""img"">
                            </div>
                        </div>","0","images/gray_h151_v619.png","","serious","",""
"","","","","","html-slider-response","120","518469","0.0-112.0","NaN","-38","","<div style=""width:500px;"">
                            <p style=""font-size:50px; font-weight:bold;""
                            >serious</p>
                            <div style=""width:240px; margin: auto;"">
                                <img src=""images/gray_h176_v209.png"" alt=""img"">
                            </div>
                        </div>","0","images/gray_h176_v209.png","","serious","",""
"","","","","","html-slider-response","121","520778","0.0-113.0","NaN","106","","<div style=""width:500px;"">
                            <p style=""font-size:50px; font-weight:bold;""
                            >serious</p>
                            <div style=""width:240px; margin: auto;"">
                                <img src=""images/gray_h209_v481.png"" alt=""img"">
                            </div>
                        </div>","0","images/gray_h209_v481.png","","serious","",""
"","","","","","html-slider-response","122","523177","0.0-114.0","NaN","-149","","<div style=""width:500px;"">
                            <p style=""font-size:50px; font-weight:bold;""
                            >serious</p>
                            <div style=""width:240px; margin: auto;"">
                                <img src=""images/gray_h241_v296.png"" alt=""img"">
                            </div>
                        </div>","0","images/gray_h241_v296.png","","serious","",""
"","","","","","html-slider-response","123","526689","0.0-115.0","NaN","52","","<div style=""width:500px;"">
                            <p style=""font-size:50px; font-weight:bold;""
                            >serious</p>
                            <div style=""width:240px; margin: auto;"">
                                <img src=""images/gray_h157_v677.png"" alt=""img"">
                            </div>
                        </div>","0","images/gray_h157_v677.png","","serious","",""
"","","","","","html-slider-response","124","534404","0.0-116.0","NaN","75","","<div style=""width:500px;"">
                            <p style=""font-size:50px; font-weight:bold;""
                            >serious</p>
                            <div style=""width:240px; margin: auto;"">
                                <img src=""images/gray_h147_v603.png"" alt=""img"">
                            </div>
                        </div>","0","images/gray_h147_v603.png","","serious","",""
"","","","","","html-slider-response","125","537494","0.0-117.0","NaN","-129","","<div style=""width:500px;"">
                            <p style=""font-size:50px; font-weight:bold;""
                            >serious</p>
                            <div style=""width:240px; margin: auto;"">
                                <img src=""images/gray_h241_v304.png"" alt=""img"">
                            </div>
                        </div>","0","images/gray_h241_v304.png","","serious","",""
"","","","","","html-button-response","126","539299","0.0-118.0","1304","0","","<p>Great Job! You've finished block 2.<br></br> You have 6 block(s) left to go.<br></br></p>","","","","","",""
"","","","","","html-button-response","127","540256","0.0-119.0","956","0","","<p>In this block of trials, you will be asked to rate how much you associate each map with:</p > <p style = 'font-size:150%; font-weight: bold'>playful</p><br></br>","","","","","",""
"","","","","","html-slider-response","128","542122","0.0-120.0","NaN","185","","<div style=""width:500px;"">
                            <p style=""font-size:50px; font-weight:bold;""
                            >playful</p>
                            <div style=""width:240px; margin: auto;"">
                                <img src=""images/gray_h205_v484.png"" alt=""img"">
                            </div>
                        </div>","0","images/gray_h205_v484.png","","playful","",""
"","","","","","html-slider-response","129","544410","0.0-121.0","NaN","104","","<div style=""width:500px;"">
                            <p style=""font-size:50px; font-weight:bold;""
                            >playful</p>
                            <div style=""width:240px; margin: auto;"">
                                <img src=""images/gray_h200_v276.png"" alt=""img"">
                            </div>
                        </div>","0","images/gray_h200_v276.png","","playful","",""
"","","","","","html-slider-response","130","546631","0.0-122.0","NaN","119","","<div style=""width:500px;"">
                            <p style=""font-size:50px; font-weight:bold;""
                            >playful</p>
                            <div style=""width:240px; margin: auto;"">
                                <img src=""images/gray_h154_v646.png"" alt=""img"">
                            </div>
                        </div>","0","images/gray_h154_v646.png","","playful","",""
"","","","","","html-slider-response","131","549062","0.0-123.0","NaN","112","","<div style=""width:500px;"">
                            <p style=""font-size:50px; font-weight:bold;""
                            >playful</p>
                            <div style=""width:240px; margin: auto;"">
                                <img src=""images/gray_h205_v494.png"" alt=""img"">
                            </div>
                        </div>","0","images/gray_h205_v494.png","","playful","",""
"","","","","","html-slider-response","132","551647","0.0-124.0","NaN","128","","<div style=""width:500px;"">
                            <p style=""font-size:50px; font-weight:bold;""
                            >playful</p>
                            <div style=""width:240px; margin: auto;"">
                                <img src=""images/gray_h223_v317.png"" alt=""img"">
                            </div>
                        </div>","0","images/gray_h223_v317.png","","playful","",""
"","","","","","html-slider-response","133","553949","0.0-125.0","NaN","-99","","<div style=""width:500px;"">
                            <p style=""font-size:50px; font-weight:bold;""
                            >playful</p>
                            <div style=""width:240px; margin: auto;"">
                                <img src=""images/gray_h148_v605.png"" alt=""img"">
                            </div>
                        </div>","0","images/gray_h148_v605.png","","playful","",""
"","","","","","html-slider-response","134","555967","0.0-126.0","NaN","-54","","<div style=""width:500px;"">
                            <p style=""font-size:50px; font-weight:bold;""
                            >playful</p>
                            <div style=""width:240px; margin: auto;"">
                                <img src=""images/gray_h267_v305.png"" alt=""img"">
                            </div>
                        </div>","0","images/gray_h267_v305.png","","playful","",""
"","","","","","html-slider-response","135","560364","0.0-127.0","NaN","-143","","<div style=""width:500px;"">
                            <p style=""font-size:50px; font-weight:bold;""
                            >playful</p>
                            <div style=""width:240px; margin: auto;"">
                                <img src=""images/gray_h146_v601.png"" alt=""img"">
                            </div>
                        </div>","0","images/gray_h146_v601.png","","playful","",""
"","","","","","html-slider-response","136","564182","0.0-128.0","NaN","-78","","<div style=""width:500px;"">
                            <p style=""font-size:50px; font-weight:bold;""
                            >playful</p>
                            <div style=""width:240px; margin: auto;"">
                                <img src=""images/gray_h145_v600.png"" alt=""img"">
                            </div>
                        </div>","0","images/gray_h145_v600.png","","playful","",""
"","","","","","html-slider-response","137","566766","0.0-129.0","NaN","161","","<div style=""width:500px;"">
                            <p style=""font-size:50px; font-weight:bold;""
                            >playful</p>
                            <div style=""width:240px; margin: auto;"">
                                <img src=""images/gray_h239_v499.png"" alt=""img"">
                            </div>
                        </div>","0","images/gray_h239_v499.png","","playful","",""
"","","","","","html-slider-response","138","569803","0.0-130.0","NaN","161","","<div style=""width:500px;"">
                            <p style=""font-size:50px; font-weight:bold;""
                            >playful</p>
                            <div style=""width:240px; margin: auto;"">
                                <img src=""images/gray_h072_v611.png"" alt=""img"">
                            </div>
                        </div>","0","images/gray_h072_v611.png","","playful","",""
"","","","","","html-slider-response","139","576247","0.0-131.0","NaN","82","","<div style=""width:500px;"">
                            <p style=""font-size:50px; font-weight:bold;""
                            >playful</p>
                            <div style=""width:240px; margin: auto;"">
                                <img src=""images/gray_h147_v672.png"" alt=""img"">
                            </div>
                        </div>","0","images/gray_h147_v672.png","","playful","",""
"","","","","","html-slider-response","140","579403","0.0-132.0","NaN","57","","<div style=""width:500px;"">
                            <p style=""font-size:50px; font-weight:bold;""
                            >playful</p>
                            <div style=""width:240px; margin: auto;"">
                                <img src=""images/gray_h147_v603.png"" alt=""img"">
                            </div>
                        </div>","0","images/gray_h147_v603.png","","playful","",""
"","","","","","html-slider-response","141","582157","0.0-133.0","NaN","-58","","<div style=""width:500px;"">
                            <p style=""font-size:50px; font-weight:bold;""
                            >playful</p>
                            <div style=""width:240px; margin: auto;"">
                                <img src=""images/gray_h183_v676.png"" alt=""img"">
                            </div>
                        </div>","0","images/gray_h183_v676.png","","playful","",""
"","","","","","html-slider-response","142","585136","0.0-134.0","NaN","-109","","<div style=""width:500px;"">
                            <p style=""font-size:50px; font-weight:bold;""
                            >playful</p>
                            <div style=""width:240px; margin: auto;"">
                                <img src=""images/gray_h148_v640.png"" alt=""img"">
                            </div>
                        </div>","0","images/gray_h148_v640.png","","playful","",""
"","","","","","html-slider-response","143","587262","0.0-135.0","NaN","-67","","<div style=""width:500px;"">
                            <p style=""font-size:50px; font-weight:bold;""
                            >playful</p>
                            <div style=""width:240px; margin: auto;"">
                                <img src=""images/gray_h144_v597.png"" alt=""img"">
                            </div>
                        </div>","0","images/gray_h144_v597.png","","playful","",""
"","","","","","html-slider-response","144","591945","0.0-136.0","NaN","58","","<div style=""width:500px;"">
                            <p style=""font-size:50px; font-weight:bold;""
                            >playful</p>
                            <div style=""width:240px; margin: auto;"">
                                <img src=""images/gray_h147_v648.png"" alt=""img"">
                            </div>
                        </div>","0","images/gray_h147_v648.png","","playful","",""
"","","","","","html-slider-response","145","595431","0.0-137.0","NaN","-106","","<div style=""width:500px;"">
                            <p style=""font-size:50px; font-weight:bold;""
                            >playful</p>
                            <div style=""width:240px; margin: auto;"">
                                <img src=""images/gray_h143_v595.png"" alt=""img"">
                            </div>
                        </div>","0","images/gray_h143_v595.png","","playful","",""
"","","","","","html-slider-response","146","598227","0.0-138.0","NaN","-163","","<div style=""width:500px;"">
                            <p style=""font-size:50px; font-weight:bold;""
                            >playful</p>
                            <div style=""width:240px; margin: auto;"">
                                <img src=""images/gray_h159_v655.png"" alt=""img"">
                            </div>
                        </div>","0","images/gray_h159_v655.png","","playful","",""
"","","","","","html-slider-response","147","600772","0.0-139.0","NaN","162","","<div style=""width:500px;"">
                            <p style=""font-size:50px; font-weight:bold;""
                            >playful</p>
                            <div style=""width:240px; margin: auto;"">
                                <img src=""images/gray_h206_v494.png"" alt=""img"">
                            </div>
                        </div>","0","images/gray_h206_v494.png","","playful","",""
"","","","","","html-slider-response","148","603104","0.0-140.0","NaN","-33","","<div style=""width:500px;"">
                            <p style=""font-size:50px; font-weight:bold;""
                            >playful</p>
                            <div style=""width:240px; margin: auto;"">
                                <img src=""images/gray_h151_v619.png"" alt=""img"">
                            </div>
                        </div>","0","images/gray_h151_v619.png","","playful","",""
"","","","","","html-slider-response","149","606425","0.0-141.0","NaN","-102","","<div style=""width:500px;"">
                            <p style=""font-size:50px; font-weight:bold;""
                            >playful</p>
                            <div style=""width:240px; margin: auto;"">
                                <img src=""images/gray_h266_v305.png"" alt=""img"">
                            </div>
                        </div>","0","images/gray_h266_v305.png","","playful","",""
"","","","","","html-slider-response","150","608872","0.0-142.0","NaN","81","","<div style=""width:500px;"">
                            <p style=""font-size:50px; font-weight:bold;""
                            >playful</p>
                            <div style=""width:240px; margin: auto;"">
                                <img src=""images/gray_h246_v290.png"" alt=""img"">
                            </div>
                        </div>","0","images/gray_h246_v290.png","","playful","",""
"","","","","","html-slider-response","151","611331","0.0-143.0","NaN","124","","<div style=""width:500px;"">
                            <p style=""font-size:50px; font-weight:bold;""
                            >playful</p>
                            <div style=""width:240px; margin: auto;"">
                                <img src=""images/gray_h241_v304.png"" alt=""img"">
                            </div>
                        </div>","0","images/gray_h241_v304.png","","playful","",""
"","","","","","html-slider-response","152","615577","0.0-144.0","NaN","-37","","<div style=""width:500px;"">
                            <p style=""font-size:50px; font-weight:bold;""
                            >playful</p>
                            <div style=""width:240px; margin: auto;"">
                                <img src=""images/gray_h155_v647.png"" alt=""img"">
                            </div>
                        </div>","0","images/gray_h155_v647.png","","playful","",""
"","","","","","html-slider-response","153","617857","0.0-145.0","NaN","-102","","<div style=""width:500px;"">
                            <p style=""font-size:50px; font-weight:bold;""
                            >playful</p>
                            <div style=""width:240px; margin: auto;"">
                                <img src=""images/gray_h147_v647.png"" alt=""img"">
                            </div>
                        </div>","0","images/gray_h147_v647.png","","playful","",""
"","","","","","html-slider-response","154","620279","0.0-146.0","NaN","-134","","<div style=""width:500px;"">
                            <p style=""font-size:50px; font-weight:bold;""
                            >playful</p>
                            <div style=""width:240px; margin: auto;"">
                                <img src=""images/gray_h149_v612.png"" alt=""img"">
                            </div>
                        </div>","0","images/gray_h149_v612.png","","playful","",""
"","","","","","html-slider-response","155","622835","0.0-147.0","NaN","-79","","<div style=""width:500px;"">
                            <p style=""font-size:50px; font-weight:bold;""
                            >playful</p>
                            <div style=""width:240px; margin: auto;"">
                                <img src=""images/gray_h151_v618.png"" alt=""img"">
                            </div>
                        </div>","0","images/gray_h151_v618.png","","playful","",""
"","","","","","html-slider-response","156","627188","0.0-148.0","NaN","-83","","<div style=""width:500px;"">
                            <p style=""font-size:50px; font-weight:bold;""
                            >playful</p>
                            <div style=""width:240px; margin: auto;"">
                                <img src=""images/gray_h144_v595.png"" alt=""img"">
                            </div>
                        </div>","0","images/gray_h144_v595.png","","playful","",""
"","","","","","html-slider-response","157","630448","0.0-149.0","NaN","-62","","<div style=""width:500px;"">
                            <p style=""font-size:50px; font-weight:bold;""
                            >playful</p>
                            <div style=""width:240px; margin: auto;"">
                                <img src=""images/gray_h147_v604.png"" alt=""img"">
                            </div>
                        </div>","0","images/gray_h147_v604.png","","playful","",""
"","","","","","html-slider-response","158","632421","0.0-150.0","NaN","98","","<div style=""width:500px;"">
                            <p style=""font-size:50px; font-weight:bold;""
                            >playful</p>
                            <div style=""width:240px; margin: auto;"">
                                <img src=""images/gray_h116_v508.png"" alt=""img"">
                            </div>
                        </div>","0","images/gray_h116_v508.png","","playful","",""
"","","","","","html-slider-response","159","634298","0.0-151.0","NaN","93","","<div style=""width:500px;"">
                            <p style=""font-size:50px; font-weight:bold;""
                            >playful</p>
                            <div style=""width:240px; margin: auto;"">
                                <img src=""images/gray_h157_v677.png"" alt=""img"">
                            </div>
                        </div>","0","images/gray_h157_v677.png","","playful","",""
"","","","","","html-slider-response","160","636657","0.0-152.0","NaN","-42","","<div style=""width:500px;"">
                            <p style=""font-size:50px; font-weight:bold;""
                            >playful</p>
                            <div style=""width:240px; margin: auto;"">
                                <img src=""images/gray_h151_v616.png"" alt=""img"">
                            </div>
                        </div>","0","images/gray_h151_v616.png","","playful","",""
"","","","","","html-slider-response","161","642008","0.0-153.0","NaN","21","","<div style=""width:500px;"">
                            <p style=""font-size:50px; font-weight:bold;""
                            >playful</p>
                            <div style=""width:240px; margin: auto;"">
                                <img src=""images/gray_h143_v594.png"" alt=""img"">
                            </div>
                        </div>","0","images/gray_h143_v594.png","","playful","",""
"","","","","","html-slider-response","162","644348","0.0-154.0","NaN","99","","<div style=""width:500px;"">
                            <p style=""font-size:50px; font-weight:bold;""
                            >playful</p>
                            <div style=""width:240px; margin: auto;"">
                                <img src=""images/gray_h209_v481.png"" alt=""img"">
                            </div>
                        </div>","0","images/gray_h209_v481.png","","playful","",""
"","","","","","html-slider-response","163","646804","0.0-155.0","NaN","-111","","<div style=""width:500px;"">
                            <p style=""font-size:50px; font-weight:bold;""
                            >playful</p>
                            <div style=""width:240px; margin: auto;"">
                                <img src=""images/gray_h150_v615.png"" alt=""img"">
                            </div>
                        </div>","0","images/gray_h150_v615.png","","playful","",""
"","","","","","html-slider-response","164","648780","0.0-156.0","NaN","138","","<div style=""width:500px;"">
                            <p style=""font-size:50px; font-weight:bold;""
                            >playful</p>
                            <div style=""width:240px; margin: auto;"">
                                <img src=""images/gray_h181_v683.png"" alt=""img"">
                            </div>
                        </div>","0","images/gray_h181_v683.png","","playful","",""
"","","","","","html-slider-response","165","650922","0.0-157.0","NaN","131","","<div style=""width:500px;"">
                            <p style=""font-size:50px; font-weight:bold;""
                            >playful</p>
                            <div style=""width:240px; margin: auto;"">
                                <img src=""images/gray_h114_v215.png"" alt=""img"">
                            </div>
                        </div>","0","images/gray_h114_v215.png","","playful","",""
"","","","","","html-slider-response","166","652978","0.0-158.0","NaN","141","","<div style=""width:500px;"">
                            <p style=""font-size:50px; font-weight:bold;""
                            >playful</p>
                            <div style=""width:240px; margin: auto;"">
                                <img src=""images/gray_h206_v476.png"" alt=""img"">
                            </div>
                        </div>","0","images/gray_h206_v476.png","","playful","",""
"","","","","","html-slider-response","167","655610","0.0-159.0","NaN","53","","<div style=""width:500px;"">
                            <p style=""font-size:50px; font-weight:bold;""
                            >playful</p>
                            <div style=""width:240px; margin: auto;"">
                                <img src=""images/gray_h207_v480.png"" alt=""img"">
                            </div>
                        </div>","0","images/gray_h207_v480.png","","playful","",""
"","","","","","html-slider-response","168","658101","0.0-160.0","NaN","114","","<div style=""width:500px;"">
                            <p style=""font-size:50px; font-weight:bold;""
                            >playful</p>
                            <div style=""width:240px; margin: auto;"">
                                <img src=""images/gray_h203_v486.png"" alt=""img"">
                            </div>
                        </div>","0","images/gray_h203_v486.png","","playful","",""
"","","","","","html-slider-response","169","661942","0.0-161.0","NaN","-29","","<div style=""width:500px;"">
                            <p style=""font-size:50px; font-weight:bold;""
                            >playful</p>
                            <div style=""width:240px; margin: auto;"">
                                <img src=""images/gray_h250_v546.png"" alt=""img"">
                            </div>
                        </div>","0","images/gray_h250_v546.png","","playful","",""
"","","","","","html-slider-response","170","663937","0.0-162.0","NaN","-18","","<div style=""width:500px;"">
                            <p style=""font-size:50px; font-weight:bold;""
                            >playful</p>
                            <div style=""width:240px; margin: auto;"">
                                <img src=""images/gray_h153_v646.png"" alt=""img"">
                            </div>
                        </div>","0","images/gray_h153_v646.png","","playful","",""
"","","","","","html-slider-response","171","667113","0.0-163.0","NaN","-60","","<div style=""width:500px;"">
                            <p style=""font-size:50px; font-weight:bold;""
                            >playful</p>
                            <div style=""width:240px; margin: auto;"">
                                <img src=""images/gray_h167_v644.png"" alt=""img"">
                            </div>
                        </div>","0","images/gray_h167_v644.png","","playful","",""
"","","","","","html-slider-response","172","669517","0.0-164.0","NaN","60","","<div style=""width:500px;"">
                            <p style=""font-size:50px; font-weight:bold;""
                            >playful</p>
                            <div style=""width:240px; margin: auto;"">
                                <img src=""images/gray_h241_v296.png"" alt=""img"">
                            </div>
                        </div>","0","images/gray_h241_v296.png","","playful","",""
"","","","","","html-slider-response","173","672271","0.0-165.0","NaN","-78","","<div style=""width:500px;"">
                            <p style=""font-size:50px; font-weight:bold;""
                            >playful</p>
                            <div style=""width:240px; margin: auto;"">
                                <img src=""images/gray_h176_v209.png"" alt=""img"">
                            </div>
                        </div>","0","images/gray_h176_v209.png","","playful","",""
"","","","","","html-slider-response","174","675510","0.0-166.0","NaN","62","","<div style=""width:500px;"">
                            <p style=""font-size:50px; font-weight:bold;""
                            >playful</p>
                            <div style=""width:240px; margin: auto;"">
                                <img src=""images/gray_h176_v214.png"" alt=""img"">
                            </div>
                        </div>","0","images/gray_h176_v214.png","","playful","",""
"","","","","","html-slider-response","175","677866","0.0-167.0","NaN","106","","<div style=""width:500px;"">
                            <p style=""font-size:50px; font-weight:bold;""
                            >playful</p>
                            <div style=""width:240px; margin: auto;"">
                                <img src=""images/gray_h178_v226.png"" alt=""img"">
                            </div>
                        </div>","0","images/gray_h178_v226.png","","playful","",""
"","","","","","html-slider-response","176","679806","0.0-168.0","NaN","-26","","<div style=""width:500px;"">
                            <p style=""font-size:50px; font-weight:bold;""
                            >playful</p>
                            <div style=""width:240px; margin: auto;"">
                                <img src=""images/gray_h148_v607.png"" alt=""img"">
                            </div>
                        </div>","0","images/gray_h148_v607.png","","playful","",""
"","","","","","html-slider-response","177","682753","0.0-169.0","NaN","-91","","<div style=""width:500px;"">
                            <p style=""font-size:50px; font-weight:bold;""
                            >playful</p>
                            <div style=""width:240px; margin: auto;"">
                                <img src=""images/gray_h146_v600.png"" alt=""img"">
                            </div>
                        </div>","0","images/gray_h146_v600.png","","playful","",""
"","","","","","html-slider-response","178","687773","0.0-170.0","NaN","-17","","<div style=""width:500px;"">
                            <p style=""font-size:50px; font-weight:bold;""
                            >playful</p>
                            <div style=""width:240px; margin: auto;"">
                                <img src=""images/gray_h146_v602.png"" alt=""img"">
                            </div>
                        </div>","0","images/gray_h146_v602.png","","playful","",""
"","","","","","html-slider-response","179","691130","0.0-171.0","NaN","55","","<div style=""width:500px;"">
                            <p style=""font-size:50px; font-weight:bold;""
                            >playful</p>
                            <div style=""width:240px; margin: auto;"">
                                <img src=""images/gray_h150_v613.png"" alt=""img"">
                            </div>
                        </div>","0","images/gray_h150_v613.png","","playful","",""
"","","","","","html-slider-response","180","693428","0.0-172.0","NaN","-46","","<div style=""width:500px;"">
                            <p style=""font-size:50px; font-weight:bold;""
                            >playful</p>
                            <div style=""width:240px; margin: auto;"">
                                <img src=""images/gray_h152_v629.png"" alt=""img"">
                            </div>
                        </div>","0","images/gray_h152_v629.png","","playful","",""
"","","","","","html-button-response","181","695059","0.0-173.0","1130","0","","<p>Great Job! You've finished block 3.<br></br> You have 5 block(s) left to go.<br></br></p>","","","","","",""
"","","","","","html-button-response","182","696145","0.0-174.0","1085","0","","<p>In this block of trials, you will be asked to rate how much you associate each map with:</p > <p style = 'font-size:150%; font-weight: bold'>trustworthy</p><br></br>","","","","","",""
"","","","","","html-slider-response","183","702425","0.0-175.0","NaN","38","","<div style=""width:500px;"">
                            <p style=""font-size:50px; font-weight:bold;""
                            >trustworthy</p>
                            <div style=""width:240px; margin: auto;"">
                                <img src=""images/gray_h183_v676.png"" alt=""img"">
                            </div>
                        </div>","0","images/gray_h183_v676.png","","trustworthy","",""
"","","","","","html-slider-response","184","704891","0.0-176.0","NaN","-30","","<div style=""width:500px;"">
                            <p style=""font-size:50px; font-weight:bold;""
                            >trustworthy</p>
                            <div style=""width:240px; margin: auto;"">
                                <img src=""images/gray_h145_v600.png"" alt=""img"">
                            </div>
                        </div>","0","images/gray_h145_v600.png","","trustworthy","",""
"","","","","","html-slider-response","185","707705","0.0-177.0","NaN","-135","","<div style=""width:500px;"">
                            <p style=""font-size:50px; font-weight:bold;""
                            >trustworthy</p>
                            <div style=""width:240px; margin: auto;"">
                                <img src=""images/gray_h072_v611.png"" alt=""img"">
                            </div>
                        </div>","0","images/gray_h072_v611.png","","trustworthy","",""
"","","","","","html-slider-response","186","712079","0.0-178.0","NaN","58","","<div style=""width:500px;"">
                            <p style=""font-size:50px; font-weight:bold;""
                            >trustworthy</p>
                            <div style=""width:240px; margin: auto;"">
                                <img src=""images/gray_h147_v604.png"" alt=""img"">
                            </div>
                        </div>","0","images/gray_h147_v604.png","","trustworthy","",""
"","","","","","html-slider-response","187","714676","0.0-179.0","NaN","133","","<div style=""width:500px;"">
                            <p style=""font-size:50px; font-weight:bold;""
                            >trustworthy</p>
                            <div style=""width:240px; margin: auto;"">
                                <img src=""images/gray_h152_v629.png"" alt=""img"">
                            </div>
                        </div>","0","images/gray_h152_v629.png","","trustworthy","",""
"","","","","","html-slider-response","188","717792","0.0-180.0","NaN","71","","<div style=""width:500px;"">
                            <p style=""font-size:50px; font-weight:bold;""
                            >trustworthy</p>
                            <div style=""width:240px; margin: auto;"">
                                <img src=""images/gray_h147_v672.png"" alt=""img"">
                            </div>
                        </div>","0","images/gray_h147_v672.png","","trustworthy","",""
"","","","","","html-slider-response","189","721396","0.0-181.0","NaN","-49","","<div style=""width:500px;"">
                            <p style=""font-size:50px; font-weight:bold;""
                            >trustworthy</p>
                            <div style=""width:240px; margin: auto;"">
                                <img src=""images/gray_h146_v602.png"" alt=""img"">
                            </div>
                        </div>","0","images/gray_h146_v602.png","","trustworthy","",""
"","","","","","html-slider-response","190","724440","0.0-182.0","NaN","-125","","<div style=""width:500px;"">
                            <p style=""font-size:50px; font-weight:bold;""
                            >trustworthy</p>
                            <div style=""width:240px; margin: auto;"">
                                <img src=""images/gray_h241_v296.png"" alt=""img"">
                            </div>
                        </div>","0","images/gray_h241_v296.png","","trustworthy","",""
"","","","","","html-slider-response","191","727379","0.0-183.0","NaN","-62","","<div style=""width:500px;"">
                            <p style=""font-size:50px; font-weight:bold;""
                            >trustworthy</p>
                            <div style=""width:240px; margin: auto;"">
                                <img src=""images/gray_h246_v290.png"" alt=""img"">
                            </div>
                        </div>","0","images/gray_h246_v290.png","","trustworthy","",""
"","","","","","html-slider-response","192","732344","0.0-184.0","NaN","-91","","<div style=""width:500px;"">
                            <p style=""font-size:50px; font-weight:bold;""
                            >trustworthy</p>
                            <div style=""width:240px; margin: auto;"">
                                <img src=""images/gray_h144_v595.png"" alt=""img"">
                            </div>
                        </div>","0","images/gray_h144_v595.png","","trustworthy","",""
"","","","","","html-slider-response","193","736351","0.0-185.0","NaN","37","","<div style=""width:500px;"">
                            <p style=""font-size:50px; font-weight:bold;""
                            >trustworthy</p>
                            <div style=""width:240px; margin: auto;"">
                                <img src=""images/gray_h149_v612.png"" alt=""img"">
                            </div>
                        </div>","0","images/gray_h149_v612.png","","trustworthy","",""
"","","","","","html-slider-response","194","741867","0.0-186.0","NaN","-129","","<div style=""width:500px;"">
                            <p style=""font-size:50px; font-weight:bold;""
                            >trustworthy</p>
                            <div style=""width:240px; margin: auto;"">
                                <img src=""images/gray_h147_v647.png"" alt=""img"">
                            </div>
                        </div>","0","images/gray_h147_v647.png","","trustworthy","",""
"","","","","","html-slider-response","195","746213","0.0-187.0","NaN","37","","<div style=""width:500px;"">
                            <p style=""font-size:50px; font-weight:bold;""
                            >trustworthy</p>
                            <div style=""width:240px; margin: auto;"">
                                <img src=""images/gray_h207_v480.png"" alt=""img"">
                            </div>
                        </div>","0","images/gray_h207_v480.png","","trustworthy","",""
"","","","","","html-slider-response","196","752081","0.0-188.0","NaN","-37","","<div style=""width:500px;"">
                            <p style=""font-size:50px; font-weight:bold;""
                            >trustworthy</p>
                            <div style=""width:240px; margin: auto;"">
                                <img src=""images/gray_h150_v613.png"" alt=""img"">
                            </div>
                        </div>","0","images/gray_h150_v613.png","","trustworthy","",""
"","","","","","html-slider-response","197","755856","0.0-189.0","NaN","52","","<div style=""width:500px;"">
                            <p style=""font-size:50px; font-weight:bold;""
                            >trustworthy</p>
                            <div style=""width:240px; margin: auto;"">
                                <img src=""images/gray_h206_v476.png"" alt=""img"">
                            </div>
                        </div>","0","images/gray_h206_v476.png","","trustworthy","",""
"","","","","","html-slider-response","198","758488","0.0-190.0","NaN","62","","<div style=""width:500px;"">
                            <p style=""font-size:50px; font-weight:bold;""
                            >trustworthy</p>
                            <div style=""width:240px; margin: auto;"">
                                <img src=""images/gray_h266_v305.png"" alt=""img"">
                            </div>
                        </div>","0","images/gray_h266_v305.png","","trustworthy","",""
"","","","","","html-slider-response","199","764451","0.0-191.0","NaN","66","","<div style=""width:500px;"">
                            <p style=""font-size:50px; font-weight:bold;""
                            >trustworthy</p>
                            <div style=""width:240px; margin: auto;"">
                                <img src=""images/gray_h151_v616.png"" alt=""img"">
                            </div>
                        </div>","0","images/gray_h151_v616.png","","trustworthy","",""
"","","","","","html-slider-response","200","766833","0.0-192.0","NaN","-82","","<div style=""width:500px;"">
                            <p style=""font-size:50px; font-weight:bold;""
                            >trustworthy</p>
                            <div style=""width:240px; margin: auto;"">
                                <img src=""images/gray_h150_v615.png"" alt=""img"">
                            </div>
                        </div>","0","images/gray_h150_v615.png","","trustworthy","",""
"","","","","","html-slider-response","201","770935","0.0-193.0","NaN","-130","","<div style=""width:500px;"">
                            <p style=""font-size:50px; font-weight:bold;""
                            >trustworthy</p>
                            <div style=""width:240px; margin: auto;"">
                                <img src=""images/gray_h205_v484.png"" alt=""img"">
                            </div>
                        </div>","0","images/gray_h205_v484.png","","trustworthy","",""
"","","","","","html-slider-response","202","775454","0.0-194.0","NaN","-43","","<div style=""width:500px;"">
                            <p style=""font-size:50px; font-weight:bold;""
                            >trustworthy</p>
                            <div style=""width:240px; margin: auto;"">
                                <img src=""images/gray_h146_v601.png"" alt=""img"">
                            </div>
                        </div>","0","images/gray_h146_v601.png","","trustworthy","",""
"","","","","","html-slider-response","203","778861","0.0-195.0","NaN","-100","","<div style=""width:500px;"">
                            <p style=""font-size:50px; font-weight:bold;""
                            >trustworthy</p>
                            <div style=""width:240px; margin: auto;"">
                                <img src=""images/gray_h155_v647.png"" alt=""img"">
                            </div>
