"success","timeout","failed_images","failed_audio","failed_video","trial_type","trial_index","time_elapsed","internal_node_id","subject_id","rt","stimulus","response","question_order","slider_start","image_path","practiceTrial","practiceTrialNum","correct","concept"
"true","false","[]","[]","[]","preload","0","35","0.0-0.0","vyfz5q5v2p","","","","","","","","","",""
"","","","","","html-button-response","1","4440","0.0-1.0","vyfz5q5v2p","4404","Welcome to our experiment!<p>At the bottom of this screen, you will see a button that says ""Begin Experiment"".<br>Please only click that button when you are ready to complete the 25 minute experiment in one sitting.</p><p> Once you click that button, it will not be possible to restart the experiment.","0","","","","","","",""
"true","","","","","fullscreen","2","6722","0.0-2.0","vyfz5q5v2p","1266","","","","","","","","",""
"","","","","","survey-multi-select","3","11796","0.0-3.0","vyfz5q5v2p","5068","","{""Consent"":[""<strong>I consent</strong>""]}","[0]","","","","","",""
"","","","","","html-button-response","4","15249","0.0-4.0","vyfz5q5v2p","3449","Welcome! <p> This experiment involves two parts: demographic information, followed by the experimental task.<p> It will take about 25 minutes to complete both parts.","0","","","","","","",""
"","","","","","survey-text","5","23172","0.0-5.0","vyfz5q5v2p","7904","","{""Age"":""f"",""Gender"":""f"",""Race/ethnicity"":""f"",""Languages"":""f""}","","","","","","",""
"","","","","","html-slider-response","6","67702","0.0-6.0","vyfz5q5v2p","44532","
            <div style='text-align:left; font-size:20px; line-height:25px; width: 1200px;'>
                During this experiment you will be asked to rate how much you associate maps with    different concepts.<br> Below, you can see some examples of the maps you will be asked to rate. Next to the maps
    is the list of concepts.<br>You will be asked    to rate how much you associate each map with each concept on a scale from 'not at all' to 'very much' like the
    one below. <br><br>
    Now, please look at the list of concepts and maps. For each concept, think about the map you associate 'very
    much' with the concept.<br>     When you see that map during the experiment, please rate it near the 'very much' endpoint of the
    scale.<br>Now, please think about which map you associate 'not at all'     with each concept. When you see that map during the experiment, please rate it near the 'not at all' endpoint
    of the scale.<br>
    Please use the full range of the scale. That is, if a map is somewhat associated with the concept, you would
    click partway between the middle point and right side of the scale.    You will be asked to rate each map for a given concept before moving on to the next concept.<br><br>Press the
    'Continue' button for instructions on how to use the slider.    <br><br>
</div>

<div style=""width: 500px; margin: 0 auto;"">
    <div style=""text-align: left; width: 200px; float: left;"">
        <p style=""font-size:25px; line-height:18px;"">calm</p>
        <p style=""font-size:25px; line-height:18px;"">exciting</p>
        <p style=""font-size:25px;line-height:18px;"">positive</p>
        <p style=""font-size:25px;line-height:18px;"">negative</p>
        <p style=""font-size:25px;line-height:18px;"">serious</p>
        <p style=""font-size:25px;line-height:18px;"">playful</p>
        <p style=""font-size:25px;line-height:18px;"">trustworthy</p>
        <p style=""font-size:25px;line-height:18px;"">disturbing</p>
    </div>
    <div style=""width: 200px; float: right; padding-top:15px; padding-right:40px"">
        <br>
        <br>
        <img src=""maps_anchoring.png"" alt=""img"" style=""max-width:500px"">
    </div>
    <div style=""clear: both;""></div>
</div>
            ","null","","0","maps_anchoring.png","true","","",""
"","","","","","html-button-response","7","94673","0.0-7.0","vyfz5q5v2p","26970","<div style=""width:800px;""><p style=""text-align:left"">To move the slider, click and drag your cursor to the location of the scale where you would like to make your rating and then let go. When you let go of the slider, your response will be recorded and the next trial will begin. <br>
            We are interested in your initial impressions of each map for the given concept, so please go with your first intuition. <br>
            Before you begin the experiment, there will be four training trials for you to practice using the scale. <br>
             When you are ready to start the training trials, please click ""Continue"".</p><br></div>","0","","","","","","",""
"","","","","","html-slider-response","8","98473","0.0-8.0-0.0","vyfz5q5v2p","NaN","<div style=""width:500px;"">
                            <p style=""font-size:25px;"">Please move the slider all the way to the <br> right endpoint of the scale</p>

                            </div>
                        </div>","200","","0","","true","0","true",""
"","","","","","html-button-response","9","99888","0.0-8.0-1.0","vyfz5q5v2p","912","<p align='center'><b>Good job!</b> Click on 'Continue' to proceed.</p>","0","","","","","","",""
"","","","","","html-slider-response","10","103224","0.0-9.0-0.0","vyfz5q5v2p","NaN","<div style=""width:500px;"">
                            <p style=""font-size:25px;"">Please move the slider all the way to the <br> left endpoint of the scale</p>

                            </div>
                        </div>","-110","","0","","true","1","false",""
"","","","","","html-button-response","11","106369","0.0-9.0-1.0","vyfz5q5v2p","2633","<p align='center'><b>Not quite!</b> The slider was not placed near the instructed located. Click on 'Continue' to try again. </p>","0","","","","","","",""
"","","","","","html-slider-response","12","106602","0.0-9.1-0.1","vyfz5q5v2p","NaN","<div style=""width:500px;"">
                            <p style=""font-size:25px;"">Please move the slider all the way to the <br> left endpoint of the scale</p>

                            </div>
                        </div>","0","","0","","true","1","false",""
"","","","","","html-button-response","13","108045","0.0-9.1-1.1","vyfz5q5v2p","937","<p align='center'><b>Not quite!</b> The slider was not placed near the instructed located. Click on 'Continue' to try again. </p>","0","","","","","","",""
"","","","","","html-slider-response","14","110096","0.0-9.2-0.2","vyfz5q5v2p","NaN","<div style=""width:500px;"">
                            <p style=""font-size:25px;"">Please move the slider all the way to the <br> left endpoint of the scale</p>

                            </div>
                        </div>","-200","","0","","true","1","true",""
"","","","","","html-button-response","15","111357","0.0-9.2-1.2","vyfz5q5v2p","758","<p align='center'><b>Good job!</b> Click on 'Continue' to proceed.</p>","0","","","","","","",""
"","","","","","html-slider-response","16","113520","0.0-10.0-0.0","vyfz5q5v2p","NaN","<div style=""width:500px;"">
                            <p style=""font-size:25px;"">Please move the slider halfway between the center and right endpoint of the scale</p>

                            </div>
                        </div>","106","","0","","true","2","true",""
"","","","","","html-button-response","17","114754","0.0-10.0-1.0","vyfz5q5v2p","731","<p align='center'><b>Good job!</b> Click on 'Continue' to proceed.</p>","0","","","","","","",""
"","","","","","html-slider-response","18","116549","0.0-11.0-0.0","vyfz5q5v2p","NaN","<div style=""width:500px;"">
                            <p style=""font-size:25px;"">Please move the slider halfway between the center and left endpoint of the scale</p>

                            </div>
                        </div>","-114","","0","","true","3","false",""
"","","","","","html-button-response","19","119213","0.0-11.0-1.0","vyfz5q5v2p","2159","<p align='center'><b>Not quite!</b> The slider was not placed near the instructed located. Click on 'Continue' to try again. </p>","0","","","","","","",""
"","","","","","html-slider-response","20","121044","0.0-11.1-0.1","vyfz5q5v2p","NaN","<div style=""width:500px;"">
                            <p style=""font-size:25px;"">Please move the slider halfway between the center and left endpoint of the scale</p>

                            </div>
                        </div>","-97","","0","","true","3","true",""
"","","","","","html-button-response","21","122139","0.0-11.1-1.1","vyfz5q5v2p","594","<p align='center'><b>Good job!</b> Click on 'Continue' to proceed.</p>","0","","","","","","",""
"","","","","","html-button-response","22","124168","0.0-12.0","vyfz5q5v2p","2025","<p>Great job! You've completed the practice trials. Now you will begin the main task.</p>","0","","","","","","",""
"","","","","","html-button-response","23","127416","0.0-13.0","vyfz5q5v2p","3247","<p>In this block of trials, you will be asked to rate how much you associate each map with:</p > <p style = 'font-size:150%; font-weight: bold'>serious</p><br></br>","0","","","","","","",""
"","","","","","html-slider-response","24","135440","0.0-14.0","vyfz5q5v2p","NaN","<div style=""width:500px;"">
                            <p style=""font-size:50px; font-weight:bold;""
                            >serious</p>
                            <div style=""width:240px; margin: auto;"">
                                <img src=""images/gray_15.png"" style= ""width:200px""alt=""img"">
                            </div>
                        </div>","104","","0","images/gray_15.png","","","","serious"
"","","","","","html-slider-response","25","138021","0.0-15.0","vyfz5q5v2p","NaN","<div style=""width:500px;"">
                            <p style=""font-size:50px; font-weight:bold;""
                            >serious</p>
                            <div style=""width:240px; margin: auto;"">
                                <img src=""images/gray_36.png"" style= ""width:200px""alt=""img"">
                            </div>
                        </div>","197","","0","images/gray_36.png","","","","serious"
"","","","","","html-slider-response","26","139780","0.0-16.0","vyfz5q5v2p","NaN","<div style=""width:500px;"">
                            <p style=""font-size:50px; font-weight:bold;""
                            >serious</p>
                            <div style=""width:240px; margin: auto;"">
                                <img src=""images/gray_09.png"" style= ""width:200px""alt=""img"">
                            </div>
                        </div>","62","","0","images/gray_09.png","","","","serious"
"","","","","","html-slider-response","27","148205","0.0-17.0","vyfz5q5v2p","NaN","<div style=""width:500px;"">
                            <p style=""font-size:50px; font-weight:bold;""
                            >serious</p>
                            <div style=""width:240px; margin: auto;"">
                                <img src=""images/gray_30.png"" style= ""width:200px""alt=""img"">
                            </div>
                        </div>","113","","0","images/gray_30.png","","","","serious"
"","","","","","html-slider-response","28","150148","0.0-18.0","vyfz5q5v2p","NaN","<div style=""width:500px;"">
                            <p style=""font-size:50px; font-weight:bold;""
                            >serious</p>
                            <div style=""width:240px; margin: auto;"">
                                <img src=""images/gray_23.png"" style= ""width:200px""alt=""img"">
                            </div>
                        </div>","19","","0","images/gray_23.png","","","","serious"
"","","","","","html-slider-response","29","152145","0.0-19.0","vyfz5q5v2p","NaN","<div style=""width:500px;"">
                            <p style=""font-size:50px; font-weight:bold;""
                            >serious</p>
                            <div style=""width:240px; margin: auto;"">
                                <img src=""images/gray_34.png"" style= ""width:200px""alt=""img"">
                            </div>
                        </div>","-39","","0","images/gray_34.png","","","","serious"
"","","","","","html-slider-response","30","153723","0.0-20.0","vyfz5q5v2p","NaN","<div style=""width:500px;"">
                            <p style=""font-size:50px; font-weight:bold;""
                            >serious</p>
                            <div style=""width:240px; margin: auto;"">
                                <img src=""images/gray_21.png"" style= ""width:200px""alt=""img"">
                            </div>
                        </div>","-136","","0","images/gray_21.png","","","","serious"
"","","","","","html-slider-response","31","155834","0.0-21.0","vyfz5q5v2p","NaN","<div style=""width:500px;"">
                            <p style=""font-size:50px; font-weight:bold;""
                            >serious</p>
                            <div style=""width:240px; margin: auto;"">
                                <img src=""images/gray_07.png"" style= ""width:200px""alt=""img"">
                            </div>
                        </div>","-82","","0","images/gray_07.png","","","","serious"
"","","","","","html-slider-response","32","157072","0.0-22.0","vyfz5q5v2p","NaN","<div style=""width:500px;"">
                            <p style=""font-size:50px; font-weight:bold;""
                            >serious</p>
                            <div style=""width:240px; margin: auto;"">
                                <img src=""images/gray_44.png"" style= ""width:200px""alt=""img"">
                            </div>
                        </div>","-74","","0","images/gray_44.png","","","","serious"
"","","","","","html-slider-response","33","158360","0.0-23.0","vyfz5q5v2p","NaN","<div style=""width:500px;"">
                            <p style=""font-size:50px; font-weight:bold;""
                            >serious</p>
                            <div style=""width:240px; margin: auto;"">
                                <img src=""images/gray_16.png"" style= ""width:200px""alt=""img"">
                            </div>
                        </div>","-22","","0","images/gray_16.png","","","","serious"
"","","","","","html-slider-response","34","160609","0.0-24.0","vyfz5q5v2p","NaN","<div style=""width:500px;"">
                            <p style=""font-size:50px; font-weight:bold;""
                            >serious</p>
                            <div style=""width:240px; margin: auto;"">
                                <img src=""images/gray_40.png"" style= ""width:200px""alt=""img"">
                            </div>
                        </div>","-51","","0","images/gray_40.png","","","","serious"
"","","","","","html-slider-response","35","162618","0.0-25.0","vyfz5q5v2p","NaN","<div style=""width:500px;"">
                            <p style=""font-size:50px; font-weight:bold;""
                            >serious</p>
                            <div style=""width:240px; margin: auto;"">
                                <img src=""images/gray_29.png"" style= ""width:200px""alt=""img"">
                            </div>
                        </div>","-138","","0","images/gray_29.png","","","","serious"
"","","","","","html-slider-response","36","163928","0.0-26.0","vyfz5q5v2p","NaN","<div style=""width:500px;"">
                            <p style=""font-size:50px; font-weight:bold;""
                            >serious</p>
                            <div style=""width:240px; margin: auto;"">
                                <img src=""images/gray_33.png"" style= ""width:200px""alt=""img"">
                            </div>
                        </div>","-53","","0","images/gray_33.png","","","","serious"
"","","","","","html-slider-response","37","165224","0.0-27.0","vyfz5q5v2p","NaN","<div style=""width:500px;"">
                            <p style=""font-size:50px; font-weight:bold;""
                            >serious</p>
                            <div style=""width:240px; margin: auto;"">
                                <img src=""images/gray_41.png"" style= ""width:200px""alt=""img"">
                            </div>
                        </div>","-22","","0","images/gray_41.png","","","","serious"
"","","","","","html-slider-response","38","167185","0.0-28.0","vyfz5q5v2p","NaN","<div style=""width:500px;"">
                            <p style=""font-size:50px; font-weight:bold;""
                            >serious</p>
                            <div style=""width:240px; margin: auto;"">
                                <img src=""images/gray_14.png"" style= ""width:200px""alt=""img"">
                            </div>
                        </div>","42","","0","images/gray_14.png","","","","serious"
"","","","","","html-slider-response","39","168656","0.0-29.0","vyfz5q5v2p","NaN","<div style=""width:500px;"">
                            <p style=""font-size:50px; font-weight:bold;""
                            >serious</p>
                            <div style=""width:240px; margin: auto;"">
                                <img src=""images/gray_39.png"" style= ""width:200px""alt=""img"">
                            </div>
                        </div>","38","","0","images/gray_39.png","","","","serious"
"","","","","","html-slider-response","40","170655","0.0-30.0","vyfz5q5v2p","NaN","<div style=""width:500px;"">
                            <p style=""font-size:50px; font-weight:bold;""
                            >serious</p>
                            <div style=""width:240px; margin: auto;"">
                                <img src=""images/gray_22.png"" style= ""width:200px""alt=""img"">
                            </div>
                        </div>","-78","","0","images/gray_22.png","","","","serious"
"","","","","","html-slider-response","41","172953","0.0-31.0","vyfz5q5v2p","NaN","<div style=""width:500px;"">
                            <p style=""font-size:50px; font-weight:bold;""
                            >serious</p>
                            <div style=""width:240px; margin: auto;"">
                                <img src=""images/gray_02.png"" style= ""width:200px""alt=""img"">
                            </div>
                        </div>","-112","","0","images/gray_02.png","","","","serious"
"","","","","","html-slider-response","42","175304","0.0-32.0","vyfz5q5v2p","NaN","<div style=""width:500px;"">
                            <p style=""font-size:50px; font-weight:bold;""
                            >serious</p>
                            <div style=""width:240px; margin: auto;"">
                                <img src=""images/gray_43.png"" style= ""width:200px""alt=""img"">
                            </div>
                        </div>","-38","","0","images/gray_43.png","","","","serious"
"","","","","","html-slider-response","43","177372","0.0-33.0","vyfz5q5v2p","NaN","<div style=""width:500px;"">
                            <p style=""font-size:50px; font-weight:bold;""
                            >serious</p>
                            <div style=""width:240px; margin: auto;"">
                                <img src=""images/gray_32.png"" style= ""width:200px""alt=""img"">
                            </div>
                        </div>","-83","","0","images/gray_32.png","","","","serious"
"","","","","","html-slider-response","44","179820","0.0-34.0","vyfz5q5v2p","NaN","<div style=""width:500px;"">
                            <p style=""font-size:50px; font-weight:bold;""
                            >serious</p>
                            <div style=""width:240px; margin: auto;"">
                                <img src=""images/gray_24.png"" style= ""width:200px""alt=""img"">
                            </div>
                        </div>","-113","","0","images/gray_24.png","","","","serious"
"","","","","","html-slider-response","45","183224","0.0-35.0","vyfz5q5v2p","NaN","<div style=""width:500px;"">
                            <p style=""font-size:50px; font-weight:bold;""
                            >serious</p>
                            <div style=""width:240px; margin: auto;"">
                                <img src=""images/gray_31.png"" style= ""width:200px""alt=""img"">
                            </div>
                        </div>","-189","","0","images/gray_31.png","","","","serious"
"","","","","","html-slider-response","46","184748","0.0-36.0","vyfz5q5v2p","NaN","<div style=""width:500px;"">
                            <p style=""font-size:50px; font-weight:bold;""
                            >serious</p>
                            <div style=""width:240px; margin: auto;"">
                                <img src=""images/gray_37.png"" style= ""width:200px""alt=""img"">
                            </div>
                        </div>","-26","","0","images/gray_37.png","","","","serious"
"","","","","","html-slider-response","47","186943","0.0-37.0","vyfz5q5v2p","NaN","<div style=""width:500px;"">
                            <p style=""font-size:50px; font-weight:bold;""
                            >serious</p>
                            <div style=""width:240px; margin: auto;"">
                                <img src=""images/gray_19.png"" style= ""width:200px""alt=""img"">
                            </div>
                        </div>","-75","","0","images/gray_19.png","","","","serious"
"","","","","","html-slider-response","48","189370","0.0-38.0","vyfz5q5v2p","NaN","<div style=""width:500px;"">
                            <p style=""font-size:50px; font-weight:bold;""
                            >serious</p>
                            <div style=""width:240px; margin: auto;"">
                                <img src=""images/gray_42.png"" style= ""width:200px""alt=""img"">
                            </div>
                        </div>","-122","","0","images/gray_42.png","","","","serious"
"","","","","","html-slider-response","49","191560","0.0-39.0","vyfz5q5v2p","NaN","<div style=""width:500px;"">
                            <p style=""font-size:50px; font-weight:bold;""
                            >serious</p>
                            <div style=""width:240px; margin: auto;"">
                                <img src=""images/gray_17.png"" style= ""width:200px""alt=""img"">
                            </div>
                        </div>","26","","0","images/gray_17.png","","","","serious"
"","","","","","html-slider-response","50","193397","0.0-40.0","vyfz5q5v2p","NaN","<div style=""width:500px;"">
                            <p style=""font-size:50px; font-weight:bold;""
                            >serious</p>
                            <div style=""width:240px; margin: auto;"">
                                <img src=""images/gray_03.png"" style= ""width:200px""alt=""img"">
                            </div>
                        </div>","20","","0","images/gray_03.png","","","","serious"
"","","","","","html-slider-response","51","195046","0.0-41.0","vyfz5q5v2p","NaN","<div style=""width:500px;"">
                            <p style=""font-size:50px; font-weight:bold;""
                            >serious</p>
                            <div style=""width:240px; margin: auto;"">
                                <img src=""images/gray_26.png"" style= ""width:200px""alt=""img"">
                            </div>
                        </div>","59","","0","images/gray_26.png","","","","serious"
"","","","","","html-slider-response","52","196776","0.0-42.0","vyfz5q5v2p","NaN","<div style=""width:500px;"">
                            <p style=""font-size:50px; font-weight:bold;""
                            >serious</p>
                            <div style=""width:240px; margin: auto;"">
                                <img src=""images/gray_38.png"" style= ""width:200px""alt=""img"">
                            </div>
                        </div>","-113","","0","images/gray_38.png","","","","serious"
"","","","","","html-slider-response","53","198609","0.0-43.0","vyfz5q5v2p","NaN","<div style=""width:500px;"">
                            <p style=""font-size:50px; font-weight:bold;""
                            >serious</p>
                            <div style=""width:240px; margin: auto;"">
                                <img src=""images/gray_20.png"" style= ""width:200px""alt=""img"">
                            </div>
                        </div>","-41","","0","images/gray_20.png","","","","serious"
"","","","","","html-slider-response","54","199638","0.0-44.0","vyfz5q5v2p","NaN","<div style=""width:500px;"">
                            <p style=""font-size:50px; font-weight:bold;""
                            >serious</p>
                            <div style=""width:240px; margin: auto;"">
                                <img src=""images/gray_18.png"" style= ""width:200px""alt=""img"">
                            </div>
                        </div>","-41","","0","images/gray_18.png","","","","serious"
"","","","","","html-slider-response","55","200895","0.0-45.0","vyfz5q5v2p","NaN","<div style=""width:500px;"">
                            <p style=""font-size:50px; font-weight:bold;""
                            >serious</p>
                            <div style=""width:240px; margin: auto;"">
                                <img src=""images/gray_04.png"" style= ""width:200px""alt=""img"">
                            </div>
                        </div>","-41","","0","images/gray_04.png","","","","serious"
"","","","","","html-slider-response","56","202694","0.0-46.0","vyfz5q5v2p","NaN","<div style=""width:500px;"">
                            <p style=""font-size:50px; font-weight:bold;""
                            >serious</p>
                            <div style=""width:240px; margin: auto;"">
                                <img src=""images/gray_10.png"" style= ""width:200px""alt=""img"">
                            </div>
                        </div>","26","","0","images/gray_10.png","","","","serious"
"","","","","","html-slider-response","57","204922","0.0-47.0","vyfz5q5v2p","NaN","<div style=""width:500px;"">
                            <p style=""font-size:50px; font-weight:bold;""
                            >serious</p>
                            <div style=""width:240px; margin: auto;"">
                                <img src=""images/gray_35.png"" style= ""width:200px""alt=""img"">
                            </div>
                        </div>","198","","0","images/gray_35.png","","","","serious"
"","","","","","html-slider-response","58","206891","0.0-48.0","vyfz5q5v2p","NaN","<div style=""width:500px;"">
                            <p style=""font-size:50px; font-weight:bold;""
                            >serious</p>
                            <div style=""width:240px; margin: auto;"">
                                <img src=""images/gray_01.png"" style= ""width:200px""alt=""img"">
                            </div>
                        </div>","65","","0","images/gray_01.png","","","","serious"
"","","","","","html-slider-response","59","208753","0.0-49.0","vyfz5q5v2p","NaN","<div style=""width:500px;"">
                            <p style=""font-size:50px; font-weight:bold;""
                            >serious</p>
                            <div style=""width:240px; margin: auto;"">
                                <img src=""images/gray_06.png"" style= ""width:200px""alt=""img"">
                            </div>
                        </div>","-66","","0","images/gray_06.png","","","","serious"
"","","","","","html-slider-response","60","210545","0.0-50.0","vyfz5q5v2p","NaN","<div style=""width:500px;"">
                            <p style=""font-size:50px; font-weight:bold;""
                            >serious</p>
                            <div style=""width:240px; margin: auto;"">
                                <img src=""images/gray_11.png"" style= ""width:200px""alt=""img"">
                            </div>
                        </div>","-147","","0","images/gray_11.png","","","","serious"
"","","","","","html-slider-response","61","212693","0.0-51.0","vyfz5q5v2p","NaN","<div style=""width:500px;"">
                            <p style=""font-size:50px; font-weight:bold;""
                            >serious</p>
                            <div style=""width:240px; margin: auto;"">
                                <img src=""images/gray_25.png"" style= ""width:200px""alt=""img"">
                            </div>
                        </div>","-30","","0","images/gray_25.png","","","","serious"
"","","","","","html-slider-response","62","214136","0.0-52.0","vyfz5q5v2p","NaN","<div style=""width:500px;"">
                            <p style=""font-size:50px; font-weight:bold;""
                            >serious</p>
                            <div style=""width:240px; margin: auto;"">
                                <img src=""images/gray_12.png"" style= ""width:200px""alt=""img"">
                            </div>
                        </div>","-30","","0","images/gray_12.png","","","","serious"
"","","","","","html-slider-response","63","215691","0.0-53.0","vyfz5q5v2p","NaN","<div style=""width:500px;"">
                            <p style=""font-size:50px; font-weight:bold;""
                            >serious</p>
                            <div style=""width:240px; margin: auto;"">
                                <img src=""images/gray_27.png"" style= ""width:200px""alt=""img"">
                            </div>
                        </div>","62","","0","images/gray_27.png","","","","serious"
"","","","","","html-slider-response","64","216797","0.0-54.0","vyfz5q5v2p","NaN","<div style=""width:500px;"">
                            <p style=""font-size:50px; font-weight:bold;""
                            >serious</p>
                            <div style=""width:240px; margin: auto;"">
                                <img src=""images/gray_13.png"" style= ""width:200px""alt=""img"">
                            </div>
                        </div>","62","","0","images/gray_13.png","","","","serious"
"","","","","","html-slider-response","65","219827","0.0-55.0","vyfz5q5v2p","NaN","<div style=""width:500px;"">
                            <p style=""font-size:50px; font-weight:bold;""
                            >serious</p>
                            <div style=""width:240px; margin: auto;"">
                                <img src=""images/gray_05.png"" style= ""width:200px""alt=""img"">
                            </div>
                        </div>","77","","0","images/gray_05.png","","","","serious"
"","","","","","html-slider-response","66","220692","0.0-56.0","vyfz5q5v2p","NaN","<div style=""width:500px;"">
                            <p style=""font-size:50px; font-weight:bold;""
                            >serious</p>
                            <div style=""width:240px; margin: auto;"">
                                <img src=""images/gray_28.png"" style= ""width:200px""alt=""img"">
                            </div>
                        </div>","77","","0","images/gray_28.png","","","","serious"
"","","","","","html-slider-response","67","221700","0.0-57.0","vyfz5q5v2p","NaN","<div style=""width:500px;"">
                            <p style=""font-size:50px; font-weight:bold;""
                            >serious</p>
                            <div style=""width:240px; margin: auto;"">
                                <img src=""images/gray_08.png"" style= ""width:200px""alt=""img"">
                            </div>
                        </div>","77","","0","images/gray_08.png","","","","serious"
"","","","","","html-button-response","68","223524","0.0-58.0","vyfz5q5v2p","1309","<p>Great Job! You've finished block 1.<br></br> You have 7 block(s) left to go.<br></br></p>","0","","","","","","",""
"","","","","","html-button-response","69","225192","0.0-59.0","vyfz5q5v2p","1667","<p>In this block of trials, you will be asked to rate how much you associate each map with:</p > <p style = 'font-size:150%; font-weight: bold'>disturbing</p><br></br>","0","","","","","","",""
"","","","","","html-slider-response","70","227139","0.0-60.0","vyfz5q5v2p","NaN","<div style=""width:500px;"">
                            <p style=""font-size:50px; font-weight:bold;""
                            >disturbing</p>
                            <div style=""width:240px; margin: auto;"">
                                <img src=""images/gray_29.png"" style= ""width:200px""alt=""img"">
                            </div>
                        </div>","-80","","0","images/gray_29.png","","","","disturbing"
"","","","","","html-slider-response","71","228392","0.0-61.0","vyfz5q5v2p","NaN","<div style=""width:500px;"">
                            <p style=""font-size:50px; font-weight:bold;""
                            >disturbing</p>
                            <div style=""width:240px; margin: auto;"">
                                <img src=""images/gray_21.png"" style= ""width:200px""alt=""img"">
                            </div>
                        </div>","-86","","0","images/gray_21.png","","","","disturbing"
"","","","","","html-slider-response","72","230271","0.0-62.0","vyfz5q5v2p","NaN","<div style=""width:500px;"">
                            <p style=""font-size:50px; font-weight:bold;""
                            >disturbing</p>
                            <div style=""width:240px; margin: auto;"">
                                <img src=""images/gray_35.png"" style= ""width:200px""alt=""img"">
                            </div>
                        </div>","-96","","0","images/gray_35.png","","","","disturbing"
"","","","","","html-slider-response","73","232181","0.0-63.0","vyfz5q5v2p","NaN","<div style=""width:500px;"">
                            <p style=""font-size:50px; font-weight:bold;""
                            >disturbing</p>
                            <div style=""width:240px; margin: auto;"">
                                <img src=""images/gray_18.png"" style= ""width:200px""alt=""img"">
                            </div>
                        </div>","-96","","0","images/gray_18.png","","","","disturbing"
"","","","","","html-slider-response","74","233969","0.0-64.0","vyfz5q5v2p","NaN","<div style=""width:500px;"">
                            <p style=""font-size:50px; font-weight:bold;""
                            >disturbing</p>
                            <div style=""width:240px; margin: auto;"">
                                <img src=""images/gray_34.png"" style= ""width:200px""alt=""img"">
                            </div>
                        </div>","-138","","0","images/gray_34.png","","","","disturbing"
"","","","","","html-slider-response","75","235248","0.0-65.0","vyfz5q5v2p","NaN","<div style=""width:500px;"">
                            <p style=""font-size:50px; font-weight:bold;""
                            >disturbing</p>
                            <div style=""width:240px; margin: auto;"">
                                <img src=""images/gray_41.png"" style= ""width:200px""alt=""img"">
                            </div>
                        </div>","-109","","0","images/gray_41.png","","","","disturbing"
"","","","","","html-slider-response","76","236316","0.0-66.0","vyfz5q5v2p","NaN","<div style=""width:500px;"">
                            <p style=""font-size:50px; font-weight:bold;""
                            >disturbing</p>
                            <div style=""width:240px; margin: auto;"">
                                <img src=""images/gray_06.png"" style= ""width:200px""alt=""img"">
                            </div>
                        </div>","-109","","0","images/gray_06.png","","","","disturbing"
"","","","","","html-slider-response","77","237331","0.0-67.0","vyfz5q5v2p","NaN","<div style=""width:500px;"">
                            <p style=""font-size:50px; font-weight:bold;""
                            >disturbing</p>
                            <div style=""width:240px; margin: auto;"">
                                <img src=""images/gray_26.png"" style= ""width:200px""alt=""img"">
                            </div>
                        </div>","-55","","0","images/gray_26.png","","","","disturbing"
"","","","","","html-slider-response","78","238641","0.0-68.0","vyfz5q5v2p","NaN","<div style=""width:500px;"">
                            <p style=""font-size:50px; font-weight:bold;""
                            >disturbing</p>
                            <div style=""width:240px; margin: auto;"">
                                <img src=""images/gray_17.png"" style= ""width:200px""alt=""img"">
                            </div>
                        </div>","38","","0","images/gray_17.png","","","","disturbing"
"","","","","","html-slider-response","79","239496","0.0-69.0","vyfz5q5v2p","NaN","<div style=""width:500px;"">
                            <p style=""font-size:50px; font-weight:bold;""
                            >disturbing</p>
                            <div style=""width:240px; margin: auto;"">
                                <img src=""images/gray_05.png"" style= ""width:200px""alt=""img"">
                            </div>
                        </div>","48","","0","images/gray_05.png","","","","disturbing"
"","","","","","html-slider-response","80","240648","0.0-70.0","vyfz5q5v2p","NaN","<div style=""width:500px;"">
                            <p style=""font-size:50px; font-weight:bold;""
                            >disturbing</p>
                            <div style=""width:240px; margin: auto;"">
                                <img src=""images/gray_25.png"" style= ""width:200px""alt=""img"">
                            </div>
                        </div>","65","","0","images/gray_25.png","","","","disturbing"
"","","","","","html-slider-response","81","241487","0.0-71.0","vyfz5q5v2p","NaN","<div style=""width:500px;"">
                            <p style=""font-size:50px; font-weight:bold;""
                            >disturbing</p>
                            <div style=""width:240px; margin: auto;"">
                                <img src=""images/gray_33.png"" style= ""width:200px""alt=""img"">
                            </div>
                        </div>","88","","0","images/gray_33.png","","","","disturbing"
"","","","","","html-slider-response","82","242456","0.0-72.0","vyfz5q5v2p","NaN","<div style=""width:500px;"">
                            <p style=""font-size:50px; font-weight:bold;""
                            >disturbing</p>
                            <div style=""width:240px; margin: auto;"">
                                <img src=""images/gray_13.png"" style= ""width:200px""alt=""img"">
                            </div>
                        </div>","102","","0","images/gray_13.png","","","","disturbing"
"","","","","","html-slider-response","83","243319","0.0-73.0","vyfz5q5v2p","NaN","<div style=""width:500px;"">
                            <p style=""font-size:50px; font-weight:bold;""
                            >disturbing</p>
                            <div style=""width:240px; margin: auto;"">
                                <img src=""images/gray_23.png"" style= ""width:200px""alt=""img"">
                            </div>
                        </div>","25","","0","images/gray_23.png","","","","disturbing"
"","","","","","html-slider-response","84","244230","0.0-74.0","vyfz5q5v2p","NaN","<div style=""width:500px;"">
                            <p style=""font-size:50px; font-weight:bold;""
                            >disturbing</p>
                            <div style=""width:240px; margin: auto;"">
                                <img src=""images/gray_01.png"" style= ""width:200px""alt=""img"">
                            </div>
                        </div>","-52","","0","images/gray_01.png","","","","disturbing"
"","","","","","html-slider-response","85","245301","0.0-75.0","vyfz5q5v2p","NaN","<div style=""width:500px;"">
                            <p style=""font-size:50px; font-weight:bold;""
                            >disturbing</p>
                            <div style=""width:240px; margin: auto;"">
                                <img src=""images/gray_03.png"" style= ""width:200px""alt=""img"">
                            </div>
                        </div>","-70","","0","images/gray_03.png","","","","disturbing"
"","","","","","html-slider-response","86","246956","0.0-76.0","vyfz5q5v2p","NaN","<div style=""width:500px;"">
                            <p style=""font-size:50px; font-weight:bold;""
                            >disturbing</p>
                            <div style=""width:240px; margin: auto;"">
                                <img src=""images/gray_12.png"" style= ""width:200px""alt=""img"">
                            </div>
                        </div>","-90","","0","images/gray_12.png","","","","disturbing"
"","","","","","html-slider-response","87","248505","0.0-77.0","vyfz5q5v2p","NaN","<div style=""width:500px;"">
                            <p style=""font-size:50px; font-weight:bold;""
                            >disturbing</p>
                            <div style=""width:240px; margin: auto;"">
                                <img src=""images/gray_40.png"" style= ""width:200px""alt=""img"">
                            </div>
                        </div>","-181","","0","images/gray_40.png","","","","disturbing"
"","","","","","html-slider-response","88","249583","0.0-78.0","vyfz5q5v2p","NaN","<div style=""width:500px;"">
                            <p style=""font-size:50px; font-weight:bold;""
                            >disturbing</p>
                            <div style=""width:240px; margin: auto;"">
                                <img src=""images/gray_11.png"" style= ""width:200px""alt=""img"">
                            </div>
                        </div>","-147","","0","images/gray_11.png","","","","disturbing"
"","","","","","html-slider-response","89","250408","0.0-79.0","vyfz5q5v2p","NaN","<div style=""width:500px;"">
                            <p style=""font-size:50px; font-weight:bold;""
                            >disturbing</p>
                            <div style=""width:240px; margin: auto;"">
                                <img src=""images/gray_38.png"" style= ""width:200px""alt=""img"">
                            </div>
                        </div>","-147","","0","images/gray_38.png","","","","disturbing"
"","","","","","html-slider-response","90","251273","0.0-80.0","vyfz5q5v2p","NaN","<div style=""width:500px;"">
                            <p style=""font-size:50px; font-weight:bold;""
                            >disturbing</p>
                            <div style=""width:240px; margin: auto;"">
                                <img src=""images/gray_39.png"" style= ""width:200px""alt=""img"">
                            </div>
                        </div>","-102","","0","images/gray_39.png","","","","disturbing"
"","","","","","html-slider-response","91","253162","0.0-81.0","vyfz5q5v2p","NaN","<div style=""width:500px;"">
                            <p style=""font-size:50px; font-weight:bold;""
                            >disturbing</p>
                            <div style=""width:240px; margin: auto;"">
                                <img src=""images/gray_08.png"" style= ""width:200px""alt=""img"">
                            </div>
                        </div>","77","","0","images/gray_08.png","","","","disturbing"
"","","","","","html-slider-response","92","254062","0.0-82.0","vyfz5q5v2p","NaN","<div style=""width:500px;"">
                            <p style=""font-size:50px; font-weight:bold;""
                            >disturbing</p>
                            <div style=""width:240px; margin: auto;"">
                                <img src=""images/gray_22.png"" style= ""width:200px""alt=""img"">
                            </div>
                        </div>","118","","0","images/gray_22.png","","","","disturbing"
"","","","","","html-slider-response","93","255004","0.0-83.0","vyfz5q5v2p","NaN","<div style=""width:500px;"">
                            <p style=""font-size:50px; font-weight:bold;""
                            >disturbing</p>
                            <div style=""width:240px; margin: auto;"">
                                <img src=""images/gray_28.png"" style= ""width:200px""alt=""img"">
                            </div>
                        </div>","48","","0","images/gray_28.png","","","","disturbing"
"","","","","","html-slider-response","94","256074","0.0-84.0","vyfz5q5v2p","NaN","<div style=""width:500px;"">
                            <p style=""font-size:50px; font-weight:bold;""
                            >disturbing</p>
                            <div style=""width:240px; margin: auto;"">
                                <img src=""images/gray_20.png"" style= ""width:200px""alt=""img"">
                            </div>
                        </div>","24","","0","images/gray_20.png","","","","disturbing"
"","","","","","html-slider-response","95","256970","0.0-85.0","vyfz5q5v2p","NaN","<div style=""width:500px;"">
                            <p style=""font-size:50px; font-weight:bold;""
                            >disturbing</p>
                            <div style=""width:240px; margin: auto;"">
                                <img src=""images/gray_02.png"" style= ""width:200px""alt=""img"">
                            </div>
                        </div>","-49","","0","images/gray_02.png","","","","disturbing"
"","","","","","html-slider-response","96","257900","0.0-86.0","vyfz5q5v2p","NaN","<div style=""width:500px;"">
                            <p style=""font-size:50px; font-weight:bold;""
                            >disturbing</p>
                            <div style=""width:240px; margin: auto;"">
                                <img src=""images/gray_37.png"" style= ""width:200px""alt=""img"">
                            </div>
                        </div>","-79","","0","images/gray_37.png","","","","disturbing"
"","","","","","html-slider-response","97","258952","0.0-87.0","vyfz5q5v2p","NaN","<div style=""width:500px;"">
                            <p style=""font-size:50px; font-weight:bold;""
                            >disturbing</p>
                            <div style=""width:240px; margin: auto;"">
                                <img src=""images/gray_27.png"" style= ""width:200px""alt=""img"">
                            </div>
                        </div>","-106","","0","images/gray_27.png","","","","disturbing"
"","","","","","html-slider-response","98","260427","0.0-88.0","vyfz5q5v2p","NaN","<div style=""width:500px;"">
                            <p style=""font-size:50px; font-weight:bold;""
                            >disturbing</p>
                            <div style=""width:240px; margin: auto;"">
                                <img src=""images/gray_16.png"" style= ""width:200px""alt=""img"">
                            </div>
                        </div>","54","","0","images/gray_16.png","","","","disturbing"
"","","","","","html-slider-response","99","261332","0.0-89.0","vyfz5q5v2p","NaN","<div style=""width:500px;"">
                            <p style=""font-size:50px; font-weight:bold;""
                            >disturbing</p>
                            <div style=""width:240px; margin: auto;"">
                                <img src=""images/gray_31.png"" style= ""width:200px""alt=""img"">
                            </div>
                        </div>","-25","","0","images/gray_31.png","","","","disturbing"
"","","","","","html-slider-response","100","262270","0.0-90.0","vyfz5q5v2p","NaN","<div style=""width:500px;"">
                            <p style=""font-size:50px; font-weight:bold;""
                            >disturbing</p>
                            <div style=""width:240px; margin: auto;"">
                                <img src=""images/gray_30.png"" style= ""width:200px""alt=""img"">
                            </div>
                        </div>","47","","0","images/gray_30.png","","","","disturbing"
"","","","","","html-slider-response","101","263211","0.0-91.0","vyfz5q5v2p","NaN","<div style=""width:500px;"">
                            <p style=""font-size:50px; font-weight:bold;""
                            >disturbing</p>
                            <div style=""width:240px; margin: auto;"">
                                <img src=""images/gray_36.png"" style= ""width:200px""alt=""img"">
                            </div>
                        </div>","81","","0","images/gray_36.png","","","","disturbing"
"","","","","","html-slider-response","102","264151","0.0-92.0","vyfz5q5v2p","NaN","<div style=""width:500px;"">
                            <p style=""font-size:50px; font-weight:bold;""
                            >disturbing</p>
                            <div style=""width:240px; margin: auto;"">
                                <img src=""images/gray_15.png"" style= ""width:200px""alt=""img"">
                            </div>
                        </div>","134","","0","images/gray_15.png","","","","disturbing"
"","","","","","html-slider-response","103","265249","0.0-93.0","vyfz5q5v2p","NaN","<div style=""width:500px;"">
                            <p style=""font-size:50px; font-weight:bold;""
                            >disturbing</p>
                            <div style=""width:240px; margin: auto;"">
                                <img src=""images/gray_14.png"" style= ""width:200px""alt=""img"">
                            </div>
                        </div>","-77","","0","images/gray_14.png","","","","disturbing"
"","","","","","html-slider-response","104","266262","0.0-94.0","vyfz5q5v2p","NaN","<div style=""width:500px;"">
                            <p style=""font-size:50px; font-weight:bold;""
                            >disturbing</p>
                            <div style=""width:240px; margin: auto;"">
                                <img src=""images/gray_09.png"" style= ""width:200px""alt=""img"">
                            </div>
                        </div>","-99","","0","images/gray_09.png","","","","disturbing"
"","","","","","html-slider-response","105","267129","0.0-95.0","vyfz5q5v2p","NaN","<div style=""width:500px;"">
                            <p style=""font-size:50px; font-weight:bold;""
                            >disturbing</p>
                            <div style=""width:240px; margin: auto;"">
                                <img src=""images/gray_10.png"" style= ""width:200px""alt=""img"">
                            </div>
                        </div>","-41","","0","images/gray_10.png","","","","disturbing"
"","","","","","html-slider-response","106","267941","0.0-96.0","vyfz5q5v2p","NaN","<div style=""width:500px;"">
                            <p style=""font-size:50px; font-weight:bold;""
                            >disturbing</p>
                            <div style=""width:240px; margin: auto;"">
                                <img src=""images/gray_04.png"" style= ""width:200px""alt=""img"">
                            </div>
                        </div>","35","","0","images/gray_04.png","","","","disturbing"
"","","","","","html-slider-response","107","268751","0.0-97.0","vyfz5q5v2p","NaN","<div style=""width:500px;"">
                            <p style=""font-size:50px; font-weight:bold;""
                            >disturbing</p>
                            <div style=""width:240px; margin: auto;"">
                                <img src=""images/gray_24.png"" style= ""width:200px""alt=""img"">
                            </div>
                        </div>","96","","0","images/gray_24.png","","","","disturbing"
"","","","","","html-slider-response","108","269675","0.0-98.0","vyfz5q5v2p","NaN","<div style=""width:500px;"">
                            <p style=""font-size:50px; font-weight:bold;""
                            >disturbing</p>
                            <div style=""width:240px; margin: auto;"">
                                <img src=""images/gray_07.png"" style= ""width:200px""alt=""img"">
                            </div>
                        </div>","142","","0","images/gray_07.png","","","","disturbing"
"","","","","","html-slider-response","109","271251","0.0-99.0","vyfz5q5v2p","NaN","<div style=""width:500px;"">
                            <p style=""font-size:50px; font-weight:bold;""
                            >disturbing</p>
                            <div style=""width:240px; margin: auto;"">
                                <img src=""images/gray_32.png"" style= ""width:200px""alt=""img"">
                            </div>
                        </div>","26","","0","images/gray_32.png","","","","disturbing"
"","","","","","html-slider-response","110","272152","0.0-100.0","vyfz5q5v2p","NaN","<div style=""width:500px;"">
                            <p style=""font-size:50px; font-weight:bold;""
                            >disturbing</p>
                            <div style=""width:240px; margin: auto;"">
                                <img src=""images/gray_42.png"" style= ""width:200px""alt=""img"">
                            </div>
                        </div>","-33","","0","images/gray_42.png","","","","disturbing"
"","","","","","html-slider-response","111","273063","0.0-101.0","vyfz5q5v2p","NaN","<div style=""width:500px;"">
                            <p style=""font-size:50px; font-weight:bold;""
                            >disturbing</p>
                            <div style=""width:240px; margin: auto;"">
                                <img src=""images/gray_43.png"" style= ""width:200px""alt=""img"">
                            </div>
                        </div>","-68","","0","images/gray_43.png","","","","disturbing"
"","","","","","html-slider-response","112","273989","0.0-102.0","vyfz5q5v2p","NaN","<div style=""width:500px;"">
                            <p style=""font-size:50px; font-weight:bold;""
                            >disturbing</p>
                            <div style=""width:240px; margin: auto;"">
                                <img src=""images/gray_19.png"" style= ""width:200px""alt=""img"">
                            </div>
                        </div>","-122","","0","images/gray_19.png","","","","disturbing"
"","","","","","html-slider-response","113","274985","0.0-103.0","vyfz5q5v2p","NaN","<div style=""width:500px;"">
                            <p style=""font-size:50px; font-weight:bold;""
                            >disturbing</p>
                            <div style=""width:240px; margin: auto;"">
                                <img src=""images/gray_44.png"" style= ""width:200px""alt=""img"">
                            </div>
                        </div>","-122","","0","images/gray_44.png","","","","disturbing"
"","","","","","html-button-response","114","276617","0.0-104.0","vyfz5q5v2p","1127","<p>Great Job! You've finished block 2.<br></br> You have 6 block(s) left to go.<br></br></p>","0","","","","","","",""
"","","","","","html-button-response","115","277699","0.0-105.0","vyfz5q5v2p","1080","<p>In this block of trials, you will be asked to rate how much you associate each map with:</p > <p style = 'font-size:150%; font-weight: bold'>trustworthy</p><br></br>","0","","","","","","",""
"","","","","","html-slider-response","116","279931","0.0-106.0","vyfz5q5v2p","NaN","<div style=""width:500px;"">
                            <p style=""font-size:50px; font-weight:bold;""
                            >trustworthy</p>
                            <div style=""width:240px; margin: auto;"">
                                <img src=""images/gray_32.png"" style= ""width:200px""alt=""img"">
                            </div>
                        </div>","-59","","0","images/gray_32.png","","","","trustworthy"
"","","","","","html-slider-response","117","280934","0.0-107.0","vyfz5q5v2p","NaN","<div style=""width:500px;"">
                            <p style=""font-size:50px; font-weight:bold;""
                            >trustworthy</p>
                            <div style=""width:240px; margin: auto;"">
                                <img src=""images/gray_43.png"" style= ""width:200px""alt=""img"">
                            </div>
                        </div>","27","","0","images/gray_43.png","","","","trustworthy"
"","","","","","html-slider-response","118","281865","0.0-108.0","vyfz5q5v2p","NaN","<div style=""width:500px;"">
                            <p style=""font-size:50px; font-weight:bold;""
                            >trustworthy</p>
                            <div style=""width:240px; margin: auto;"">
                                <img src=""images/gray_08.png"" style= ""width:200px""alt=""img"">
                            </div>
                        </div>","48","","0","images/gray_08.png","","","","trustworthy"
"","","","","","html-slider-response","119","282753","0.0-109.0","vyfz5q5v2p","NaN","<div style=""width:500px;"">
                            <p style=""font-size:50px; font-weight:bold;""
                            >trustworthy</p>
                            <div style=""width:240px; margin: auto;"">
                                <img src=""images/gray_28.png"" style= ""width:200px""alt=""img"">
                            </div>
                        </div>","113","","0","images/gray_28.png","","","","trustworthy"
"","","","","","html-slider-response","120","283619","0.0-110.0","vyfz5q5v2p","NaN","<div style=""width:500px;"">
                            <p style=""font-size:50px; font-weight:bold;""
                            >trustworthy</p>
                            <div style=""width:240px; margin: auto;"">
                                <img src=""images/gray_33.png"" style= ""width:200px""alt=""img"">
                            </div>
                        </div>","113","","0","images/gray_33.png","","","","trustworthy"
"","","","","","html-slider-response","121","284448","0.0-111.0","vyfz5q5v2p","NaN","<div style=""width:500px;"">
                            <p style=""font-size:50px; font-weight:bold;""
                            >trustworthy</p>
                            <div style=""width:240px; margin: auto;"">
                                <img src=""images/gray_30.png"" style= ""width:200px""alt=""img"">
                            </div>
                        </div>","113","","0","images/gray_30.png","","","","trustworthy"
"","","","","","html-slider-response","122","285324","0.0-112.0","vyfz5q5v2p","NaN","<div style=""width:500px;"">
                            <p style=""font-size:50px; font-weight:bold;""
                            >trustworthy</p>
                            <div style=""width:240px; margin: auto;"">
                                <img src=""images/gray_27.png"" style= ""width:200px""alt=""img"">
                            </div>
                        </div>","113","","0","images/gray_27.png","","","","trustworthy"
"","","","","","html-slider-response","123","286238","0.0-113.0","vyfz5q5v2p","NaN","<div style=""width:500px;"">
                            <p style=""font-size:50px; font-weight:bold;""
                            >trustworthy</p>
                            <div style=""width:240px; margin: auto;"">
                                <img src=""images/gray_04.png"" style= ""width:200px""alt=""img"">
                            </div>
                        </div>","-38","","0","images/gray_04.png","","","","trustworthy"
"","","","","","html-slider-response","124","287107","0.0-114.0","vyfz5q5v2p","NaN","<div style=""width:500px;"">
                            <p style=""font-size:50px; font-weight:bold;""
                            >trustworthy</p>
                            <div style=""width:240px; margin: auto;"">
                                <img src=""images/gray_01.png"" style= ""width:200px""alt=""img"">
                            </div>
                        </div>","-102","","0","images/gray_01.png","","","","trustworthy"
"","","","","","html-slider-response","125","287929","0.0-115.0","vyfz5q5v2p","NaN","<div style=""width:500px;"">
                            <p style=""font-size:50px; font-weight:bold;""
                            >trustworthy</p>
                            <div style=""width:240px; margin: auto;"">
                                <img src=""images/gray_07.png"" style= ""width:200px""alt=""img"">
                            </div>
                        </div>","-146","","0","images/gray_07.png","","","","trustworthy"
"","","","","","html-slider-response","126","288877","0.0-116.0","vyfz5q5v2p","NaN","<div style=""width:500px;"">
                            <p style=""font-size:50px; font-weight:bold;""
                            >trustworthy</p>
                            <div style=""width:240px; margin: auto;"">
                                <img src=""images/gray_21.png"" style= ""width:200px""alt=""img"">
                            </div>
                        </div>","-11","","0","images/gray_21.png","","","","trustworthy"
"","","","","","html-slider-response","127","289655","0.0-117.0","vyfz5q5v2p","NaN","<div style=""width:500px;"">
                            <p style=""font-size:50px; font-weight:bold;""
                            >trustworthy</p>
                            <div style=""width:240px; margin: auto;"">
                                <img src=""images/gray_18.png"" style= ""width:200px""alt=""img"">
                            </div>
                        </div>","26","","0","images/gray_18.png","","","","trustworthy"
"","","","","","html-slider-response","128","290522","0.0-118.0","vyfz5q5v2p","NaN","<div style=""width:500px;"">
                            <p style=""font-size:50px; font-weight:bold;""
                            >trustworthy</p>
                            <div style=""width:240px; margin: auto;"">
                                <img src=""images/gray_05.png"" style= ""width:200px""alt=""img"">
                            </div>
                        </div>","64","","0","images/gray_05.png","","","","trustworthy"
"","","","","","html-slider-response","129","291366","0.0-119.0","vyfz5q5v2p","NaN","<div style=""width:500px;"">
                            <p style=""font-size:50px; font-weight:bold;""
                            >trustworthy</p>
                            <div style=""width:240px; margin: auto;"">
                                <img src=""images/gray_10.png"" style= ""width:200px""alt=""img"">
                            </div>
                        </div>","102","","0","images/gray_10.png","","","","trustworthy"
"","","","","","html-slider-response","130","292345","0.0-120.0","vyfz5q5v2p","NaN","<div style=""width:500px;"">
                            <p style=""font-size:50px; font-weight:bold;""
                            >trustworthy</p>
                            <div style=""width:240px; margin: auto;"">
                                <img src=""images/gray_31.png"" style= ""width:200px""alt=""img"">
                            </div>
                        </div>","102","","0","images/gray_31.png","","","","trustworthy"
"","","","","","html-slider-response","131","293013","0.0-121.0","vyfz5q5v2p","NaN","<div style=""width:500px;"">
                            <p style=""font-size:50px; font-weight:bold;""
                            >trustworthy</p>
                            <div style=""width:240px; margin: auto;"">
                                <img src=""images/gray_23.png"" style= ""width:200px""alt=""img"">
                            </div>
                        </div>","102","","0","images/gray_23.png","","","","trustworthy"
"","","","","","html-slider-response","132","293801","0.0-122.0","vyfz5q5v2p","NaN","<div style=""width:500px;"">
                            <p style=""font-size:50px; font-weight:bold;""
                            >trustworthy</p>
                            <div style=""width:240px; margin: auto;"">
                                <img src=""images/gray_25.png"" style= ""width:200px""alt=""img"">
                            </div>
                        </div>","170","","0","images/gray_25.png","","","","trustworthy"
"","","","","","html-slider-response","133","294770","0.0-123.0","vyfz5q5v2p","NaN","<div style=""width:500px;"">
                            <p style=""font-size:50px; font-weight:bold;""
                            >trustworthy</p>
                            <div style=""width:240px; margin: auto;"">
                                <img src=""images/gray_44.png"" style= ""width:200px""alt=""img"">
                            </div>
                        </div>","-73","","0","images/gray_44.png","","","","trustworthy"
"","","","","","html-slider-response","134","295633","0.0-124.0","vyfz5q5v2p","NaN","<div style=""width:500px;"">
                            <p style=""font-size:50px; font-weight:bold;""
                            >trustworthy</p>
                            <div style=""width:240px; margin: auto;"">
                                <img src=""images/gray_12.png"" style= ""width:200px""alt=""img"">
                            </div>
                        </div>","-154","","0","images/gray_12.png","","","","trustworthy"
"","","","","","html-slider-response","135","296576","0.0-125.0","vyfz5q5v2p","NaN","<div style=""width:500px;"">
                            <p style=""font-size:50px; font-weight:bold;""
                            >trustworthy</p>
                            <div style=""width:240px; margin: auto;"">
                                <img src=""images/gray_42.png"" style= ""width:200px""alt=""img"">
                            </div>
                        </div>","0","","0","images/gray_42.png","","","","trustworthy"
"","","","","","html-slider-response","136","297771","0.0-126.0","vyfz5q5v2p","NaN","<div style=""width:500px;"">
                            <p style=""font-size:50px; font-weight:bold;""
                            >trustworthy</p>
                            <div style=""width:240px; margin: auto;"">
                                <img src=""images/gray_16.png"" style= ""width:200px""alt=""img"">
                            </div>
                        </div>","-198","","0","images/gray_16.png","","","","trustworthy"
"","","","","","html-slider-response","137","298797","0.0-127.0","vyfz5q5v2p","NaN","<div style=""width:500px;"">
                            <p style=""font-size:50px; font-weight:bold;""
                            >trustworthy</p>
                            <div style=""width:240px; margin: auto;"">
                                <img src=""images/gray_37.png"" style= ""width:200px""alt=""img"">
                            </div>
                        </div>","54","","0","images/gray_37.png","","","","trustworthy"
"","","","","","html-slider-response","138","299657","0.0-128.0","vyfz5q5v2p","NaN","<div style=""width:500px;"">
                            <p style=""font-size:50px; font-weight:bold;""
                            >trustworthy</p>
                            <div style=""width:240px; margin: auto;"">
                                <img src=""images/gray_26.png"" style= ""width:200px""alt=""img"">
                            </div>
                        </div>","123","","0","images/gray_26.png","","","","trustworthy"
"","","","","","html-slider-response","139","301284","0.0-129.0","vyfz5q5v2p","NaN","<div style=""width:500px;"">
                            <p style=""font-size:50px; font-weight:bold;""
                            >trustworthy</p>
                            <div style=""width:240px; margin: auto;"">
                                <img src=""images/gray_35.png"" style= ""width:200px""alt=""img"">
                            </div>
                        </div>","0","","0","images/gray_35.png","","","","trustworthy"
"","","","","","html-slider-response","140","302294","0.0-130.0","vyfz5q5v2p","NaN","<div style=""width:500px;"">
                            <p style=""font-size:50px; font-weight:bold;""
                            >trustworthy</p>
                            <div style=""width:240px; margin: auto;"">
                                <img src=""images/gray_03.png"" style= ""width:200px""alt=""img"">
                            </div>
                        </div>","0","","0","images/gray_03.png","","","","trustworthy"
"","","","","","html-slider-response","141","303162","0.0-131.0","vyfz5q5v2p","NaN","<div style=""width:500px;"">
                            <p style=""font-size:50px; font-weight:bold;""
                            >trustworthy</p>
                            <div style=""width:240px; margin: auto;"">
                                <img src=""images/gray_20.png"" style= ""width:200px""alt=""img"">
                            </div>
                        </div>","96","","0","images/gray_20.png","","","","trustworthy"
"","","","","","html-slider-response","142","304234","0.0-132.0","vyfz5q5v2p","NaN","<div style=""width:500px;"">
                            <p style=""font-size:50px; font-weight:bold;""
                            >trustworthy</p>
                            <div style=""width:240px; margin: auto;"">
                                <img src=""images/gray_40.png"" style= ""width:200px""alt=""img"">
                            </div>
                        </div>","124","","0","images/gray_40.png","","","","trustworthy"
"","","","","","html-slider-response","143","305289","0.0-133.0","vyfz5q5v2p","NaN","<div style=""width:500px;"">
                            <p style=""font-size:50px; font-weight:bold;""
                            >trustworthy</p>
                            <div style=""width:240px; margin: auto;"">
                                <img src=""images/gray_19.png"" style= ""width:200px""alt=""img"">
                            </div>
                        </div>","155","","0","images/gray_19.png","","","","trustworthy"
"","","","","","html-slider-response","144","306214","0.0-134.0","vyfz5q5v2p","NaN","<div style=""width:500px;"">
                            <p style=""font-size:50px; font-weight:bold;""
                            >trustworthy</p>
                            <div style=""width:240px; margin: auto;"">
                                <img src=""images/gray_34.png"" style= ""width:200px""alt=""img"">
                            </div>
                        </div>","155","","0","images/gray_34.png","","","","trustworthy"
"","","","","","html-slider-response","145","307111","0.0-135.0","vyfz5q5v2p","NaN","<div style=""width:500px;"">
                            <p style=""font-size:50px; font-weight:bold;""
                            >trustworthy</p>
                            <div style=""width:240px; margin: auto;"">
                                <img src=""images/gray_24.png"" style= ""width:200px""alt=""img"">
                            </div>
                        </div>","-40","","0","images/gray_24.png","","","","trustworthy"
"","","","","","html-slider-response","146","307974","0.0-136.0","vyfz5q5v2p","NaN","<div style=""width:500px;"">
                            <p style=""font-size:50px; font-weight:bold;""
                            >trustworthy</p>
                            <div style=""width:240px; margin: auto;"">
                                <img src=""images/gray_06.png"" style= ""width:200px""alt=""img"">
                            </div>
                        </div>","-82","","0","images/gray_06.png","","","","trustworthy"
"","","","","","html-slider-response","147","308853","0.0-137.0","vyfz5q5v2p","NaN","<div style=""width:500px;"">
                            <p style=""font-size:50px; font-weight:bold;""
                            >trustworthy</p>
                            <div style=""width:240px; margin: auto;"">
                                <img src=""images/gray_41.png"" style= ""width:200px""alt=""img"">
                            </div>
                        </div>","-102","","0","images/gray_41.png","","","","trustworthy"
"","","","","","html-slider-response","148","309526","0.0-138.0","vyfz5q5v2p","NaN","<div style=""width:500px;"">
                            <p style=""font-size:50px; font-weight:bold;""
                            >trustworthy</p>
                            <div style=""width:240px; margin: auto;"">
                                <img src=""images/gray_11.png"" style= ""width:200px""alt=""img"">
                            </div>
                        </div>","-35","","0","images/gray_11.png","","","","trustworthy"
"","","","","","html-slider-response","149","310384","0.0-139.0","vyfz5q5v2p","NaN","<div style=""width:500px;"">
                            <p style=""font-size:50px; font-weight:bold;""
                            >trustworthy</p>
                            <div style=""width:240px; margin: auto;"">
                                <img src=""images/gray_29.png"" style= ""width:200px""alt=""img"">
                            </div>
                        </div>","-165","","0","images/gray_29.png","","","","trustworthy"
"","","","","","html-slider-response","150","311297","0.0-140.0","vyfz5q5v2p","NaN","<div style=""width:500px;"">
                            <p style=""font-size:50px; font-weight:bold;""
                            >trustworthy</p>
                            <div style=""width:240px; margin: auto;"">
                                <img src=""images/gray_02.png"" style= ""width:200px""alt=""img"">
                            </div>
                        </div>","89","","0","images/gray_02.png","","","","trustworthy"
"","","","","","html-slider-response","151","312168","0.0-141.0","vyfz5q5v2p","NaN","<div style=""width:500px;"">
                            <p style=""font-size:50px; font-weight:bold;""
                            >trustworthy</p>
                            <div style=""width:240px; margin: auto;"">
                                <img src=""images/gray_38.png"" style= ""width:200px""alt=""img"">
                            </div>
                        </div>","157","","0","images/gray_38.png","","","","trustworthy"
"","","","","","html-slider-response","152","313285","0.0-142.0","vyfz5q5v2p","NaN","<div style=""width:500px;"">
                            <p style=""font-size:50px; font-weight:bold;""
                            >trustworthy</p>
                            <div style=""width:240px; margin: auto;"">
                                <img src=""images/gray_09.png"" style= ""width:200px""alt=""img"">
                            </div>
                        </div>","-45","","0","images/gray_09.png","","","","trustworthy"
"","","","","","html-slider-response","153","314165","0.0-143.0","vyfz5q5v2p","NaN","<div style=""width:500px;"">
                            <p style=""font-size:50px; font-weight:bold;""
                            >trustworthy</p>
                            <div style=""width:240px; margin: auto;"">
                                <img src=""images/gray_36.png"" style= ""width:200px""alt=""img"">
                            </div>
                        </div>","-94","","0","images/gray_36.png","","","","trustworthy"
"","","","","","html-slider-response","154","315263","0.0-144.0","vyfz5q5v2p","NaN","<div style=""width:500px;"">
                            <p style=""font-size:50px; font-weight:bold;""
                            >trustworthy</p>
                            <div style=""width:240px; margin: auto;"">
                                <img src=""images/gray_17.png"" style= ""width:200px""alt=""img"">
                            </div>
                        </div>","64","","0","images/gray_17.png","","","","trustworthy"
"","","","","","html-slider-response","155","316115","0.0-145.0","vyfz5q5v2p","NaN","<div style=""width:500px;"">
                            <p style=""font-size:50px; font-weight:bold;""
                            >trustworthy</p>
                            <div style=""width:240px; margin: auto;"">
                                <img src=""images/gray_14.png"" style= ""width:200px""alt=""img"">
                            </div>
                        </div>","124","","0","images/gray_14.png","","","","trustworthy"
"","","","","","html-slider-response","156","316952","0.0-146.0","vyfz5q5v2p","NaN","<div style=""width:500px;"">
                            <p style=""font-size:50px; font-weight:bold;""
                            >trustworthy</p>
                            <div style=""width:240px; margin: auto;"">
                                <img src=""images/gray_13.png"" style= ""width:200px""alt=""img"">
                            </div>
                        </div>","166","","0","images/gray_13.png","","","","trustworthy"
"","","","","","html-slider-response","157","318154","0.0-147.0","vyfz5q5v2p","NaN","<div style=""width:500px;"">
                            <p style=""font-size:50px; font-weight:bold;""
                            >trustworthy</p>
                            <div style=""width:240px; margin: auto;"">
                                <img src=""images/gray_22.png"" style= ""width:200px""alt=""img"">
                            </div>
                        </div>","-98","","0","images/gray_22.png","","","","trustworthy"
"","","","","","html-slider-response","158","319080","0.0-148.0","vyfz5q5v2p","NaN","<div style=""width:500px;"">
                            <p style=""font-size:50px; font-weight:bold;""
                            >trustworthy</p>
                            <div style=""width:240px; margin: auto;"">
                                <img src=""images/gray_39.png"" style= ""width:200px""alt=""img"">
                            </div>
                        </div>","-134","","0","images/gray_39.png","","","","trustworthy"
"","","","","","html-slider-response","159","320249","0.0-149.0","vyfz5q5v2p","NaN","<div style=""width:500px;"">
                            <p style=""font-size:50px; font-weight:bold;""
                            >trustworthy</p>
                            <div style=""width:240px; margin: auto;"">
                                <img src=""images/gray_15.png"" style= ""width:200px""alt=""img"">
                            </div>
                        </div>","-174","","0","images/gray_15.png","","","","trustworthy"
"","","","","","html-button-response","160","321596","0.0-150.0","vyfz5q5v2p","844","<p>Great Job! You've finished block 3.<br></br> You have 5 block(s) left to go.<br></br></p>","0","","","","","","",""
"","","","","","html-button-response","161","322282","0.0-151.0","vyfz5q5v2p","685","<p>In this block of trials, you will be asked to rate how much you associate each map with:</p > <p style = 'font-size:150%; font-weight: bold'>calm</p><br></br>","0","","","","","","",""
"","","","","","html-slider-response","162","323306","0.0-152.0","vyfz5q5v2p","NaN","<div style=""width:500px;"">
                            <p style=""font-size:50px; font-weight:bold;""
                            >calm</p>
                            <div style=""width:240px; margin: auto;"">
                                <img src=""images/gray_33.png"" style= ""width:200px""alt=""img"">
                            </div>
                        </div>","-59","","0","images/gray_33.png","","","","calm"
"","","","","","html-slider-response","163","324132","0.0-153.0","vyfz5q5v2p","NaN","<div style=""width:500px;"">
                            <p style=""font-size:50px; font-weight:bold;""
                            >calm</p>
                            <div style=""width:240px; margin: auto;"">
                                <img src=""images/gray_08.png"" style= ""width:200px""alt=""img"">
                            </div>
                        </div>","-89","","0","images/gray_08.png","","","","calm"
"","","","","","html-slider-response","164","324962","0.0-154.0","vyfz5q5v2p","NaN","<div style=""width:500px;"">
                            <p style=""font-size:50px; font-weight:bold;""
                            >calm</p>
                            <div style=""width:240px; margin: auto;"">
                                <img src=""images/gray_44.png"" style= ""width:200px""alt=""img"">
                            </div>
                        </div>","-124","","0","images/gray_44.png","","","","calm"
"","","","","","html-slider-response","165","325865","0.0-155.0","vyfz5q5v2p","NaN","<div style=""width:500px;"">
                            <p style=""font-size:50px; font-weight:bold;""
                            >calm</p>
                            <div style=""width:240px; margin: auto;"">
                                <img src=""images/gray_14.png"" style= ""width:200px""alt=""img"">
                            </div>
                        </div>","-131","","0","images/gray_14.png","","","","calm"
"","","","","","html-slider-response","166","326681","0.0-156.0","vyfz5q5v2p","NaN","<div style=""width:500px;"">
                            <p style=""font-size:50px; font-weight:bold;""
                            >calm</p>
                            <div style=""width:240px; margin: auto;"">
                                <img src=""images/gray_43.png"" style= ""width:200px""alt=""img"">
                            </div>
                        </div>","86","","0","images/gray_43.png","","","","calm"
"","","","","","html-slider-response","167","327471","0.0-157.0","vyfz5q5v2p","NaN","<div style=""width:500px;"">
                            <p style=""font-size:50px; font-weight:bold;""
                            >calm</p>
                            <div style=""width:240px; margin: auto;"">
                                <img src=""images/gray_05.png"" style= ""width:200px""alt=""img"">
                            </div>
                        </div>","129","","0","images/gray_05.png","","","","calm"
"","","","","","html-slider-response","168","328367","0.0-158.0","vyfz5q5v2p","NaN","<div style=""width:500px;"">
                            <p style=""font-size:50px; font-weight:bold;""
                            >calm</p>
                            <div style=""width:240px; margin: auto;"">
                                <img src=""images/gray_22.png"" style= ""width:200px""alt=""img"">
                            </div>
                        </div>","154","","0","images/gray_22.png","","","","calm"
"","","","","","html-slider-response","169","329240","0.0-159.0","vyfz5q5v2p","NaN","<div style=""width:500px;"">
                            <p style=""font-size:50px; font-weight:bold;""
                            >calm</p>
                            <div style=""width:240px; margin: auto;"">
                                <img src=""images/gray_15.png"" style= ""width:200px""alt=""img"">
                            </div>
                        </div>","51","","0","images/gray_15.png","","","","calm"
"","","","","","html-slider-response","170","331021","0.0-160.0","vyfz5q5v2p","NaN","<div style=""width:500px;"">
                            <p style=""font-size:50px; font-weight:bold;""
                            >calm</p>
                            <div style=""width:240px; margin: auto;"">
                                <img src=""images/gray_23.png"" style= ""width:200px""alt=""img"">
                            </div>
                        </div>","197","","0","images/gray_23.png","","","","calm"
"","","","","","html-slider-response","171","331880","0.0-161.0","vyfz5q5v2p","NaN","<div style=""width:500px;"">
                            <p style=""font-size:50px; font-weight:bold;""
                            >calm</p>
                            <div style=""width:240px; margin: auto;"">
                                <img src=""images/gray_09.png"" style= ""width:200px""alt=""img"">
                            </div>
                        </div>","197","","0","images/gray_09.png","","","","calm"
"","","","","","html-slider-response","172","332786","0.0-162.0","vyfz5q5v2p","NaN","<div style=""width:500px;"">
                            <p style=""font-size:50px; font-weight:bold;""
                            >calm</p>
                            <div style=""width:240px; margin: auto;"">
                                <img src=""images/gray_12.png"" style= ""width:200px""alt=""img"">
                            </div>
                        </div>","18","","0","images/gray_12.png","","","","calm"
"","","","","","html-slider-response","173","333493","0.0-163.0","vyfz5q5v2p","NaN","<div style=""width:500px;"">
                            <p style=""font-size:50px; font-weight:bold;""
                            >calm</p>
                            <div style=""width:240px; margin: auto;"">
                                <img src=""images/gray_27.png"" style= ""width:200px""alt=""img"">
                            </div>
                        </div>","-58","","0","images/gray_27.png","","","","calm"
"","","","","","html-slider-response","174","334360","0.0-164.0","vyfz5q5v2p","NaN","<div style=""width:500px;"">
                            <p style=""font-size:50px; font-weight:bold;""
                            >calm</p>
                            <div style=""width:240px; margin: auto;"">
                                <img src=""images/gray_30.png"" style= ""width:200px""alt=""img"">
                            </div>
                        </div>","-114","","0","images/gray_30.png","","","","calm"
"","","","","","html-slider-response","175","335052","0.0-165.0","vyfz5q5v2p","NaN","<div style=""width:500px;"">
                            <p style=""font-size:50px; font-weight:bold;""
                            >calm</p>
                            <div style=""width:240px; margin: auto;"">
                                <img src=""images/gray_35.png"" style= ""width:200px""alt=""img"">
                            </div>
                        </div>","-19","","0","images/gray_35.png","","","","calm"
"","","","","","html-slider-response","176","335958","0.0-166.0","vyfz5q5v2p","NaN","<div style=""width:500px;"">
                            <p style=""font-size:50px; font-weight:bold;""
                            >calm</p>
                            <div style=""width:240px; margin: auto;"">
                                <img src=""images/gray_17.png"" style= ""width:200px""alt=""img"">
                            </div>
                        </div>","-163","","0","images/gray_17.png","","","","calm"
"","","","","","html-slider-response","177","336928","0.0-167.0","vyfz5q5v2p","NaN","<div style=""width:500px;"">
                            <p style=""font-size:50px; font-weight:bold;""
                            >calm</p>
                            <div style=""width:240px; margin: auto;"">
                                <img src=""images/gray_31.png"" style= ""width:200px""alt=""img"">
                            </div>
                        </div>","-52","","0","images/gray_31.png","","","","calm"
"","","","","","html-slider-response","178","337703","0.0-168.0","vyfz5q5v2p","NaN","<div style=""width:500px;"">
                            <p style=""font-size:50px; font-weight:bold;""
                            >calm</p>
                            <div style=""width:240px; margin: auto;"">
                                <img src=""images/gray_42.png"" style= ""width:200px""alt=""img"">
                            </div>
                        </div>","40","","0","images/gray_42.png","","","","calm"
"","","","","","html-slider-response","179","338515","0.0-169.0","vyfz5q5v2p","NaN","<div style=""width:500px;"">
                            <p style=""font-size:50px; font-weight:bold;""
                            >calm</p>
                            <div style=""width:240px; margin: auto;"">
                                <img src=""images/gray_36.png"" style= ""width:200px""alt=""img"">
                            </div>
                        </div>","85","","0","images/gray_36.png","","","","calm"
"","","","","","html-slider-response","180","339359","0.0-170.0","vyfz5q5v2p","NaN","<div style=""width:500px;"">
                            <p style=""font-size:50px; font-weight:bold;""
                            >calm</p>
                            <div style=""width:240px; margin: auto;"">
                                <img src=""images/gray_38.png"" style= ""width:200px""alt=""img"">
                            </div>
                        </div>","143","","0","images/gray_38.png","","","","calm"
"","","","","","html-slider-response","181","340214","0.0-171.0","vyfz5q5v2p","NaN","<div style=""width:500px;"">
                            <p style=""font-size:50px; font-weight:bold;""
                            >calm</p>
                            <div style=""width:240px; margin: auto;"">
                                <img src=""images/gray_32.png"" style= ""width:200px""alt=""img"">
                            </div>
                        </div>","107","","0","images/gray_32.png","","","","calm"
"","","","","","html-slider-response","182","341199","0.0-172.0","vyfz5q5v2p","NaN","<div style=""width:500px;"">
                            <p style=""font-size:50px; font-weight:bold;""
                            >calm</p>
                            <div style=""width:240px; margin: auto;"">
                                <img src=""images/gray_26.png"" style= ""width:200px""alt=""img"">
                            </div>
                        </div>","-46","","0","images/gray_26.png","","","","calm"
"","","","","","html-slider-response","183","342042","0.0-173.0","vyfz5q5v2p","NaN","<div style=""width:500px;"">
                            <p style=""font-size:50px; font-weight:bold;""
                            >calm</p>
                            <div style=""width:240px; margin: auto;"">
                                <img src=""images/gray_20.png"" style= ""width:200px""alt=""img"">
                            </div>
                        </div>","42","","0","images/gray_20.png","","","","calm"
"","","","","","html-slider-response","184","343278","0.0-174.0","vyfz5q5v2p","NaN","<div style=""width:500px;"">
                            <p style=""font-size:50px; font-weight:bold;""
                            >calm</p>
                            <div style=""width:240px; margin: auto;"">
                                <img src=""images/gray_24.png"" style= ""width:200px""alt=""img"">
                            </div>
                        </div>","-110","","0","images/gray_24.png","","","","calm"
"","","","","","html-slider-response","185","344190","0.0-175.0","vyfz5q5v2p","NaN","<div style=""width:500px;"">
                            <p style=""font-size:50px; font-weight:bold;""
                            >calm</p>
                            <div style=""width:240px; margin: auto;"">
                                <img src=""images/gray_29.png"" style= ""width:200px""alt=""img"">
                            </div>
                        </div>","118","","0","images/gray_29.png","","","","calm"
"","","","","","html-slider-response","186","345050","0.0-176.0","vyfz5q5v2p","NaN","<div style=""width:500px;"">
                            <p style=""font-size:50px; font-weight:bold;""
                            >calm</p>
                            <div style=""width:240px; margin: auto;"">
                                <img src=""images/gray_18.png"" style= ""width:200px""alt=""img"">
                            </div>
                        </div>","149","","0","images/gray_18.png","","","","calm"
"","","","","","html-slider-response","187","346062","0.0-177.0","vyfz5q5v2p","NaN","<div style=""width:500px;"">
                            <p style=""font-size:50px; font-weight:bold;""
                            >calm</p>
                            <div style=""width:240px; margin: auto;"">
                                <img src=""images/gray_16.png"" style= ""width:200px""alt=""img"">
                            </div>
                        </div>","163","","0","images/gray_16.png","","","","calm"
"","","","","","html-slider-response","188","347071","0.0-178.0","vyfz5q5v2p","NaN","<div style=""width:500px;"">
                            <p style=""font-size:50px; font-weight:bold;""
                            >calm</p>
                            <div style=""width:240px; margin: auto;"">
                                <img src=""images/gray_10.png"" style= ""width:200px""alt=""img"">
                            </div>
                        </div>","160","","0","images/gray_10.png","","","","calm"
"","","","","","html-slider-response","189","347941","0.0-179.0","vyfz5q5v2p","NaN","<div style=""width:500px;"">
                            <p style=""font-size:50px; font-weight:bold;""
                            >calm</p>
                            <div style=""width:240px; margin: auto;"">
                                <img src=""images/gray_13.png"" style= ""width:200px""alt=""img"">
                            </div>
                        </div>","160","","0","images/gray_13.png","","","","calm"
"","","","","","html-slider-response","190","348886","0.0-180.0","vyfz5q5v2p","NaN","<div style=""width:500px;"">
                            <p style=""font-size:50px; font-weight:bold;""
                            >calm</p>
                            <div style=""width:240px; margin: auto;"">
                                <img src=""images/gray_37.png"" style= ""width:200px""alt=""img"">
                            </div>
                        </div>","37","","0","images/gray_37.png","","","","calm"
"","","","","","html-slider-response","191","350051","0.0-181.0","vyfz5q5v2p","NaN","<div style=""width:500px;"">
                            <p style=""font-size:50px; font-weight:bold;""
                            >calm</p>
                            <div style=""width:240px; margin: auto;"">
                                <img src=""images/gray_41.png"" style= ""width:200px""alt=""img"">
                            </div>
                        </div>","-42","","0","images/gray_41.png","","","","calm"
"","","","","","html-slider-response","192","350915","0.0-182.0","vyfz5q5v2p","NaN","<div style=""width:500px;"">
                            <p style=""font-size:50px; font-weight:bold;""
                            >calm</p>
                            <div style=""width:240px; margin: auto;"">
                                <img src=""images/gray_11.png"" style= ""width:200px""alt=""img"">
                            </div>
                        </div>","-86","","0","images/gray_11.png","","","","calm"
"","","","","","html-slider-response","193","351764","0.0-183.0","vyfz5q5v2p","NaN","<div style=""width:500px;"">
                            <p style=""font-size:50px; font-weight:bold;""
                            >calm</p>
                            <div style=""width:240px; margin: auto;"">
                                <img src=""images/gray_01.png"" style= ""width:200px""alt=""img"">
                            </div>
                        </div>","-162","","0","images/gray_01.png","","","","calm"
"","","","","","html-slider-response","194","352646","0.0-184.0","vyfz5q5v2p","NaN","<div style=""width:500px;"">
                            <p style=""font-size:50px; font-weight:bold;""
                            >calm</p>
                            <div style=""width:240px; margin: auto;"">
                                <img src=""images/gray_21.png"" style= ""width:200px""alt=""img"">
                            </div>
                        </div>","-106","","0","images/gray_21.png","","","","calm"
"","","","","","html-slider-response","195","353461","0.0-185.0","vyfz5q5v2p","NaN","<div style=""width:500px;"">
                            <p style=""font-size:50px; font-weight:bold;""
                            >calm</p>
                            <div style=""width:240px; margin: auto;"">
                                <img src=""images/gray_25.png"" style= ""width:200px""alt=""img"">
                            </div>
                        </div>","-71","","0","images/gray_25.png","","","","calm"
"","","","","","html-slider-response","196","354344","0.0-186.0","vyfz5q5v2p","NaN","<div style=""width:500px;"">
                            <p style=""font-size:50px; font-weight:bold;""
                            >calm</p>
                            <div style=""width:240px; margin: auto;"">
                                <img src=""images/gray_03.png"" style= ""width:200px""alt=""img"">
                            </div>
                        </div>","-34","","0","images/gray_03.png","","","","calm"
"","","","","","html-slider-response","197","355188","0.0-187.0","vyfz5q5v2p","NaN","<div style=""width:500px;"">
                            <p style=""font-size:50px; font-weight:bold;""
                            >calm</p>
                            <div style=""width:240px; margin: auto;"">
                                <img src=""images/gray_02.png"" style= ""width:200px""alt=""img"">
                            </div>
                        </div>","26","","0","images/gray_02.png","","","","calm"
"","","","","","html-slider-response","198","355993","0.0-188.0","vyfz5q5v2p","NaN","<div style=""width:500px;"">
                            <p style=""font-size:50px; font-weight:bold;""
                            >calm</p>
                            <div style=""width:240px; margin: auto;"">
                                <img src=""images/gray_40.png"" style= ""width:200px""alt=""img"">
                            </div>
                        </div>","61","","0","images/gray_40.png","","","","calm"
"","","","","","html-slider-response","199","356649","0.0-189.0","vyfz5q5v2p","NaN","<div style=""width:500px;"">
                            <p style=""font-size:50px; font-weight:bold;""
                            >calm</p>
                            <div style=""width:240px; margin: auto;"">
                                <img src=""images/gray_39.png"" style= ""width:200px""alt=""img"">
                            </div>
                        </div>","92","","0","images/gray_39.png","","","","calm"
"","","","","","html-slider-response","200","357412","0.0-190.0","vyfz5q5v2p","NaN","<div style=""width:500px;"">
                            <p style=""font-size:50px; font-weight:bold;""
                            >calm</p>
                            <div style=""width:240px; margin: auto;"">
                                <img src=""images/gray_28.png"" style= ""width:200px""alt=""img"">
                            </div>
                        </div>","92","","0","images/gray_28.png","","","","calm"
"","","","","","html-slider-response","201","358191","0.0-191.0","vyfz5q5v2p","NaN","<div style=""width:500px;"">
