"success","timeout","failed_images","failed_audio","failed_video","trial_type","trial_index","time_elapsed","internal_node_id","subject_id","condition_num","rt","stimulus","response","question_order","slider_start","image_path","practiceTrial","practiceTrialNum","correct","concept","repetition","hue","lightness","saturation","shift","ishihara_plate","correct_response"
"true","false","[]","[]","[]","preload","0","3725","0.0-0.0","3prgl6da3v","8","","","","","","","","","","","","","","","","",""
"","","","","","html-button-response","1","159586","0.0-1.0","3prgl6da3v","8","155858","Welcome to our experiment!<p>At the bottom of this screen, you will see a button that says ""Begin Experiment"".<br>Please only click that button when you are ready to complete the 25 minute experiment in one sitting.</p><p> Once you click that button, it will not be possible to restart the experiment.","0","","","","","","","","","","","","","",""
"true","","","","","fullscreen","2","162127","0.0-2.0","3prgl6da3v","8","1491","","","","","","","","","","","","","","","",""
"","","","","","survey-multi-select","3","300204","0.0-3.0","3prgl6da3v","8","138068","","{""Consent"":[""<strong>I consent</strong>""]}","[0]","","","","","","","","","","","","",""
"","","","","","html-button-response","4","304615","0.0-4.0","3prgl6da3v","8","4408","Welcome! <p> This experiment involves two parts: demographic information, followed by the experimental task.<p> It will take about 25 minutes to complete both parts.","0","","","","","","","","","","","","","",""
"","","","","","survey-text","5","319936","0.0-5.0","3prgl6da3v","8","15289","","{""Age"":""19"",""Gender"":""Female"",""Race/ethnicity"":""White"",""Languages"":""English""}","","","","","","","","","","","","","",""
"","","","","","html-slider-response","6","362807","0.0-6.0","3prgl6da3v","8","42862","
                            <div style='text-align:left; font-size:20px; line-height:25px; width: 1400px;'>
                                During this experiment you will be asked to rate how much you associate maps with                    different concepts.<br> Below, you can see some examples of the maps you will be asked to rate. Next to the maps
                    is the list of concepts.<br>You will be asked                    to rate how much you associate each map with each concept on a scale from 'not at all' to 'very much' like the
                    one below. <br><br>
                    Now, please look at the list of concepts and maps. For each concept, think about the map you associate 'very
                    much' with the concept.<br>                     When you see that map during the experiment, please rate it near the 'very much' endpoint of the
                    scale.<br>Now, please think about which map you associate 'not at all'                     with each concept. When you see that map during the experiment, please rate it near the 'not at all' endpoint
                    of the scale.<br>
                    Please use the full range of the scale. That is, if a map is somewhat associated with the concept, you would
                    click partway between the middle point and right side of the scale.                    You will be asked to rate each map for a given concept before moving on to the next concept.<br><br>Press the
                    'Continue' button for instructions on how to use the slider.                    <br><br>
                </div>

                <div style=""width: 500px; margin: 0 auto;"">
                    <!-- Centered text paragraphs -->
                    <div style=""text-align: center; width: 500px;"">
                        <p style=""font-size:25px; line-height:18px;"">calm</p>
                        <p style=""font-size:25px; line-height:18px;"">positive</p>
                        <p style=""font-size:25px;line-height:18px;"">negative</p>
                        <p style=""font-size:25px;line-height:18px;"">startling</p>
                    </div>

                    <!-- Grid section -->
                   <div style=""display: flex; justify-content: center; padding-top: 15px;"">
                    <div style=""display: grid; grid-template-columns: repeat(8, 80px); grid-gap: 5px; width: auto;"">
                        <img src=""images/G_L_S_33_darkshift.png"" alt=""map"" style=""width: 100%;""><img src=""images/Y_D_S_15_darkshift.png"" alt=""map"" style=""width: 100%;""><img src=""images/Y_D_S_15_lightshift.png"" alt=""map"" style=""width: 100%;""><img src=""images/B_L_U_5_darkshift.png"" alt=""map"" style=""width: 100%;""><img src=""images/B_L_S_2_darkshift.png"" alt=""map"" style=""width: 100%;""><img src=""images/Y_L_S_12_lightshift.png"" alt=""map"" style=""width: 100%;""><img src=""images/G_D_S_41_lightshift.png"" alt=""map"" style=""width: 100%;""><img src=""images/R_D_U_30_darkshift.png"" alt=""map"" style=""width: 100%;""><img src=""images/B_D_U_10_lightshift.png"" alt=""map"" style=""width: 100%;""><img src=""images/R_L_S_26_darkshift.png"" alt=""map"" style=""width: 100%;""><img src=""images/B_D_S_7_darkshift.png"" alt=""map"" style=""width: 100%;""><img src=""images/Y_L_S_12_darkshift.png"" alt=""map"" style=""width: 100%;""><img src=""images/B_D_S_7_lightshift.png"" alt=""map"" style=""width: 100%;""><img src=""images/G_L_U_37_darkshift.png"" alt=""map"" style=""width: 100%;""><img src=""images/R_D_S_28_darkshift.png"" alt=""map"" style=""width: 100%;""><img src=""images/R_L_S_26_lightshift.png"" alt=""map"" style=""width: 100%;""><img src=""images/G_L_U_37_lightshift.png"" alt=""map"" style=""width: 100%;""><img src=""images/R_L_U_27_darkshift.png"" alt=""map"" style=""width: 100%;""><img src=""images/G_L_S_33_lightshift.png"" alt=""map"" style=""width: 100%;""><img src=""images/B_L_U_5_lightshift.png"" alt=""map"" style=""width: 100%;""><img src=""images/Y_D_U_23_darkshift.png"" alt=""map"" style=""width: 100%;""><img src=""images/Y_D_U_23_lightshift.png"" alt=""map"" style=""width: 100%;""><img src=""images/G_D_U_44_darkshift.png"" alt=""map"" style=""width: 100%;""><img src=""images/R_D_S_28_lightshift.png"" alt=""map"" style=""width: 100%;""><img src=""images/B_D_U_10_darkshift.png"" alt=""map"" style=""width: 100%;""><img src=""images/G_D_S_41_darkshift.png"" alt=""map"" style=""width: 100%;""><img src=""images/Y_L_U_13_darkshift.png"" alt=""map"" style=""width: 100%;""><img src=""images/R_D_U_30_lightshift.png"" alt=""map"" style=""width: 100%;""><img src=""images/B_L_S_2_lightshift.png"" alt=""map"" style=""width: 100%;""><img src=""images/G_D_U_44_lightshift.png"" alt=""map"" style=""width: 100%;""><img src=""images/Y_L_U_13_lightshift.png"" alt=""map"" style=""width: 100%;""><img src=""images/R_L_U_27_lightshift.png"" alt=""map"" style=""width: 100%;"">
                    </div>
                </div>

                    <!-- Clear floats -->
                    <div style=""clear: both;""></div>
                </div>
                            ","null","","0","maps_anchoring.png","true","","","","","","","","","",""
"","","","","","html-button-response","7","368840","0.0-7.0","3prgl6da3v","8","6028","<div style=""width:800px;""><p style=""text-align:left"">To move the slider, click and drag your cursor to the location of the scale where you would like to make your rating and then let go. When you let go of the slider, your response will be recorded and the next trial will begin. <br>
                    We are interested in your initial impressions of each map for the given concept, so please go with your first intuition. <br>
                    Before you begin the experiment, there will be four training trials for you to practice using the scale. <br>
                     When you are ready to start the training trials, please click ""Continue"".</p><br></div>","0","","","","","","","","","","","","","",""
"","","","","","html-slider-response","8","373098","0.0-8.0-0.0","3prgl6da3v","8","NaN","<div style=""width:500px;"">
                                    <p style=""font-size:25px;"">Please move the slider all the way to the <br> right endpoint of the scale</p>

                                    </div>
                                </div>","200","","0","","true","0","true","","","","","","","",""
"","","","","","html-button-response","9","374892","0.0-8.0-1.0","3prgl6da3v","8","1276","<p align='center'><b>Good job!</b> Click on 'Continue' to proceed.</p>","0","","","","","","","","","","","","","",""
"","","","","","html-slider-response","10","377665","0.0-9.0-0.0","3prgl6da3v","8","NaN","<div style=""width:500px;"">
                                    <p style=""font-size:25px;"">Please move the slider all the way to the <br> left endpoint of the scale</p>

                                    </div>
                                </div>","-200","","0","","true","1","true","","","","","","","",""
"","","","","","html-button-response","11","379684","0.0-9.0-1.0","3prgl6da3v","8","1512","<p align='center'><b>Good job!</b> Click on 'Continue' to proceed.</p>","0","","","","","","","","","","","","","",""
"","","","","","html-slider-response","12","383897","0.0-10.0-0.0","3prgl6da3v","8","NaN","<div style=""width:500px;"">
                                    <p style=""font-size:25px;"">Please move the slider halfway between the center and right endpoint of the scale</p>

                                    </div>
                                </div>","106","","0","","true","2","true","","","","","","","",""
"","","","","","html-button-response","13","385412","0.0-10.0-1.0","3prgl6da3v","8","1009","<p align='center'><b>Good job!</b> Click on 'Continue' to proceed.</p>","0","","","","","","","","","","","","","",""
"","","","","","html-slider-response","14","389164","0.0-11.0-0.0","3prgl6da3v","8","NaN","<div style=""width:500px;"">
                                    <p style=""font-size:25px;"">Please move the slider halfway between the center and left endpoint of the scale</p>

                                    </div>
                                </div>","-102","","0","","true","3","true","","","","","","","",""
"","","","","","html-button-response","15","390612","0.0-11.0-1.0","3prgl6da3v","8","940","<p align='center'><b>Good job!</b> Click on 'Continue' to proceed.</p>","0","","","","","","","","","","","","","",""
"","","","","","html-button-response","16","393346","0.0-12.0","3prgl6da3v","8","2732","<p>Great job! You've completed the practice trials. Now you will begin the main task.</p>","0","","","","","","","","","","","","","",""
"","","","","","html-button-response","17","396372","0.0-13.0","3prgl6da3v","8","3023","<p>In this block of trials, you will be asked to rate how much you associate each map with:</p > <p style = 'font-size:150%; font-weight: bold'>positive</p><br></br>","0","","","","","","","","","","","","","",""
"","","","","","html-slider-response","18","401738","0.0-14.0","3prgl6da3v","8","NaN","<div style=""width:500px;"">
                            <p style=""font-size:50px; font-weight:bold;""
                            >positive</p>
                            <div style=""width:240px; margin: auto;"">
                                <img src=""images/B_D_S_7_lightshift.png"" style= ""width:200px""alt=""img"">
                            </div>
                        </div>","75","","0","images/B_D_S_7_lightshift.png","","","","positive","2","B","D","S","lightshift","",""
"","","","","","html-slider-response","19","405704","0.0-15.0","3prgl6da3v","8","NaN","<div style=""width:500px;"">
                            <p style=""font-size:50px; font-weight:bold;""
                            >positive</p>
                            <div style=""width:240px; margin: auto;"">
                                <img src=""images/G_D_S_41_darkshift.png"" style= ""width:200px""alt=""img"">
                            </div>
                        </div>","30","","0","images/G_D_S_41_darkshift.png","","","","positive","2","G","D","S","darkshift","",""
"","","","","","html-slider-response","20","408529","0.0-16.0","3prgl6da3v","8","NaN","<div style=""width:500px;"">
                            <p style=""font-size:50px; font-weight:bold;""
                            >positive</p>
                            <div style=""width:240px; margin: auto;"">
                                <img src=""images/B_D_U_10_lightshift.png"" style= ""width:200px""alt=""img"">
                            </div>
                        </div>","106","","0","images/B_D_U_10_lightshift.png","","","","positive","2","B","D","U","lightshift","",""
"","","","","","html-slider-response","21","410988","0.0-17.0","3prgl6da3v","8","NaN","<div style=""width:500px;"">
                            <p style=""font-size:50px; font-weight:bold;""
                            >positive</p>
                            <div style=""width:240px; margin: auto;"">
                                <img src=""images/G_L_U_37_lightshift.png"" style= ""width:200px""alt=""img"">
                            </div>
                        </div>","127","","0","images/G_L_U_37_lightshift.png","","","","positive","2","G","L","U","lightshift","",""
"","","","","","html-slider-response","22","413657","0.0-18.0","3prgl6da3v","8","NaN","<div style=""width:500px;"">
                            <p style=""font-size:50px; font-weight:bold;""
                            >positive</p>
                            <div style=""width:240px; margin: auto;"">
                                <img src=""images/R_D_U_30_darkshift.png"" style= ""width:200px""alt=""img"">
                            </div>
                        </div>","-29","","0","images/R_D_U_30_darkshift.png","","","","positive","1","R","D","U","darkshift","",""
"","","","","","html-slider-response","23","416105","0.0-19.0","3prgl6da3v","8","NaN","<div style=""width:500px;"">
                            <p style=""font-size:50px; font-weight:bold;""
                            >positive</p>
                            <div style=""width:240px; margin: auto;"">
                                <img src=""images/Y_D_U_23_lightshift.png"" style= ""width:200px""alt=""img"">
                            </div>
                        </div>","-78","","0","images/Y_D_U_23_lightshift.png","","","","positive","1","Y","D","U","lightshift","",""
"","","","","","html-slider-response","24","419077","0.0-20.0","3prgl6da3v","8","NaN","<div style=""width:500px;"">
                            <p style=""font-size:50px; font-weight:bold;""
                            >positive</p>
                            <div style=""width:240px; margin: auto;"">
                                <img src=""images/B_D_U_10_lightshift.png"" style= ""width:200px""alt=""img"">
                            </div>
                        </div>","99","","0","images/B_D_U_10_lightshift.png","","","","positive","1","B","D","U","lightshift","",""
"","","","","","html-slider-response","25","422200","0.0-21.0","3prgl6da3v","8","NaN","<div style=""width:500px;"">
                            <p style=""font-size:50px; font-weight:bold;""
                            >positive</p>
                            <div style=""width:240px; margin: auto;"">
                                <img src=""images/Y_L_U_13_darkshift.png"" style= ""width:200px""alt=""img"">
                            </div>
                        </div>","-94","","0","images/Y_L_U_13_darkshift.png","","","","positive","2","Y","L","U","darkshift","",""
"","","","","","html-slider-response","26","424321","0.0-22.0","3prgl6da3v","8","NaN","<div style=""width:500px;"">
                            <p style=""font-size:50px; font-weight:bold;""
                            >positive</p>
                            <div style=""width:240px; margin: auto;"">
                                <img src=""images/Y_D_S_15_darkshift.png"" style= ""width:200px""alt=""img"">
                            </div>
                        </div>","-119","","0","images/Y_D_S_15_darkshift.png","","","","positive","1","Y","D","S","darkshift","",""
"","","","","","html-slider-response","27","426560","0.0-23.0","3prgl6da3v","8","NaN","<div style=""width:500px;"">
                            <p style=""font-size:50px; font-weight:bold;""
                            >positive</p>
                            <div style=""width:240px; margin: auto;"">
                                <img src=""images/G_D_U_44_darkshift.png"" style= ""width:200px""alt=""img"">
                            </div>
                        </div>","-21","","0","images/G_D_U_44_darkshift.png","","","","positive","2","G","D","U","darkshift","",""
"","","","","","html-slider-response","28","429824","0.0-24.0","3prgl6da3v","8","NaN","<div style=""width:500px;"">
                            <p style=""font-size:50px; font-weight:bold;""
                            >positive</p>
                            <div style=""width:240px; margin: auto;"">
                                <img src=""images/R_L_S_26_lightshift.png"" style= ""width:200px""alt=""img"">
                            </div>
                        </div>","121","","0","images/R_L_S_26_lightshift.png","","","","positive","1","R","L","S","lightshift","",""
"","","","","","html-slider-response","29","432285","0.0-25.0","3prgl6da3v","8","NaN","<div style=""width:500px;"">
                            <p style=""font-size:50px; font-weight:bold;""
                            >positive</p>
                            <div style=""width:240px; margin: auto;"">
                                <img src=""images/R_D_U_30_lightshift.png"" style= ""width:200px""alt=""img"">
                            </div>
                        </div>","-90","","0","images/R_D_U_30_lightshift.png","","","","positive","2","R","D","U","lightshift","",""
"","","","","","html-slider-response","30","434372","0.0-26.0","3prgl6da3v","8","NaN","<div style=""width:500px;"">
                            <p style=""font-size:50px; font-weight:bold;""
                            >positive</p>
                            <div style=""width:240px; margin: auto;"">
                                <img src=""images/Y_L_U_13_lightshift.png"" style= ""width:200px""alt=""img"">
                            </div>
                        </div>","-105","","0","images/Y_L_U_13_lightshift.png","","","","positive","1","Y","L","U","lightshift","",""
"","","","","","html-slider-response","31","436911","0.0-27.0","3prgl6da3v","8","NaN","<div style=""width:500px;"">
                            <p style=""font-size:50px; font-weight:bold;""
                            >positive</p>
                            <div style=""width:240px; margin: auto;"">
                                <img src=""images/Y_D_S_15_lightshift.png"" style= ""width:200px""alt=""img"">
                            </div>
                        </div>","-91","","0","images/Y_D_S_15_lightshift.png","","","","positive","2","Y","D","S","lightshift","",""
"","","","","","html-slider-response","32","440052","0.0-28.0","3prgl6da3v","8","NaN","<div style=""width:500px;"">
                            <p style=""font-size:50px; font-weight:bold;""
                            >positive</p>
                            <div style=""width:240px; margin: auto;"">
                                <img src=""images/G_D_U_44_lightshift.png"" style= ""width:200px""alt=""img"">
                            </div>
                        </div>","16","","0","images/G_D_U_44_lightshift.png","","","","positive","2","G","D","U","lightshift","",""
"","","","","","html-slider-response","33","442622","0.0-29.0","3prgl6da3v","8","NaN","<div style=""width:500px;"">
                            <p style=""font-size:50px; font-weight:bold;""
                            >positive</p>
                            <div style=""width:240px; margin: auto;"">
                                <img src=""images/Y_L_S_12_lightshift.png"" style= ""width:200px""alt=""img"">
                            </div>
                        </div>","-102","","0","images/Y_L_S_12_lightshift.png","","","","positive","2","Y","L","S","lightshift","",""
"","","","","","html-slider-response","34","446459","0.0-30.0","3prgl6da3v","8","NaN","<div style=""width:500px;"">
                            <p style=""font-size:50px; font-weight:bold;""
                            >positive</p>
                            <div style=""width:240px; margin: auto;"">
                                <img src=""images/G_L_U_37_darkshift.png"" style= ""width:200px""alt=""img"">
                            </div>
                        </div>","78","","0","images/G_L_U_37_darkshift.png","","","","positive","1","G","L","U","darkshift","",""
"","","","","","html-slider-response","35","449026","0.0-31.0","3prgl6da3v","8","NaN","<div style=""width:500px;"">
                            <p style=""font-size:50px; font-weight:bold;""
                            >positive</p>
                            <div style=""width:240px; margin: auto;"">
                                <img src=""images/R_L_S_26_darkshift.png"" style= ""width:200px""alt=""img"">
                            </div>
                        </div>","117","","0","images/R_L_S_26_darkshift.png","","","","positive","2","R","L","S","darkshift","",""
"","","","","","html-slider-response","36","451517","0.0-32.0","3prgl6da3v","8","NaN","<div style=""width:500px;"">
                            <p style=""font-size:50px; font-weight:bold;""
                            >positive</p>
                            <div style=""width:240px; margin: auto;"">
                                <img src=""images/G_L_S_33_darkshift.png"" style= ""width:200px""alt=""img"">
                            </div>
                        </div>","25","","0","images/G_L_S_33_darkshift.png","","","","positive","1","G","L","S","darkshift","",""
"","","","","","html-slider-response","37","453841","0.0-33.0","3prgl6da3v","8","NaN","<div style=""width:500px;"">
                            <p style=""font-size:50px; font-weight:bold;""
                            >positive</p>
                            <div style=""width:240px; margin: auto;"">
                                <img src=""images/R_D_S_28_lightshift.png"" style= ""width:200px""alt=""img"">
                            </div>
                        </div>","118","","0","images/R_D_S_28_lightshift.png","","","","positive","2","R","D","S","lightshift","",""
"","","","","","html-slider-response","38","456152","0.0-34.0","3prgl6da3v","8","NaN","<div style=""width:500px;"">
                            <p style=""font-size:50px; font-weight:bold;""
                            >positive</p>
                            <div style=""width:240px; margin: auto;"">
                                <img src=""images/Y_L_U_13_darkshift.png"" style= ""width:200px""alt=""img"">
                            </div>
                        </div>","-100","","0","images/Y_L_U_13_darkshift.png","","","","positive","1","Y","L","U","darkshift","",""
"","","","","","html-slider-response","39","458326","0.0-35.0","3prgl6da3v","8","NaN","<div style=""width:500px;"">
                            <p style=""font-size:50px; font-weight:bold;""
                            >positive</p>
                            <div style=""width:240px; margin: auto;"">
                                <img src=""images/R_D_U_30_lightshift.png"" style= ""width:200px""alt=""img"">
                            </div>
                        </div>","-100","","0","images/R_D_U_30_lightshift.png","","","","positive","1","R","D","U","lightshift","",""
"","","","","","html-slider-response","40","460839","0.0-36.0","3prgl6da3v","8","NaN","<div style=""width:500px;"">
                            <p style=""font-size:50px; font-weight:bold;""
                            >positive</p>
                            <div style=""width:240px; margin: auto;"">
                                <img src=""images/G_L_S_33_darkshift.png"" style= ""width:200px""alt=""img"">
                            </div>
                        </div>","106","","0","images/G_L_S_33_darkshift.png","","","","positive","2","G","L","S","darkshift","",""
"","","","","","html-slider-response","41","463390","0.0-37.0","3prgl6da3v","8","NaN","<div style=""width:500px;"">
                            <p style=""font-size:50px; font-weight:bold;""
                            >positive</p>
                            <div style=""width:240px; margin: auto;"">
                                <img src=""images/Y_L_S_12_darkshift.png"" style= ""width:200px""alt=""img"">
                            </div>
                        </div>","-82","","0","images/Y_L_S_12_darkshift.png","","","","positive","1","Y","L","S","darkshift","",""
"","","","","","html-slider-response","42","465667","0.0-38.0","3prgl6da3v","8","NaN","<div style=""width:500px;"">
                            <p style=""font-size:50px; font-weight:bold;""
                            >positive</p>
                            <div style=""width:240px; margin: auto;"">
                                <img src=""images/B_D_U_10_darkshift.png"" style= ""width:200px""alt=""img"">
                            </div>
                        </div>","102","","0","images/B_D_U_10_darkshift.png","","","","positive","2","B","D","U","darkshift","",""
"","","","","","html-slider-response","43","468180","0.0-39.0","3prgl6da3v","8","NaN","<div style=""width:500px;"">
                            <p style=""font-size:50px; font-weight:bold;""
                            >positive</p>
                            <div style=""width:240px; margin: auto;"">
                                <img src=""images/B_L_U_5_lightshift.png"" style= ""width:200px""alt=""img"">
                            </div>
                        </div>","108","","0","images/B_L_U_5_lightshift.png","","","","positive","1","B","L","U","lightshift","",""
"","","","","","html-slider-response","44","470543","0.0-40.0","3prgl6da3v","8","NaN","<div style=""width:500px;"">
                            <p style=""font-size:50px; font-weight:bold;""
                            >positive</p>
                            <div style=""width:240px; margin: auto;"">
                                <img src=""images/Y_L_S_12_lightshift.png"" style= ""width:200px""alt=""img"">
                            </div>
                        </div>","-110","","0","images/Y_L_S_12_lightshift.png","","","","positive","1","Y","L","S","lightshift","",""
"","","","","","html-slider-response","45","472935","0.0-41.0","3prgl6da3v","8","NaN","<div style=""width:500px;"">
                            <p style=""font-size:50px; font-weight:bold;""
                            >positive</p>
                            <div style=""width:240px; margin: auto;"">
                                <img src=""images/Y_D_S_15_lightshift.png"" style= ""width:200px""alt=""img"">
                            </div>
                        </div>","-102","","0","images/Y_D_S_15_lightshift.png","","","","positive","1","Y","D","S","lightshift","",""
"","","","","","html-slider-response","46","475113","0.0-42.0","3prgl6da3v","8","NaN","<div style=""width:500px;"">
                            <p style=""font-size:50px; font-weight:bold;""
                            >positive</p>
                            <div style=""width:240px; margin: auto;"">
                                <img src=""images/G_L_U_37_lightshift.png"" style= ""width:200px""alt=""img"">
                            </div>
                        </div>","98","","0","images/G_L_U_37_lightshift.png","","","","positive","1","G","L","U","lightshift","",""
"","","","","","html-slider-response","47","477823","0.0-43.0","3prgl6da3v","8","NaN","<div style=""width:500px;"">
                            <p style=""font-size:50px; font-weight:bold;""
                            >positive</p>
                            <div style=""width:240px; margin: auto;"">
                                <img src=""images/B_L_S_2_lightshift.png"" style= ""width:200px""alt=""img"">
                            </div>
                        </div>","175","","0","images/B_L_S_2_lightshift.png","","","","positive","1","B","L","S","lightshift","",""
"","","","","","html-slider-response","48","480391","0.0-44.0","3prgl6da3v","8","NaN","<div style=""width:500px;"">
                            <p style=""font-size:50px; font-weight:bold;""
                            >positive</p>
                            <div style=""width:240px; margin: auto;"">
                                <img src=""images/G_L_S_33_lightshift.png"" style= ""width:200px""alt=""img"">
                            </div>
                        </div>","148","","0","images/G_L_S_33_lightshift.png","","","","positive","2","G","L","S","lightshift","",""
"","","","","","html-slider-response","49","482269","0.0-45.0","3prgl6da3v","8","NaN","<div style=""width:500px;"">
                            <p style=""font-size:50px; font-weight:bold;""
                            >positive</p>
                            <div style=""width:240px; margin: auto;"">
                                <img src=""images/G_D_U_44_lightshift.png"" style= ""width:200px""alt=""img"">
                            </div>
                        </div>","-94","","0","images/G_D_U_44_lightshift.png","","","","positive","1","G","D","U","lightshift","",""
"","","","","","html-slider-response","50","484856","0.0-46.0","3prgl6da3v","8","NaN","<div style=""width:500px;"">
                            <p style=""font-size:50px; font-weight:bold;""
                            >positive</p>
                            <div style=""width:240px; margin: auto;"">
                                <img src=""images/R_D_S_28_darkshift.png"" style= ""width:200px""alt=""img"">
                            </div>
                        </div>","-38","","0","images/R_D_S_28_darkshift.png","","","","positive","2","R","D","S","darkshift","",""
"","","","","","html-slider-response","51","488404","0.0-47.0","3prgl6da3v","8","NaN","<div style=""width:500px;"">
                            <p style=""font-size:50px; font-weight:bold;""
                            >positive</p>
                            <div style=""width:240px; margin: auto;"">
                                <img src=""images/B_L_U_5_darkshift.png"" style= ""width:200px""alt=""img"">
                            </div>
                        </div>","105","","0","images/B_L_U_5_darkshift.png","","","","positive","1","B","L","U","darkshift","",""
"","","","","","html-slider-response","52","493097","0.0-48.0","3prgl6da3v","8","NaN","<div style=""width:500px;"">
                            <p style=""font-size:50px; font-weight:bold;""
                            >positive</p>
                            <div style=""width:240px; margin: auto;"">
                                <img src=""images/Y_D_S_15_darkshift.png"" style= ""width:200px""alt=""img"">
                            </div>
                        </div>","-98","","0","images/Y_D_S_15_darkshift.png","","","","positive","2","Y","D","S","darkshift","",""
"","","","","","html-slider-response","53","496752","0.0-49.0","3prgl6da3v","8","NaN","<div style=""width:500px;"">
                            <p style=""font-size:50px; font-weight:bold;""
                            >positive</p>
                            <div style=""width:240px; margin: auto;"">
                                <img src=""images/R_D_U_30_darkshift.png"" style= ""width:200px""alt=""img"">
                            </div>
                        </div>","-30","","0","images/R_D_U_30_darkshift.png","","","","positive","2","R","D","U","darkshift","",""
"","","","","","html-slider-response","54","499426","0.0-50.0","3prgl6da3v","8","NaN","<div style=""width:500px;"">
                            <p style=""font-size:50px; font-weight:bold;""
                            >positive</p>
                            <div style=""width:240px; margin: auto;"">
                                <img src=""images/G_D_S_41_lightshift.png"" style= ""width:200px""alt=""img"">
                            </div>
                        </div>","-33","","0","images/G_D_S_41_lightshift.png","","","","positive","2","G","D","S","lightshift","",""
"","","","","","html-slider-response","55","501597","0.0-51.0","3prgl6da3v","8","NaN","<div style=""width:500px;"">
                            <p style=""font-size:50px; font-weight:bold;""
                            >positive</p>
                            <div style=""width:240px; margin: auto;"">
                                <img src=""images/B_D_U_10_darkshift.png"" style= ""width:200px""alt=""img"">
                            </div>
                        </div>","-35","","0","images/B_D_U_10_darkshift.png","","","","positive","1","B","D","U","darkshift","",""
"","","","","","html-slider-response","56","504594","0.0-52.0","3prgl6da3v","8","NaN","<div style=""width:500px;"">
                            <p style=""font-size:50px; font-weight:bold;""
                            >positive</p>
                            <div style=""width:240px; margin: auto;"">
                                <img src=""images/B_L_S_2_darkshift.png"" style= ""width:200px""alt=""img"">
                            </div>
                        </div>","162","","0","images/B_L_S_2_darkshift.png","","","","positive","1","B","L","S","darkshift","",""
"","","","","","html-slider-response","57","506957","0.0-53.0","3prgl6da3v","8","NaN","<div style=""width:500px;"">
                            <p style=""font-size:50px; font-weight:bold;""
                            >positive</p>
                            <div style=""width:240px; margin: auto;"">
                                <img src=""images/R_L_S_26_lightshift.png"" style= ""width:200px""alt=""img"">
                            </div>
                        </div>","163","","0","images/R_L_S_26_lightshift.png","","","","positive","2","R","L","S","lightshift","",""
"","","","","","html-slider-response","58","510184","0.0-54.0","3prgl6da3v","8","NaN","<div style=""width:500px;"">
                            <p style=""font-size:50px; font-weight:bold;""
                            >positive</p>
                            <div style=""width:240px; margin: auto;"">
                                <img src=""images/G_D_S_41_lightshift.png"" style= ""width:200px""alt=""img"">
                            </div>
                        </div>","33","","0","images/G_D_S_41_lightshift.png","","","","positive","1","G","D","S","lightshift","",""
"","","","","","html-slider-response","59","512640","0.0-55.0","3prgl6da3v","8","NaN","<div style=""width:500px;"">
                            <p style=""font-size:50px; font-weight:bold;""
                            >positive</p>
                            <div style=""width:240px; margin: auto;"">
                                <img src=""images/B_D_S_7_darkshift.png"" style= ""width:200px""alt=""img"">
                            </div>
                        </div>","48","","0","images/B_D_S_7_darkshift.png","","","","positive","1","B","D","S","darkshift","",""
"","","","","","html-slider-response","60","514679","0.0-56.0","3prgl6da3v","8","NaN","<div style=""width:500px;"">
                            <p style=""font-size:50px; font-weight:bold;""
                            >positive</p>
                            <div style=""width:240px; margin: auto;"">
                                <img src=""images/Y_D_U_23_darkshift.png"" style= ""width:200px""alt=""img"">
                            </div>
                        </div>","-117","","0","images/Y_D_U_23_darkshift.png","","","","positive","2","Y","D","U","darkshift","",""
"","","","","","html-slider-response","61","517550","0.0-57.0","3prgl6da3v","8","NaN","<div style=""width:500px;"">
                            <p style=""font-size:50px; font-weight:bold;""
                            >positive</p>
                            <div style=""width:240px; margin: auto;"">
                                <img src=""images/B_L_S_2_lightshift.png"" style= ""width:200px""alt=""img"">
                            </div>
                        </div>","59","","0","images/B_L_S_2_lightshift.png","","","","positive","2","B","L","S","lightshift","",""
"","","","","","html-slider-response","62","519688","0.0-58.0","3prgl6da3v","8","NaN","<div style=""width:500px;"">
                            <p style=""font-size:50px; font-weight:bold;""
                            >positive</p>
                            <div style=""width:240px; margin: auto;"">
                                <img src=""images/B_D_S_7_darkshift.png"" style= ""width:200px""alt=""img"">
                            </div>
                        </div>","110","","0","images/B_D_S_7_darkshift.png","","","","positive","2","B","D","S","darkshift","",""
"","","","","","html-slider-response","63","522229","0.0-59.0","3prgl6da3v","8","NaN","<div style=""width:500px;"">
                            <p style=""font-size:50px; font-weight:bold;""
                            >positive</p>
                            <div style=""width:240px; margin: auto;"">
                                <img src=""images/R_L_U_27_lightshift.png"" style= ""width:200px""alt=""img"">
                            </div>
                        </div>","27","","0","images/R_L_U_27_lightshift.png","","","","positive","2","R","L","U","lightshift","",""
"","","","","","html-slider-response","64","525902","0.0-60.0","3prgl6da3v","8","NaN","<div style=""width:500px;"">
                            <p style=""font-size:50px; font-weight:bold;""
                            >positive</p>
                            <div style=""width:240px; margin: auto;"">
                                <img src=""images/R_D_S_28_darkshift.png"" style= ""width:200px""alt=""img"">
                            </div>
                        </div>","54","","0","images/R_D_S_28_darkshift.png","","","","positive","1","R","D","S","darkshift","",""
"","","","","","html-slider-response","65","527981","0.0-61.0","3prgl6da3v","8","NaN","<div style=""width:500px;"">
                            <p style=""font-size:50px; font-weight:bold;""
                            >positive</p>
                            <div style=""width:240px; margin: auto;"">
                                <img src=""images/Y_L_S_12_darkshift.png"" style= ""width:200px""alt=""img"">
                            </div>
                        </div>","-75","","0","images/Y_L_S_12_darkshift.png","","","","positive","2","Y","L","S","darkshift","",""
"","","","","","html-slider-response","66","530321","0.0-62.0","3prgl6da3v","8","NaN","<div style=""width:500px;"">
                            <p style=""font-size:50px; font-weight:bold;""
                            >positive</p>
                            <div style=""width:240px; margin: auto;"">
                                <img src=""images/G_L_S_33_lightshift.png"" style= ""width:200px""alt=""img"">
                            </div>
                        </div>","105","","0","images/G_L_S_33_lightshift.png","","","","positive","1","G","L","S","lightshift","",""
"","","","","","html-slider-response","67","532692","0.0-63.0","3prgl6da3v","8","NaN","<div style=""width:500px;"">
                            <p style=""font-size:50px; font-weight:bold;""
                            >positive</p>
                            <div style=""width:240px; margin: auto;"">
                                <img src=""images/B_L_U_5_darkshift.png"" style= ""width:200px""alt=""img"">
                            </div>
                        </div>","112","","0","images/B_L_U_5_darkshift.png","","","","positive","2","B","L","U","darkshift","",""
"","","","","","html-slider-response","68","535336","0.0-64.0","3prgl6da3v","8","NaN","<div style=""width:500px;"">
                            <p style=""font-size:50px; font-weight:bold;""
                            >positive</p>
                            <div style=""width:240px; margin: auto;"">
                                <img src=""images/Y_L_U_13_lightshift.png"" style= ""width:200px""alt=""img"">
                            </div>
                        </div>","-31","","0","images/Y_L_U_13_lightshift.png","","","","positive","2","Y","L","U","lightshift","",""
"","","","","","html-slider-response","69","537284","0.0-65.0","3prgl6da3v","8","NaN","<div style=""width:500px;"">
                            <p style=""font-size:50px; font-weight:bold;""
                            >positive</p>
                            <div style=""width:240px; margin: auto;"">
                                <img src=""images/R_L_S_26_darkshift.png"" style= ""width:200px""alt=""img"">
                            </div>
                        </div>","48","","0","images/R_L_S_26_darkshift.png","","","","positive","1","R","L","S","darkshift","",""
"","","","","","html-slider-response","70","539278","0.0-66.0","3prgl6da3v","8","NaN","<div style=""width:500px;"">
                            <p style=""font-size:50px; font-weight:bold;""
                            >positive</p>
                            <div style=""width:240px; margin: auto;"">
                                <img src=""images/R_D_S_28_lightshift.png"" style= ""width:200px""alt=""img"">
                            </div>
                        </div>","39","","0","images/R_D_S_28_lightshift.png","","","","positive","1","R","D","S","lightshift","",""
"","","","","","html-slider-response","71","544694","0.0-67.0","3prgl6da3v","8","NaN","<div style=""width:500px;"">
                            <p style=""font-size:50px; font-weight:bold;""
                            >positive</p>
                            <div style=""width:240px; margin: auto;"">
                                <img src=""images/G_D_S_41_darkshift.png"" style= ""width:200px""alt=""img"">
                            </div>
                        </div>","38","","0","images/G_D_S_41_darkshift.png","","","","positive","1","G","D","S","darkshift","",""
"","","","","","html-slider-response","72","547404","0.0-68.0","3prgl6da3v","8","NaN","<div style=""width:500px;"">
                            <p style=""font-size:50px; font-weight:bold;""
                            >positive</p>
                            <div style=""width:240px; margin: auto;"">
                                <img src=""images/Y_D_U_23_darkshift.png"" style= ""width:200px""alt=""img"">
                            </div>
                        </div>","-154","","0","images/Y_D_U_23_darkshift.png","","","","positive","1","Y","D","U","darkshift","",""
"","","","","","html-slider-response","73","549558","0.0-69.0","3prgl6da3v","8","NaN","<div style=""width:500px;"">
                            <p style=""font-size:50px; font-weight:bold;""
                            >positive</p>
                            <div style=""width:240px; margin: auto;"">
                                <img src=""images/B_L_S_2_darkshift.png"" style= ""width:200px""alt=""img"">
                            </div>
                        </div>","34","","0","images/B_L_S_2_darkshift.png","","","","positive","2","B","L","S","darkshift","",""
"","","","","","html-slider-response","74","552929","0.0-70.0","3prgl6da3v","8","NaN","<div style=""width:500px;"">
                            <p style=""font-size:50px; font-weight:bold;""
                            >positive</p>
                            <div style=""width:240px; margin: auto;"">
                                <img src=""images/Y_D_U_23_lightshift.png"" style= ""width:200px""alt=""img"">
                            </div>
                        </div>","-164","","0","images/Y_D_U_23_lightshift.png","","","","positive","2","Y","D","U","lightshift","",""
"","","","","","html-slider-response","75","555513","0.0-71.0","3prgl6da3v","8","NaN","<div style=""width:500px;"">
                            <p style=""font-size:50px; font-weight:bold;""
                            >positive</p>
                            <div style=""width:240px; margin: auto;"">
                                <img src=""images/B_L_U_5_lightshift.png"" style= ""width:200px""alt=""img"">
                            </div>
                        </div>","43","","0","images/B_L_U_5_lightshift.png","","","","positive","2","B","L","U","lightshift","",""
"","","","","","html-slider-response","76","557811","0.0-72.0","3prgl6da3v","8","NaN","<div style=""width:500px;"">
                            <p style=""font-size:50px; font-weight:bold;""
                            >positive</p>
                            <div style=""width:240px; margin: auto;"">
                                <img src=""images/R_L_U_27_darkshift.png"" style= ""width:200px""alt=""img"">
                            </div>
                        </div>","63","","0","images/R_L_U_27_darkshift.png","","","","positive","2","R","L","U","darkshift","",""
"","","","","","html-slider-response","77","560164","0.0-73.0","3prgl6da3v","8","NaN","<div style=""width:500px;"">
                            <p style=""font-size:50px; font-weight:bold;""
                            >positive</p>
                            <div style=""width:240px; margin: auto;"">
                                <img src=""images/G_L_U_37_darkshift.png"" style= ""width:200px""alt=""img"">
                            </div>
                        </div>","42","","0","images/G_L_U_37_darkshift.png","","","","positive","2","G","L","U","darkshift","",""
"","","","","","html-slider-response","78","562632","0.0-74.0","3prgl6da3v","8","NaN","<div style=""width:500px;"">
                            <p style=""font-size:50px; font-weight:bold;""
                            >positive</p>
                            <div style=""width:240px; margin: auto;"">
                                <img src=""images/G_D_U_44_darkshift.png"" style= ""width:200px""alt=""img"">
                            </div>
                        </div>","15","","0","images/G_D_U_44_darkshift.png","","","","positive","1","G","D","U","darkshift","",""
"","","","","","html-slider-response","79","564722","0.0-75.0","3prgl6da3v","8","NaN","<div style=""width:500px;"">
                            <p style=""font-size:50px; font-weight:bold;""
                            >positive</p>
                            <div style=""width:240px; margin: auto;"">
                                <img src=""images/R_L_U_27_darkshift.png"" style= ""width:200px""alt=""img"">
                            </div>
                        </div>","73","","0","images/R_L_U_27_darkshift.png","","","","positive","1","R","L","U","darkshift","",""
"","","","","","html-slider-response","80","566571","0.0-76.0","3prgl6da3v","8","NaN","<div style=""width:500px;"">
                            <p style=""font-size:50px; font-weight:bold;""
                            >positive</p>
                            <div style=""width:240px; margin: auto;"">
                                <img src=""images/B_D_S_7_lightshift.png"" style= ""width:200px""alt=""img"">
                            </div>
                        </div>","98","","0","images/B_D_S_7_lightshift.png","","","","positive","1","B","D","S","lightshift","",""
"","","","","","html-slider-response","81","571517","0.0-77.0","3prgl6da3v","8","NaN","<div style=""width:500px;"">
                            <p style=""font-size:50px; font-weight:bold;""
                            >positive</p>
                            <div style=""width:240px; margin: auto;"">
                                <img src=""images/R_L_U_27_lightshift.png"" style= ""width:200px""alt=""img"">
                            </div>
                        </div>","50","","0","images/R_L_U_27_lightshift.png","","","","positive","1","R","L","U","lightshift","",""
"","","","","","html-button-response","82","574308","0.0-78.0","3prgl6da3v","8","2279","<p>Great Job! You've finished block 1.<br></br> You have 3 block(s) left to go.<br></br></p>","0","","","","","","","","","","","","","",""
"","","","","","html-button-response","83","575495","0.0-79.0","3prgl6da3v","8","1184","<p>In this block of trials, you will be asked to rate how much you associate each map with:</p > <p style = 'font-size:150%; font-weight: bold'>calm</p><br></br>","0","","","","","","","","","","","","","",""
"","","","","","html-slider-response","84","577940","0.0-80.0","3prgl6da3v","8","NaN","<div style=""width:500px;"">
                            <p style=""font-size:50px; font-weight:bold;""
                            >calm</p>
                            <div style=""width:240px; margin: auto;"">
                                <img src=""images/Y_D_S_15_darkshift.png"" style= ""width:200px""alt=""img"">
                            </div>
                        </div>","-51","","0","images/Y_D_S_15_darkshift.png","","","","calm","1","Y","D","S","darkshift","",""
"","","","","","html-slider-response","85","580774","0.0-81.0","3prgl6da3v","8","NaN","<div style=""width:500px;"">
                            <p style=""font-size:50px; font-weight:bold;""
                            >calm</p>
                            <div style=""width:240px; margin: auto;"">
                                <img src=""images/B_D_S_7_darkshift.png"" style= ""width:200px""alt=""img"">
                            </div>
                        </div>","174","","0","images/B_D_S_7_darkshift.png","","","","calm","1","B","D","S","darkshift","",""
"","","","","","html-slider-response","86","582275","0.0-82.0","3prgl6da3v","8","NaN","<div style=""width:500px;"">
                            <p style=""font-size:50px; font-weight:bold;""
                            >calm</p>
                            <div style=""width:240px; margin: auto;"">
                                <img src=""images/B_D_U_10_darkshift.png"" style= ""width:200px""alt=""img"">
                            </div>
                        </div>","174","","0","images/B_D_U_10_darkshift.png","","","","calm","2","B","D","U","darkshift","",""
"","","","","","html-slider-response","87","584798","0.0-83.0","3prgl6da3v","8","NaN","<div style=""width:500px;"">
                            <p style=""font-size:50px; font-weight:bold;""
                            >calm</p>
                            <div style=""width:240px; margin: auto;"">
                                <img src=""images/Y_D_U_23_darkshift.png"" style= ""width:200px""alt=""img"">
                            </div>
                        </div>","-132","","0","images/Y_D_U_23_darkshift.png","","","","calm","2","Y","D","U","darkshift","",""
"","","","","","html-slider-response","88","587227","0.0-84.0","3prgl6da3v","8","NaN","<div style=""width:500px;"">
                            <p style=""font-size:50px; font-weight:bold;""
                            >calm</p>
                            <div style=""width:240px; margin: auto;"">
                                <img src=""images/R_L_U_27_darkshift.png"" style= ""width:200px""alt=""img"">
                            </div>
                        </div>","41","","0","images/R_L_U_27_darkshift.png","","","","calm","2","R","L","U","darkshift","",""
"","","","","","html-slider-response","89","589161","0.0-85.0","3prgl6da3v","8","NaN","<div style=""width:500px;"">
                            <p style=""font-size:50px; font-weight:bold;""
                            >calm</p>
                            <div style=""width:240px; margin: auto;"">
                                <img src=""images/B_D_S_7_lightshift.png"" style= ""width:200px""alt=""img"">
                            </div>
                        </div>","174","","0","images/B_D_S_7_lightshift.png","","","","calm","1","B","D","S","lightshift","",""
"","","","","","html-slider-response","90","590884","0.0-86.0","3prgl6da3v","8","NaN","<div style=""width:500px;"">
                            <p style=""font-size:50px; font-weight:bold;""
                            >calm</p>
                            <div style=""width:240px; margin: auto;"">
                                <img src=""images/B_L_S_2_darkshift.png"" style= ""width:200px""alt=""img"">
                            </div>
                        </div>","169","","0","images/B_L_S_2_darkshift.png","","","","calm","1","B","L","S","darkshift","",""
"","","","","","html-slider-response","91","593519","0.0-87.0","3prgl6da3v","8","NaN","<div style=""width:500px;"">
                            <p style=""font-size:50px; font-weight:bold;""
                            >calm</p>
                            <div style=""width:240px; margin: auto;"">
                                <img src=""images/G_D_U_44_darkshift.png"" style= ""width:200px""alt=""img"">
                            </div>
                        </div>","117","","0","images/G_D_U_44_darkshift.png","","","","calm","1","G","D","U","darkshift","",""
"","","","","","html-slider-response","92","595755","0.0-88.0","3prgl6da3v","8","NaN","<div style=""width:500px;"">
                            <p style=""font-size:50px; font-weight:bold;""
                            >calm</p>
                            <div style=""width:240px; margin: auto;"">
                                <img src=""images/R_D_U_30_darkshift.png"" style= ""width:200px""alt=""img"">
                            </div>
                        </div>","-23","","0","images/R_D_U_30_darkshift.png","","","","calm","2","R","D","U","darkshift","",""
"","","","","","html-slider-response","93","597688","0.0-89.0","3prgl6da3v","8","NaN","<div style=""width:500px;"">
                            <p style=""font-size:50px; font-weight:bold;""
                            >calm</p>
                            <div style=""width:240px; margin: auto;"">
                                <img src=""images/Y_D_U_23_lightshift.png"" style= ""width:200px""alt=""img"">
                            </div>
                        </div>","-86","","0","images/Y_D_U_23_lightshift.png","","","","calm","1","Y","D","U","lightshift","",""
"","","","","","html-slider-response","94","601364","0.0-90.0","3prgl6da3v","8","NaN","<div style=""width:500px;"">
                            <p style=""font-size:50px; font-weight:bold;""
                            >calm</p>
                            <div style=""width:240px; margin: auto;"">
                                <img src=""images/G_D_S_41_lightshift.png"" style= ""width:200px""alt=""img"">
                            </div>
                        </div>","20","","0","images/G_D_S_41_lightshift.png","","","","calm","2","G","D","S","lightshift","",""
"","","","","","html-slider-response","95","604383","0.0-91.0","3prgl6da3v","8","NaN","<div style=""width:500px;"">
                            <p style=""font-size:50px; font-weight:bold;""
                            >calm</p>
                            <div style=""width:240px; margin: auto;"">
                                <img src=""images/G_D_U_44_darkshift.png"" style= ""width:200px""alt=""img"">
                            </div>
                        </div>","134","","0","images/G_D_U_44_darkshift.png","","","","calm","2","G","D","U","darkshift","",""
"","","","","","html-slider-response","96","606498","0.0-92.0","3prgl6da3v","8","NaN","<div style=""width:500px;"">
                            <p style=""font-size:50px; font-weight:bold;""
                            >calm</p>
                            <div style=""width:240px; margin: auto;"">
                                <img src=""images/Y_L_U_13_darkshift.png"" style= ""width:200px""alt=""img"">
                            </div>
                        </div>","-100","","0","images/Y_L_U_13_darkshift.png","","","","calm","2","Y","L","U","darkshift","",""
"","","","","","html-slider-response","97","608745","0.0-93.0","3prgl6da3v","8","NaN","<div style=""width:500px;"">
                            <p style=""font-size:50px; font-weight:bold;""
                            >calm</p>
                            <div style=""width:240px; margin: auto;"">
                                <img src=""images/B_D_U_10_lightshift.png"" style= ""width:200px""alt=""img"">
                            </div>
                        </div>","170","","0","images/B_D_U_10_lightshift.png","","","","calm","2","B","D","U","lightshift","",""
"","","","","","html-slider-response","98","614395","0.0-94.0","3prgl6da3v","8","NaN","<div style=""width:500px;"">
                            <p style=""font-size:50px; font-weight:bold;""
                            >calm</p>
                            <div style=""width:240px; margin: auto;"">
                                <img src=""images/R_L_S_26_lightshift.png"" style= ""width:200px""alt=""img"">
                            </div>
                        </div>","77","","0","images/R_L_S_26_lightshift.png","","","","calm","2","R","L","S","lightshift","",""
"","","","","","html-slider-response","99","616182","0.0-95.0","3prgl6da3v","8","NaN","<div style=""width:500px;"">
                            <p style=""font-size:50px; font-weight:bold;""
                            >calm</p>
                            <div style=""width:240px; margin: auto;"">
                                <img src=""images/R_D_S_28_lightshift.png"" style= ""width:200px""alt=""img"">
                            </div>
                        </div>","59","","0","images/R_D_S_28_lightshift.png","","","","calm","1","R","D","S","lightshift","",""
"","","","","","html-slider-response","100","618500","0.0-96.0","3prgl6da3v","8","NaN","<div style=""width:500px;"">
                            <p style=""font-size:50px; font-weight:bold;""
                            >calm</p>
                            <div style=""width:240px; margin: auto;"">
                                <img src=""images/R_L_S_26_darkshift.png"" style= ""width:200px""alt=""img"">
                            </div>
                        </div>","39","","0","images/R_L_S_26_darkshift.png","","","","calm","1","R","L","S","darkshift","",""
"","","","","","html-slider-response","101","620699","0.0-97.0","3prgl6da3v","8","NaN","<div style=""width:500px;"">
                            <p style=""font-size:50px; font-weight:bold;""
                            >calm</p>
                            <div style=""width:240px; margin: auto;"">
                                <img src=""images/G_L_S_33_darkshift.png"" style= ""width:200px""alt=""img"">
                            </div>
                        </div>","117","","0","images/G_L_S_33_darkshift.png","","","","calm","1","G","L","S","darkshift","",""
"","","","","","html-slider-response","102","622604","0.0-98.0","3prgl6da3v","8","NaN","<div style=""width:500px;"">
                            <p style=""font-size:50px; font-weight:bold;""
                            >calm</p>
                            <div style=""width:240px; margin: auto;"">
                                <img src=""images/B_L_U_5_lightshift.png"" style= ""width:200px""alt=""img"">
                            </div>
                        </div>","166","","0","images/B_L_U_5_lightshift.png","","","","calm","1","B","L","U","lightshift","",""
"","","","","","html-slider-response","103","625039","0.0-99.0","3prgl6da3v","8","NaN","<div style=""width:500px;"">
                            <p style=""font-size:50px; font-weight:bold;""
                            >calm</p>
                            <div style=""width:240px; margin: auto;"">
                                <img src=""images/R_D_S_28_darkshift.png"" style= ""width:200px""alt=""img"">
                            </div>
                        </div>","43","","0","images/R_D_S_28_darkshift.png","","","","calm","1","R","D","S","darkshift","",""
"","","","","","html-slider-response","104","627188","0.0-100.0","3prgl6da3v","8","NaN","<div style=""width:500px;"">
                            <p style=""font-size:50px; font-weight:bold;""
                            >calm</p>
                            <div style=""width:240px; margin: auto;"">
                                <img src=""images/Y_L_S_12_lightshift.png"" style= ""width:200px""alt=""img"">
                            </div>
                        </div>","-113","","0","images/Y_L_S_12_lightshift.png","","","","calm","2","Y","L","S","lightshift","",""
"","","","","","html-slider-response","105","628938","0.0-101.0","3prgl6da3v","8","NaN","<div style=""width:500px;"">
                            <p style=""font-size:50px; font-weight:bold;""
                            >calm</p>
                            <div style=""width:240px; margin: auto;"">
                                <img src=""images/Y_L_U_13_darkshift.png"" style= ""width:200px""alt=""img"">
                            </div>
                        </div>","-77","","0","images/Y_L_U_13_darkshift.png","","","","calm","1","Y","L","U","darkshift","",""
"","","","","","html-slider-response","106","630267","0.0-102.0","3prgl6da3v","8","NaN","<div style=""width:500px;"">
                            <p style=""font-size:50px; font-weight:bold;""
                            >calm</p>
                            <div style=""width:240px; margin: auto;"">
                                <img src=""images/Y_D_U_23_darkshift.png"" style= ""width:200px""alt=""img"">
                            </div>
                        </div>","-77","","0","images/Y_D_U_23_darkshift.png","","","","calm","1","Y","D","U","darkshift","",""
"","","","","","html-slider-response","107","632473","0.0-103.0","3prgl6da3v","8","NaN","<div style=""width:500px;"">
                            <p style=""font-size:50px; font-weight:bold;""
                            >calm</p>
                            <div style=""width:240px; margin: auto;"">
                                <img src=""images/G_D_S_41_darkshift.png"" style= ""width:200px""alt=""img"">
                            </div>
                        </div>","100","","0","images/G_D_S_41_darkshift.png","","","","calm","2","G","D","S","darkshift","",""
"","","","","","html-slider-response","108","634667","0.0-104.0","3prgl6da3v","8","NaN","<div style=""width:500px;"">
                            <p style=""font-size:50px; font-weight:bold;""
                            >calm</p>
                            <div style=""width:240px; margin: auto;"">
                                <img src=""images/G_L_U_37_darkshift.png"" style= ""width:200px""alt=""img"">
                            </div>
                        </div>","115","","0","images/G_L_U_37_darkshift.png","","","","calm","2","G","L","U","darkshift","",""
"","","","","","html-slider-response","109","636919","0.0-105.0","3prgl6da3v","8","NaN","<div style=""width:500px;"">
                            <p style=""font-size:50px; font-weight:bold;""
                            >calm</p>
                            <div style=""width:240px; margin: auto;"">
                                <img src=""images/B_D_U_10_darkshift.png"" style= ""width:200px""alt=""img"">
                            </div>
                        </div>","183","","0","images/B_D_U_10_darkshift.png","","","","calm","1","B","D","U","darkshift","",""
"","","","","","html-slider-response","110","639431","0.0-106.0","3prgl6da3v","8","NaN","<div style=""width:500px;"">
                            <p style=""font-size:50px; font-weight:bold;""
                            >calm</p>
                            <div style=""width:240px; margin: auto;"">
                                <img src=""images/R_L_S_26_lightshift.png"" style= ""width:200px""alt=""img"">
                            </div>
                        </div>","36","","0","images/R_L_S_26_lightshift.png","","","","calm","1","R","L","S","lightshift","",""
"","","","","","html-slider-response","111","641273","0.0-107.0","3prgl6da3v","8","NaN","<div style=""width:500px;"">
                            <p style=""font-size:50px; font-weight:bold;""
                            >calm</p>
                            <div style=""width:240px; margin: auto;"">
                                <img src=""images/B_D_S_7_lightshift.png"" style= ""width:200px""alt=""img"">
                            </div>
                        </div>","186","","0","images/B_D_S_7_lightshift.png","","","","calm","2","B","D","S","lightshift","",""
"","","","","","html-slider-response","112","643475","0.0-108.0","3prgl6da3v","8","NaN","<div style=""width:500px;"">
                            <p style=""font-size:50px; font-weight:bold;""
                            >calm</p>
                            <div style=""width:240px; margin: auto;"">
                                <img src=""images/Y_D_S_15_darkshift.png"" style= ""width:200px""alt=""img"">
                            </div>
                        </div>","-165","","0","images/Y_D_S_15_darkshift.png","","","","calm","2","Y","D","S","darkshift","",""
"","","","","","html-slider-response","113","646833","0.0-109.0","3prgl6da3v","8","NaN","<div style=""width:500px;"">
                            <p style=""font-size:50px; font-weight:bold;""
                            >calm</p>
                            <div style=""width:240px; margin: auto;"">
                                <img src=""images/R_D_S_28_lightshift.png"" style= ""width:200px""alt=""img"">
                            </div>
                        </div>","26","","0","images/R_D_S_28_lightshift.png","","","","calm","2","R","D","S","lightshift","",""
"","","","","","html-slider-response","114","648866","0.0-110.0","3prgl6da3v","8","NaN","<div style=""width:500px;"">
                            <p style=""font-size:50px; font-weight:bold;""
                            >calm</p>
                            <div style=""width:240px; margin: auto;"">
                                <img src=""images/Y_D_S_15_lightshift.png"" style= ""width:200px""alt=""img"">
                            </div>
                        </div>","-73","","0","images/Y_D_S_15_lightshift.png","","","","calm","1","Y","D","S","lightshift","",""
"","","","","","html-slider-response","115","653342","0.0-111.0","3prgl6da3v","8","NaN","<div style=""width:500px;"">
                            <p style=""font-size:50px; font-weight:bold;""
                            >calm</p>
                            <div style=""width:240px; margin: auto;"">
                                <img src=""images/R_D_U_30_lightshift.png"" style= ""width:200px""alt=""img"">
                            </div>
                        </div>","-73","","0","images/R_D_U_30_lightshift.png","","","","calm","1","R","D","U","lightshift","",""
"","","","","","html-slider-response","116","655309","0.0-112.0","3prgl6da3v","8","NaN","<div style=""width:500px;"">
                            <p style=""font-size:50px; font-weight:bold;""
                            >calm</p>
                            <div style=""width:240px; margin: auto;"">
                                <img src=""images/B_L_U_5_darkshift.png"" style= ""width:200px""alt=""img"">
                            </div>
                        </div>","188","","0","images/B_L_U_5_darkshift.png","","","","calm","1","B","L","U","darkshift","",""
"","","","","","html-slider-response","117","658691","0.0-113.0","3prgl6da3v","8","NaN","<div style=""width:500px;"">
                            <p style=""font-size:50px; font-weight:bold;""
                            >calm</p>
                            <div style=""width:240px; margin: auto;"">
                                <img src=""images/Y_L_S_12_darkshift.png"" style= ""width:200px""alt=""img"">
                            </div>
                        </div>","-85","","0","images/Y_L_S_12_darkshift.png","","","","calm","1","Y","L","S","darkshift","",""
"","","","","","html-slider-response","118","660800","0.0-114.0","3prgl6da3v","8","NaN","<div style=""width:500px;"">
                            <p style=""font-size:50px; font-weight:bold;""
                            >calm</p>
                            <div style=""width:240px; margin: auto;"">
                                <img src=""images/B_D_S_7_darkshift.png"" style= ""width:200px""alt=""img"">
                            </div>
                        </div>","187","","0","images/B_D_S_7_darkshift.png","","","","calm","2","B","D","S","darkshift","",""
"","","","","","html-slider-response","119","663429","0.0-115.0","3prgl6da3v","8","NaN","<div style=""width:500px;"">
                            <p style=""font-size:50px; font-weight:bold;""
                            >calm</p>
                            <div style=""width:240px; margin: auto;"">
                                <img src=""images/R_L_U_27_darkshift.png"" style= ""width:200px""alt=""img"">
                            </div>
                        </div>","40","","0","images/R_L_U_27_darkshift.png","","","","calm","1","R","L","U","darkshift","",""
"","","","","","html-slider-response","120","666341","0.0-116.0","3prgl6da3v","8","NaN","<div style=""width:500px;"">
                            <p style=""font-size:50px; font-weight:bold;""
                            >calm</p>
                            <div style=""width:240px; margin: auto;"">
                                <img src=""images/G_L_S_33_lightshift.png"" style= ""width:200px""alt=""img"">
                            </div>
                        </div>","73","","0","images/G_L_S_33_lightshift.png","","","","calm","1","G","L","S","lightshift","",""
"","","","","","html-slider-response","121","668066","0.0-117.0","3prgl6da3v","8","NaN","<div style=""width:500px;"">
                            <p style=""font-size:50px; font-weight:bold;""
                            >calm</p>
                            <div style=""width:240px; margin: auto;"">
                                <img src=""images/R_L_U_27_lightshift.png"" style= ""width:200px""alt=""img"">
                            </div>
                        </div>","-60","","0","images/R_L_U_27_lightshift.png","","","","calm","2","R","L","U","lightshift","",""
"","","","","","html-slider-response","122","670954","0.0-118.0","3prgl6da3v","8","NaN","<div style=""width:500px;"">
                            <p style=""font-size:50px; font-weight:bold;""
                            >calm</p>
                            <div style=""width:240px; margin: auto;"">
                                <img src=""images/Y_L_U_13_lightshift.png"" style= ""width:200px""alt=""img"">
                            </div>
                        </div>","-140","","0","images/Y_L_U_13_lightshift.png","","","","calm","1","Y","L","U","lightshift","",""
"","","","","","html-slider-response","123","673063","0.0-119.0","3prgl6da3v","8","NaN","<div style=""width:500px;"">
                            <p style=""font-size:50px; font-weight:bold;""
                            >calm</p>
                            <div style=""width:240px; margin: auto;"">
                                <img src=""images/Y_D_U_23_lightshift.png"" style= ""width:200px""alt=""img"">
                            </div>
                        </div>","-178","","0","images/Y_D_U_23_lightshift.png","","","","calm","2","Y","D","U","lightshift","",""
"","","","","","html-slider-response","124","675651","0.0-120.0","3prgl6da3v","8","NaN","<div style=""width:500px;"">
                            <p style=""font-size:50px; font-weight:bold;""
                            >calm</p>
                            <div style=""width:240px; margin: auto;"">
                                <img src=""images/R_D_S_28_darkshift.png"" style= ""width:200px""alt=""img"">
                            </div>
                        </div>","51","","0","images/R_D_S_28_darkshift.png","","","","calm","2","R","D","S","darkshift","",""
"","","","","","html-slider-response","125","678544","0.0-121.0","3prgl6da3v","8","NaN","<div style=""width:500px;"">
                            <p style=""font-size:50px; font-weight:bold;""
                            >calm</p>
                            <div style=""width:240px; margin: auto;"">
                                <img src=""images/G_D_U_44_lightshift.png"" style= ""width:200px""alt=""img"">
                            </div>
                        </div>","121","","0","images/G_D_U_44_lightshift.png","","","","calm","2","G","D","U","lightshift","",""
"","","","","","html-slider-response","126","680742","0.0-122.0","3prgl6da3v","8","NaN","<div style=""width:500px;"">
                            <p style=""font-size:50px; font-weight:bold;""
                            >calm</p>
                            <div style=""width:240px; margin: auto;"">
                                <img src=""images/Y_L_U_13_lightshift.png"" style= ""width:200px""alt=""img"">
                            </div>
                        </div>","-118","","0","images/Y_L_U_13_lightshift.png","","","","calm","2","Y","L","U","lightshift","",""
"","","","","","html-slider-response","127","687153","0.0-123.0","3prgl6da3v","8","NaN","<div style=""width:500px;"">
                            <p style=""font-size:50px; font-weight:bold;""
                            >calm</p>
                            <div style=""width:240px; margin: auto;"">
                                <img src=""images/R_D_U_30_darkshift.png"" style= ""width:200px""alt=""img"">
                            </div>
                        </div>","38","","0","images/R_D_U_30_darkshift.png","","","","calm","1","R","D","U","darkshift","",""
"","","","","","html-slider-response","128","690232","0.0-124.0","3prgl6da3v","8","NaN","<div style=""width:500px;"">
                            <p style=""font-size:50px; font-weight:bold;""
                            >calm</p>
                            <div style=""width:240px; margin: auto;"">
                                <img src=""images/G_L_S_33_lightshift.png"" style= ""width:200px""alt=""img"">
                            </div>
                        </div>","111","","0","images/G_L_S_33_lightshift.png","","","","calm","2","G","L","S","lightshift","",""
"","","","","","html-slider-response","129","692465","0.0-125.0","3prgl6da3v","8","NaN","<div style=""width:500px;"">
                            <p style=""font-size:50px; font-weight:bold;""
                            >calm</p>
                            <div style=""width:240px; margin: auto;"">
                                <img src=""images/Y_D_S_15_lightshift.png"" style= ""width:200px""alt=""img"">
                            </div>
                        </div>","-138","","0","images/Y_D_S_15_lightshift.png","","","","calm","2","Y","D","S","lightshift","",""
"","","","","","html-slider-response","130","695058","0.0-126.0","3prgl6da3v","8","NaN","<div style=""width:500px;"">
                            <p style=""font-size:50px; font-weight:bold;""
                            >calm</p>
                            <div style=""width:240px; margin: auto;"">
                                <img src=""images/G_D_S_41_lightshift.png"" style= ""width:200px""alt=""img"">
                            </div>
                        </div>","20","","0","images/G_D_S_41_lightshift.png","","","","calm","1","G","D","S","lightshift","",""
"","","","","","html-slider-response","131","696953","0.0-127.0","3prgl6da3v","8","NaN","<div style=""width:500px;"">
                            <p style=""font-size:50px; font-weight:bold;""
                            >calm</p>
                            <div style=""width:240px; margin: auto;"">
                                <img src=""images/G_L_U_37_lightshift.png"" style= ""width:200px""alt=""img"">
                            </div>
                        </div>","180","","0","images/G_L_U_37_lightshift.png","","","","calm","1","G","L","U","lightshift","",""
"","","","","","html-slider-response","132","702058","0.0-128.0","3prgl6da3v","8","NaN","<div style=""width:500px;"">
                            <p style=""font-size:50px; font-weight:bold;""
                            >calm</p>
                            <div style=""width:240px; margin: auto;"">
                                <img src=""images/R_L_U_27_lightshift.png"" style= ""width:200px""alt=""img"">
                            </div>
                        </div>","42","","0","images/R_L_U_27_lightshift.png","","","","calm","1","R","L","U","lightshift","",""
"","","","","","html-slider-response","133","703901","0.0-129.0","3prgl6da3v","8","NaN","<div style=""width:500px;"">
                            <p style=""font-size:50px; font-weight:bold;""
                            >calm</p>
                            <div style=""width:240px; margin: auto;"">
                                <img src=""images/B_L_S_2_lightshift.png"" style= ""width:200px""alt=""img"">
                            </div>
                        </div>","164","","0","images/B_L_S_2_lightshift.png","","","","calm","2","B","L","S","lightshift","",""
"","","","","","html-slider-response","134","706461","0.0-130.0","3prgl6da3v","8","NaN","<div style=""width:500px;"">
                            <p style=""font-size:50px; font-weight:bold;""
                            >calm</p>
                            <div style=""width:240px; margin: auto;"">
                                <img src=""images/Y_L_S_12_lightshift.png"" style= ""width:200px""alt=""img"">
                            </div>
                        </div>","-62","","0","images/Y_L_S_12_lightshift.png","","","","calm","1","Y","L","S","lightshift","",""
"","","","","","html-slider-response","135","708728","0.0-131.0","3prgl6da3v","8","NaN","<div style=""width:500px;"">
                            <p style=""font-size:50px; font-weight:bold;""
                            >calm</p>
                            <div style=""width:240px; margin: auto;"">
                                <img src=""images/B_L_S_2_lightshift.png"" style= ""width:200px""alt=""img"">
                            </div>
                        </div>","154","","0","images/B_L_S_2_lightshift.png","","","","calm","1","B","L","S","lightshift","",""
"","","","","","html-slider-response","136","711275","0.0-132.0","3prgl6da3v","8","NaN","<div style=""width:500px;"">
                            <p style=""font-size:50px; font-weight:bold;""
                            >calm</p>
                            <div style=""width:240px; margin: auto;"">
                                <img src=""images/G_D_S_41_darkshift.png"" style= ""width:200px""alt=""img"">
                            </div>
                        </div>","116","","0","images/G_D_S_41_darkshift.png","","","","calm","1","G","D","S","darkshift","",""
"","","","","","html-slider-response","137","716148","0.0-133.0","3prgl6da3v","8","NaN","<div style=""width:500px;"">
                            <p style=""font-size:50px; font-weight:bold;""
                            >calm</p>
                            <div style=""width:240px; margin: auto;"">
                                <img src=""images/R_D_U_30_lightshift.png"" style= ""width:200px""alt=""img"">
                            </div>
                        </div>","-14","","0","images/R_D_U_30_lightshift.png","","","","calm","2","R","D","U","lightshift","",""
"","","","","","html-slider-response","138","719341","0.0-134.0","3prgl6da3v","8","NaN","<div style=""width:500px;"">
                            <p style=""font-size:50px; font-weight:bold;""
                            >calm</p>
                            <div style=""width:240px; margin: auto;"">
                                <img src=""images/G_L_U_37_darkshift.png"" style= ""width:200px""alt=""img"">
                            </div>
                        </div>","50","","0","images/G_L_U_37_darkshift.png","","","","calm","1","G","L","U","darkshift","",""
"","","","","","html-slider-response","139","721261","0.0-135.0","3prgl6da3v","8","NaN","<div style=""width:500px;"">
                            <p style=""font-size:50px; font-weight:bold;""
                            >calm</p>
                            <div style=""width:240px; margin: auto;"">
                                <img src=""images/B_L_U_5_darkshift.png"" style= ""width:200px""alt=""img"">
                            </div>
                        </div>","193","","0","images/B_L_U_5_darkshift.png","","","","calm","2","B","L","U","darkshift","",""
"","","","","","html-slider-response","140","723329","0.0-136.0","3prgl6da3v","8","NaN","<div style=""width:500px;"">
                            <p style=""font-size:50px; font-weight:bold;""
                            >calm</p>
                            <div style=""width:240px; margin: auto;"">
                                <img src=""images/B_L_U_5_lightshift.png"" style= ""width:200px""alt=""img"">
                            </div>
                        </div>","192","","0","images/B_L_U_5_lightshift.png","","","","calm","2","B","L","U","lightshift","",""
"","","","","","html-slider-response","141","725806","0.0-137.0","3prgl6da3v","8","NaN","<div style=""width:500px;"">
                            <p style=""font-size:50px; font-weight:bold;""
                            >calm</p>
                            <div style=""width:240px; margin: auto;"">
                                <img src=""images/R_L_S_26_darkshift.png"" style= ""width:200px""alt=""img"">
                            </div>
                        </div>","38","","0","images/R_L_S_26_darkshift.png","","","","calm","2","R","L","S","darkshift","",""
"","","","","","html-slider-response","142","728216","0.0-138.0","3prgl6da3v","8","NaN","<div style=""width:500px;"">
                            <p style=""font-size:50px; font-weight:bold;""
                            >calm</p>
                            <div style=""width:240px; margin: auto;"">
                                <img src=""images/B_L_S_2_darkshift.png"" style= ""width:200px""alt=""img"">
                            </div>
                        </div>","188","","0","images/B_L_S_2_darkshift.png","","","","calm","2","B","L","S","darkshift","",""
"","","","","","html-slider-response","143","731161","0.0-139.0","3prgl6da3v","8","NaN","<div style=""width:500px;"">
                            <p style=""font-size:50px; font-weight:bold;""
                            >calm</p>
                            <div style=""width:240px; margin: auto;"">
                                <img src=""images/G_D_U_44_lightshift.png"" style= ""width:200px""alt=""img"">
                            </div>
                        </div>","99","","0","images/G_D_U_44_lightshift.png","","","","calm","1","G","D","U","lightshift","",""
"","","","","","html-slider-response","144","734858","0.0-140.0","3prgl6da3v","8","NaN","<div style=""width:500px;"">
                            <p style=""font-size:50px; font-weight:bold;""
                            >calm</p>
                            <div style=""width:240px; margin: auto;"">
                                <img src=""images/Y_L_S_12_darkshift.png"" style= ""width:200px""alt=""img"">
                            </div>
                        </div>","-79","","0","images/Y_L_S_12_darkshift.png","","","","calm","2","Y","L","S","darkshift","",""
"","","","","","html-slider-response","145","736683","0.0-141.0","3prgl6da3v","8","NaN","<div style=""width:500px;"">
                            <p style=""font-size:50px; font-weight:bold;""
                            >calm</p>
                            <div style=""width:240px; margin: auto;"">
                                <img src=""images/B_D_U_10_lightshift.png"" style= ""width:200px""alt=""img"">
                            </div>
                        </div>","188","","0","images/B_D_U_10_lightshift.png","","","","calm","1","B","D","U","lightshift","",""
"","","","","","html-slider-response","146","739011","0.0-142.0","3prgl6da3v","8","NaN","<div style=""width:500px;"">
                            <p style=""font-size:50px; font-weight:bold;""
                            >calm</p>
                            <div style=""width:240px; margin: auto;"">
                                <img src=""images/G_L_S_33_darkshift.png"" style= ""width:200px""alt=""img"">
                            </div>
                        </div>","97","","0","images/G_L_S_33_darkshift.png","","","","calm","2","G","L","S","darkshift","",""
"","","","","","html-slider-response","147","740699","0.0-143.0","3prgl6da3v","8","NaN","<div style=""width:500px;"">
                            <p style=""font-size:50px; font-weight:bold;""
                            >calm</p>
                            <div style=""width:240px; margin: auto;"">
                                <img src=""images/G_L_U_37_lightshift.png"" style= ""width:200px""alt=""img"">
                            </div>
                        </div>","95","","0","images/G_L_U_37_lightshift.png","","","","calm","2","G","L","U","lightshift","",""
"","","","","","html-button-response","148","742714","0.0-144.0","3prgl6da3v","8","1507","<p>Great Job! You've finished block 2.<br></br> You have 2 block(s) left to go.<br></br></p>","0","","","","","","","","","","","","","",""
"","","","","","html-button-response","149","744057","0.0-145.0","3prgl6da3v","8","1340","<p>In this block of trials, you will be asked to rate how much you associate each map with:</p > <p style = 'font-size:150%; font-weight: bold'>startling</p><br></br>","0","","","","","","","","","","","","","",""
"","","","","","html-slider-response","150","746995","0.0-146.0","3prgl6da3v","8","NaN","<div style=""width:500px;"">
                            <p style=""font-size:50px; font-weight:bold;""
                            >startling</p>
                            <div style=""width:240px; margin: auto;"">
                                <img src=""images/B_L_S_2_lightshift.png"" style= ""width:200px""alt=""img"">
                            </div>
                        </div>","-36","","0","images/B_L_S_2_lightshift.png","","","","startling","2","B","L","S","lightshift","",""
"","","","","","html-slider-response","151","749605","0.0-147.0","3prgl6da3v","8","NaN","<div style=""width:500px;"">
                            <p style=""font-size:50px; font-weight:bold;""
                            >startling</p>
                            <div style=""width:240px; margin: auto;"">
                                <img src=""images/B_D_U_10_lightshift.png"" style= ""width:200px""alt=""img"">
                            </div>
                        </div>","-128","","0","images/B_D_U_10_lightshift.png","","","","startling","1","B","D","U","lightshift","",""
"","","","","","html-slider-response","152","752879","0.0-148.0","3prgl6da3v","8","NaN","<div style=""width:500px;"">
                            <p style=""font-size:50px; font-weight:bold;""
                            >startling</p>
                            <div style=""width:240px; margin: auto;"">
                                <img src=""images/R_D_S_28_darkshift.png"" style= ""width:200px""alt=""img"">
                            </div>
                        </div>","30","","0","images/R_D_S_28_darkshift.png","","","","startling","1","R","D","S","darkshift","",""
"","","","","","html-slider-response","153","756546","0.0-149.0","3prgl6da3v","8","NaN","<div style=""width:500px;"">
                            <p style=""font-size:50px; font-weight:bold;""
                            >startling</p>
                            <div style=""width:240px; margin: auto;"">
                                <img src=""images/Y_L_S_12_darkshift.png"" style= ""width:200px""alt=""img"">
                            </div>
                        </div>","-138","","0","images/Y_L_S_12_darkshift.png","","","","startling","1","Y","L","S","darkshift","",""
"","","","","","html-slider-response","154","758042","0.0-150.0","3prgl6da3v","8","NaN","<div style=""width:500px;"">
                            <p style=""font-size:50px; font-weight:bold;""
                            >startling</p>
                            <div style=""width:240px; margin: auto;"">
                                <img src=""images/Y_D_U_23_lightshift.png"" style= ""width:200px""alt=""img"">
                            </div>
                        </div>","-138","","0","images/Y_D_U_23_lightshift.png","","","","startling","2","Y","D","U","lightshift","",""
"","","","","","html-slider-response","155","760622","0.0-151.0","3prgl6da3v","8","NaN","<div style=""width:500px;"">
                            <p style=""font-size:50px; font-weight:bold;""
                            >startling</p>
                            <div style=""width:240px; margin: auto;"">
                                <img src=""images/B_L_U_5_darkshift.png"" style= ""width:200px""alt=""img"">
                            </div>
                        </div>","23","","0","images/B_L_U_5_darkshift.png","","","","startling","1","B","L","U","darkshift","",""
"","","","","","html-slider-response","156","763064","0.0-152.0","3prgl6da3v","8","NaN","<div style=""width:500px;"">
                            <p style=""font-size:50px; font-weight:bold;""
                            >startling</p>
                            <div style=""width:240px; margin: auto;"">
                                <img src=""images/R_D_U_30_darkshift.png"" style= ""width:200px""alt=""img"">
                            </div>
                        </div>","-119","","0","images/R_D_U_30_darkshift.png","","","","startling","2","R","D","U","darkshift","",""
"","","","","","html-slider-response","157","765005","0.0-153.0","3prgl6da3v","8","NaN","<div style=""width:500px;"">
                            <p style=""font-size:50px; font-weight:bold;""
                            >startling</p>
                            <div style=""width:240px; margin: auto;"">
                                <img src=""images/Y_D_S_15_darkshift.png"" style= ""width:200px""alt=""img"">
                            </div>
                        </div>","-132","","0","images/Y_D_S_15_darkshift.png","","","","startling","2","Y","D","S","darkshift","",""
"","","","","","html-slider-response","158","766887","0.0-154.0","3prgl6da3v","8","NaN","<div style=""width:500px;"">
                            <p style=""font-size:50px; font-weight:bold;""
                            >startling</p>
                            <div style=""width:240px; margin: auto;"">
                                <img src=""images/B_L_S_2_darkshift.png"" style= ""width:200px""alt=""img"">
                            </div>
                        </div>","38","","0","images/B_L_S_2_darkshift.png","","","","startling","2","B","L","S","darkshift","",""
"","","","","","html-slider-response","159","769220","0.0-155.0","3prgl6da3v","8","NaN","<div style=""width:500px;"">
                            <p style=""font-size:50px; font-weight:bold;""
                            >startling</p>
                            <div style=""width:240px; margin: auto;"">
                                <img src=""images/R_L_S_26_darkshift.png"" style= ""width:200px""alt=""img"">
                            </div>
                        </div>","121","","0","images/R_L_S_26_darkshift.png","","","","startling","2","R","L","S","darkshift","",""
"","","","","","html-slider-response","160","771569","0.0-156.0","3prgl6da3v","8","NaN","<div style=""width:500px;"">
                            <p style=""font-size:50px; font-weight:bold;""
                            >startling</p>
                            <div style=""width:240px; margin: auto;"">
                                <img src=""images/Y_L_S_12_lightshift.png"" style= ""width:200px""alt=""img"">
                            </div>
                        </div>","86","","0","images/Y_L_S_12_lightshift.png","","","","startling","1","Y","L","S","lightshift","",""
"","","","","","html-slider-response","161","774083","0.0-157.0","3prgl6da3v","8","NaN","<div style=""width:500px;"">
                            <p style=""font-size:50px; font-weight:bold;""
                            >startling</p>
                            <div style=""width:240px; margin: auto;"">
                                <img src=""images/G_L_U_37_lightshift.png"" style= ""width:200px""alt=""img"">
                            </div>
                        </div>","30","","0","images/G_L_U_37_lightshift.png","","","","startling","1","G","L","U","lightshift","",""
"","","","","","html-slider-response","162","775975","0.0-158.0","3prgl6da3v","8","NaN","<div style=""width:500px;"">
                            <p style=""font-size:50px; font-weight:bold;""
                            >startling</p>
                            <div style=""width:240px; margin: auto;"">
                                <img src=""images/G_L_U_37_darkshift.png"" style= ""width:200px""alt=""img"">
                            </div>
                        </div>","-18","","0","images/G_L_U_37_darkshift.png","","","","startling","2","G","L","U","darkshift","",""
"","","","","","html-slider-response","163","777771","0.0-159.0","3prgl6da3v","8","NaN","<div style=""width:500px;"">
                            <p style=""font-size:50px; font-weight:bold;""
                            >startling</p>
                            <div style=""width:240px; margin: auto;"">
                                <img src=""images/Y_D_U_23_lightshift.png"" style= ""width:200px""alt=""img"">
                            </div>
                        </div>","-130","","0","images/Y_D_U_23_lightshift.png","","","","startling","1","Y","D","U","lightshift","",""
"","","","","","html-slider-response","164","779802","0.0-160.0","3prgl6da3v","8","NaN","<div style=""width:500px;"">
                            <p style=""font-size:50px; font-weight:bold;""
                            >startling</p>
                            <div style=""width:240px; margin: auto;"">
                                <img src=""images/B_D_S_7_lightshift.png"" style= ""width:200px""alt=""img"">
                            </div>
                        </div>","-156","","0","images/B_D_S_7_lightshift.png","","","","startling","2","B","D","S","lightshift","",""
"","","","","","html-slider-response","165","781932","0.0-161.0","3prgl6da3v","8","NaN","<div style=""width:500px;"">
                            <p style=""font-size:50px; font-weight:bold;""
                            >startling</p>
                            <div style=""width:240px; margin: auto;"">
                                <img src=""images/Y_L_U_13_lightshift.png"" style= ""width:200px""alt=""img"">
                            </div>
                        </div>","-156","","0","images/Y_L_U_13_lightshift.png","","","","startling","2","Y","L","U","lightshift","",""
"","","","","","html-slider-response","166","784401","0.0-162.0","3prgl6da3v","8","NaN","<div style=""width:500px;"">
                            <p style=""font-size:50px; font-weight:bold;""
                            >startling</p>
                            <div style=""width:240px; margin: auto;"">
                                <img src=""images/R_L_S_26_lightshift.png"" style= ""width:200px""alt=""img"">
                            </div>
                        </div>","82","","0","images/R_L_S_26_lightshift.png","","","","startling","1","R","L","S","lightshift","",""
"","","","","","html-slider-response","167","786649","0.0-163.0","3prgl6da3v","8","NaN","<div style=""width:500px;"">
                            <p style=""font-size:50px; font-weight:bold;""
                            >startling</p>
                            <div style=""width:240px; margin: auto;"">
                                <img src=""images/B_D_S_7_darkshift.png"" style= ""width:200px""alt=""img"">
                            </div>
                        </div>","-146","","0","images/B_D_S_7_darkshift.png","","","","startling","2","B","D","S","darkshift","",""
"","","","","","html-slider-response","168","789647","0.0-164.0","3prgl6da3v","8","NaN","<div style=""width:500px;"">
                            <p style=""font-size:50px; font-weight:bold;""
                            >startling</p>
                            <div style=""width:240px; margin: auto;"">
                                <img src=""images/B_L_U_5_lightshift.png"" style= ""width:200px""alt=""img"">
                            </div>
                        </div>","-150","","0","images/B_L_U_5_lightshift.png","","","","startling","2","B","L","U","lightshift","",""
"","","","","","html-slider-response","169","797688","0.0-165.0","3prgl6da3v","8","NaN","<div style=""width:500px;"">
                            <p style=""font-size:50px; font-weight:bold;""
                            >startling</p>
                            <div style=""width:240px; margin: auto;"">
                                <img src=""images/Y_L_S_12_darkshift.png"" style= ""width:200px""alt=""img"">
                            </div>
                        </div>","62","","0","images/Y_L_S_12_darkshift.png","","","","startling","2","Y","L","S","darkshift","",""
"","","","","","html-slider-response","170","799303","0.0-166.0","3prgl6da3v","8","NaN","<div style=""width:500px;"">
                            <p style=""font-size:50px; font-weight:bold;""
                            >startling</p>
                            <div style=""width:240px; margin: auto;"">
                                <img src=""images/R_D_S_28_lightshift.png"" style= ""width:200px""alt=""img"">
                            </div>
                        </div>","51","","0","images/R_D_S_28_lightshift.png","","","","startling","2","R","D","S","lightshift","",""
"","","","","","html-slider-response","171","801440","0.0-167.0","3prgl6da3v","8","NaN","<div style=""width:500px;"">
                            <p style=""font-size:50px; font-weight:bold;""
                            >startling</p>
                            <div style=""width:240px; margin: auto;"">
                                <img src=""images/R_D_U_30_darkshift.png"" style= ""width:200px""alt=""img"">
                            </div>
                        </div>","-112","","0","images/R_D_U_30_darkshift.png","","","","startling","1","R","D","U","darkshift","",""
"","","","","","html-slider-response","172","804124","0.0-168.0","3prgl6da3v","8","NaN","<div style=""width:500px;"">
                            <p style=""font-size:50px; font-weight:bold;""
                            >startling</p>
                            <div style=""width:240px; margin: auto;"">
                                <img src=""images/B_D_U_10_darkshift.png"" style= ""width:200px""alt=""img"">
                            </div>
                        </div>","-158","","0","images/B_D_U_10_darkshift.png","","","","startling","2","B","D","U","darkshift","",""
"","","","","","html-slider-response","173","805676","0.0-169.0","3prgl6da3v","8","NaN","<div style=""width:500px;"">
                            <p style=""font-size:50px; font-weight:bold;""
                            >startling</p>
                            <div style=""width:240px; margin: auto;"">
                                <img src=""images/B_D_U_10_lightshift.png"" style= ""width:200px""alt=""img"">
                            </div>
