"success","timeout","failed_images","failed_audio","failed_video","trial_type","trial_index","time_elapsed","internal_node_id","subject_id","condition_num","rt","stimulus","response","question_order","slider_start","image_path","practiceTrial","practiceTrialNum","correct","concept","repetition","hue","lightness","saturation","shift","ishihara_plate","correct_response"
"true","false","[]","[]","[]","preload","0","395","0.0-0.0","3wlv98mr6y","11","","","","","","","","","","","","","","","","",""
"","","","","","html-button-response","1","3018","0.0-1.0","3wlv98mr6y","11","2621","Welcome to our experiment!<p>At the bottom of this screen, you will see a button that says ""Begin Experiment"".<br>Please only click that button when you are ready to complete the 25 minute experiment in one sitting.</p><p> Once you click that button, it will not be possible to restart the experiment.","0","","","","","","","","","","","","","",""
"true","","","","","fullscreen","2","5289","0.0-2.0","3wlv98mr6y","11","1268","","","","","","","","","","","","","","","",""
"","","","","","survey-multi-select","3","13317","0.0-3.0","3wlv98mr6y","11","8025","","{""Consent"":[""<strong>I consent</strong>""]}","[0]","","","","","","","","","","","","",""
"","","","","","html-button-response","4","15083","0.0-4.0","3wlv98mr6y","11","1764","Welcome! <p> This experiment involves two parts: demographic information, followed by the experimental task.<p> It will take about 25 minutes to complete both parts.","0","","","","","","","","","","","","","",""
"","","","","","survey-text","5","24407","0.0-5.0","3wlv98mr6y","11","9315","","{""Age"":""19"",""Gender"":""Male"",""Race/ethnicity"":""Asian"",""Languages"":""English, French""}","","","","","","","","","","","","","",""
"","","","","","html-slider-response","6","35050","0.0-6.0","3wlv98mr6y","11","10639","
                            <div style='text-align:left; font-size:20px; line-height:25px; width: 1400px;'>
                                During this experiment you will be asked to rate how much you associate maps with                    different concepts.<br> Below, you can see some examples of the maps you will be asked to rate. Next to the maps
                    is the list of concepts.<br>You will be asked                    to rate how much you associate each map with each concept on a scale from 'not at all' to 'very much' like the
                    one below. <br><br>
                    Now, please look at the list of concepts and maps. For each concept, think about the map you associate 'very
                    much' with the concept.<br>                     When you see that map during the experiment, please rate it near the 'very much' endpoint of the
                    scale.<br>Now, please think about which map you associate 'not at all'                     with each concept. When you see that map during the experiment, please rate it near the 'not at all' endpoint
                    of the scale.<br>
                    Please use the full range of the scale. That is, if a map is somewhat associated with the concept, you would
                    click partway between the middle point and right side of the scale.                    You will be asked to rate each map for a given concept before moving on to the next concept.<br><br>Press the
                    'Continue' button for instructions on how to use the slider.                    <br><br>
                </div>

                <div style=""width: 500px; margin: 0 auto;"">
                    <!-- Centered text paragraphs -->
                    <div style=""text-align: center; width: 500px;"">
                        <p style=""font-size:25px; line-height:18px;"">calm</p>
                        <p style=""font-size:25px; line-height:18px;"">positive</p>
                        <p style=""font-size:25px;line-height:18px;"">negative</p>
                        <p style=""font-size:25px;line-height:18px;"">startling</p>
                    </div>

                    <!-- Grid section -->
                   <div style=""display: flex; justify-content: center; padding-top: 15px;"">
                    <div style=""display: grid; grid-template-columns: repeat(8, 80px); grid-gap: 5px; width: auto;"">
                        <img src=""images/G_L_U_2_darkshift.png"" alt=""map"" style=""width: 100%;""><img src=""images/R_L_S_30_darkshift.png"" alt=""map"" style=""width: 100%;""><img src=""images/B_D_S_13_darkshift.png"" alt=""map"" style=""width: 100%;""><img src=""images/Y_D_S_27_lightshift.png"" alt=""map"" style=""width: 100%;""><img src=""images/Y_L_U_26_darkshift.png"" alt=""map"" style=""width: 100%;""><img src=""images/B_D_U_15_darkshift.png"" alt=""map"" style=""width: 100%;""><img src=""images/Y_D_U_28_darkshift.png"" alt=""map"" style=""width: 100%;""><img src=""images/B_L_U_12_darkshift.png"" alt=""map"" style=""width: 100%;""><img src=""images/Y_L_S_23_lightshift.png"" alt=""map"" style=""width: 100%;""><img src=""images/G_L_U_2_lightshift.png"" alt=""map"" style=""width: 100%;""><img src=""images/R_L_S_30_lightshift.png"" alt=""map"" style=""width: 100%;""><img src=""images/R_D_U_41_lightshift.png"" alt=""map"" style=""width: 100%;""><img src=""images/G_L_S_44_darkshift.png"" alt=""map"" style=""width: 100%;""><img src=""images/Y_D_U_28_lightshift.png"" alt=""map"" style=""width: 100%;""><img src=""images/B_L_S_10_darkshift.png"" alt=""map"" style=""width: 100%;""><img src=""images/G_D_S_5_lightshift.png"" alt=""map"" style=""width: 100%;""><img src=""images/R_D_U_41_darkshift.png"" alt=""map"" style=""width: 100%;""><img src=""images/B_L_U_12_lightshift.png"" alt=""map"" style=""width: 100%;""><img src=""images/R_D_S_37_lightshift.png"" alt=""map"" style=""width: 100%;""><img src=""images/R_L_U_33_lightshift.png"" alt=""map"" style=""width: 100%;""><img src=""images/R_L_U_33_darkshift.png"" alt=""map"" style=""width: 100%;""><img src=""images/Y_D_S_27_darkshift.png"" alt=""map"" style=""width: 100%;""><img src=""images/G_L_S_44_lightshift.png"" alt=""map"" style=""width: 100%;""><img src=""images/B_L_S_10_lightshift.png"" alt=""map"" style=""width: 100%;""><img src=""images/B_D_U_15_lightshift.png"" alt=""map"" style=""width: 100%;""><img src=""images/Y_L_S_23_darkshift.png"" alt=""map"" style=""width: 100%;""><img src=""images/G_D_U_7_darkshift.png"" alt=""map"" style=""width: 100%;""><img src=""images/G_D_U_7_lightshift.png"" alt=""map"" style=""width: 100%;""><img src=""images/B_D_S_13_lightshift.png"" alt=""map"" style=""width: 100%;""><img src=""images/Y_L_U_26_lightshift.png"" alt=""map"" style=""width: 100%;""><img src=""images/G_D_S_5_darkshift.png"" alt=""map"" style=""width: 100%;""><img src=""images/R_D_S_37_darkshift.png"" alt=""map"" style=""width: 100%;"">
                    </div>
                </div>

                    <!-- Clear floats -->
                    <div style=""clear: both;""></div>
                </div>
                            ","null","","0","maps_anchoring.png","true","","","","","","","","","",""
"","","","","","html-button-response","7","36812","0.0-7.0","3wlv98mr6y","11","1761","<div style=""width:800px;""><p style=""text-align:left"">To move the slider, click and drag your cursor to the location of the scale where you would like to make your rating and then let go. When you let go of the slider, your response will be recorded and the next trial will begin. <br>
                    We are interested in your initial impressions of each map for the given concept, so please go with your first intuition. <br>
                    Before you begin the experiment, there will be four training trials for you to practice using the scale. <br>
                     When you are ready to start the training trials, please click ""Continue"".</p><br></div>","0","","","","","","","","","","","","","",""
"","","","","","html-slider-response","8","39405","0.0-8.0-0.0","3wlv98mr6y","11","NaN","<div style=""width:500px;"">
                                    <p style=""font-size:25px;"">Please move the slider all the way to the <br> right endpoint of the scale</p>

                                    </div>
                                </div>","200","","0","","true","0","true","","","","","","","",""
"","","","","","html-button-response","9","40607","0.0-8.0-1.0","3wlv98mr6y","11","699","<p align='center'><b>Good job!</b> Click on 'Continue' to proceed.</p>","0","","","","","","","","","","","","","",""
"","","","","","html-slider-response","10","41670","0.0-9.0-0.0","3wlv98mr6y","11","NaN","<div style=""width:500px;"">
                                    <p style=""font-size:25px;"">Please move the slider all the way to the <br> left endpoint of the scale</p>

                                    </div>
                                </div>","-200","","0","","true","1","true","","","","","","","",""
"","","","","","html-button-response","11","42673","0.0-9.0-1.0","3wlv98mr6y","11","502","<p align='center'><b>Good job!</b> Click on 'Continue' to proceed.</p>","0","","","","","","","","","","","","","",""
"","","","","","html-slider-response","12","46565","0.0-10.0-0.0","3wlv98mr6y","11","NaN","<div style=""width:500px;"">
                                    <p style=""font-size:25px;"">Please move the slider halfway between the center and right endpoint of the scale</p>

                                    </div>
                                </div>","104","","0","","true","2","true","","","","","","","",""
"","","","","","html-button-response","13","47637","0.0-10.0-1.0","3wlv98mr6y","11","569","<p align='center'><b>Good job!</b> Click on 'Continue' to proceed.</p>","0","","","","","","","","","","","","","",""
"","","","","","html-slider-response","14","49614","0.0-11.0-0.0","3wlv98mr6y","11","NaN","<div style=""width:500px;"">
                                    <p style=""font-size:25px;"">Please move the slider halfway between the center and left endpoint of the scale</p>

                                    </div>
                                </div>","-111","","0","","true","3","false","","","","","","","",""
"","","","","","html-button-response","15","50819","0.0-11.0-1.0","3wlv98mr6y","11","702","<p align='center'><b>Not quite!</b> The slider was not placed near the instructed located. Click on 'Continue' to try again. </p>","0","","","","","","","","","","","","","",""
"","","","","","html-slider-response","16","52893","0.0-11.1-0.1","3wlv98mr6y","11","NaN","<div style=""width:500px;"">
                                    <p style=""font-size:25px;"">Please move the slider halfway between the center and left endpoint of the scale</p>

                                    </div>
                                </div>","-106","","0","","true","3","true","","","","","","","",""
"","","","","","html-button-response","17","54337","0.0-11.1-1.1","3wlv98mr6y","11","943","<p align='center'><b>Good job!</b> Click on 'Continue' to proceed.</p>","0","","","","","","","","","","","","","",""
"","","","","","html-button-response","18","54998","0.0-12.0","3wlv98mr6y","11","660","<p>Great job! You've completed the practice trials. Now you will begin the main task.</p>","0","","","","","","","","","","","","","",""
"","","","","","html-button-response","19","57158","0.0-13.0","3wlv98mr6y","11","2159","<p>In this block of trials, you will be asked to rate how much you associate each map with:</p > <p style = 'font-size:150%; font-weight: bold'>negative</p><br></br>","0","","","","","","","","","","","","","",""
"","","","","","html-slider-response","20","61462","0.0-14.0","3wlv98mr6y","11","NaN","<div style=""width:500px;"">
                            <p style=""font-size:50px; font-weight:bold;""
                            >negative</p>
                            <div style=""width:240px; margin: auto;"">
                                <img src=""images/B_D_U_15_lightshift.png"" style= ""width:200px""alt=""img"">
                            </div>
                        </div>","-200","","0","images/B_D_U_15_lightshift.png","","","","negative","1","B","D","U","lightshift","",""
"","","","","","html-slider-response","21","64086","0.0-15.0","3wlv98mr6y","11","NaN","<div style=""width:500px;"">
                            <p style=""font-size:50px; font-weight:bold;""
                            >negative</p>
                            <div style=""width:240px; margin: auto;"">
                                <img src=""images/R_D_S_37_darkshift.png"" style= ""width:200px""alt=""img"">
                            </div>
                        </div>","200","","0","images/R_D_S_37_darkshift.png","","","","negative","2","R","D","S","darkshift","",""
"","","","","","html-slider-response","22","66473","0.0-16.0","3wlv98mr6y","11","NaN","<div style=""width:500px;"">
                            <p style=""font-size:50px; font-weight:bold;""
                            >negative</p>
                            <div style=""width:240px; margin: auto;"">
                                <img src=""images/Y_L_U_26_lightshift.png"" style= ""width:200px""alt=""img"">
                            </div>
                        </div>","-114","","0","images/Y_L_U_26_lightshift.png","","","","negative","1","Y","L","U","lightshift","",""
"","","","","","html-slider-response","23","68698","0.0-17.0","3wlv98mr6y","11","NaN","<div style=""width:500px;"">
                            <p style=""font-size:50px; font-weight:bold;""
                            >negative</p>
                            <div style=""width:240px; margin: auto;"">
                                <img src=""images/Y_L_S_23_lightshift.png"" style= ""width:200px""alt=""img"">
                            </div>
                        </div>","-72","","0","images/Y_L_S_23_lightshift.png","","","","negative","1","Y","L","S","lightshift","",""
"","","","","","html-slider-response","24","72984","0.0-18.0","3wlv98mr6y","11","NaN","<div style=""width:500px;"">
                            <p style=""font-size:50px; font-weight:bold;""
                            >negative</p>
                            <div style=""width:240px; margin: auto;"">
                                <img src=""images/R_L_S_30_lightshift.png"" style= ""width:200px""alt=""img"">
                            </div>
                        </div>","-158","","0","images/R_L_S_30_lightshift.png","","","","negative","1","R","L","S","lightshift","",""
"","","","","","html-slider-response","25","75872","0.0-19.0","3wlv98mr6y","11","NaN","<div style=""width:500px;"">
                            <p style=""font-size:50px; font-weight:bold;""
                            >negative</p>
                            <div style=""width:240px; margin: auto;"">
                                <img src=""images/G_D_U_7_darkshift.png"" style= ""width:200px""alt=""img"">
                            </div>
                        </div>","-146","","0","images/G_D_U_7_darkshift.png","","","","negative","1","G","D","U","darkshift","",""
"","","","","","html-slider-response","26","77650","0.0-20.0","3wlv98mr6y","11","NaN","<div style=""width:500px;"">
                            <p style=""font-size:50px; font-weight:bold;""
                            >negative</p>
                            <div style=""width:240px; margin: auto;"">
                                <img src=""images/G_D_S_5_darkshift.png"" style= ""width:200px""alt=""img"">
                            </div>
                        </div>","-200","","0","images/G_D_S_5_darkshift.png","","","","negative","1","G","D","S","darkshift","",""
"","","","","","html-slider-response","27","80968","0.0-21.0","3wlv98mr6y","11","NaN","<div style=""width:500px;"">
                            <p style=""font-size:50px; font-weight:bold;""
                            >negative</p>
                            <div style=""width:240px; margin: auto;"">
                                <img src=""images/Y_D_S_27_lightshift.png"" style= ""width:200px""alt=""img"">
                            </div>
                        </div>","50","","0","images/Y_D_S_27_lightshift.png","","","","negative","1","Y","D","S","lightshift","",""
"","","","","","html-slider-response","28","83512","0.0-22.0","3wlv98mr6y","11","NaN","<div style=""width:500px;"">
                            <p style=""font-size:50px; font-weight:bold;""
                            >negative</p>
                            <div style=""width:240px; margin: auto;"">
                                <img src=""images/Y_L_U_26_darkshift.png"" style= ""width:200px""alt=""img"">
                            </div>
                        </div>","-82","","0","images/Y_L_U_26_darkshift.png","","","","negative","2","Y","L","U","darkshift","",""
"","","","","","html-slider-response","29","85762","0.0-23.0","3wlv98mr6y","11","NaN","<div style=""width:500px;"">
                            <p style=""font-size:50px; font-weight:bold;""
                            >negative</p>
                            <div style=""width:240px; margin: auto;"">
                                <img src=""images/B_D_U_15_lightshift.png"" style= ""width:200px""alt=""img"">
                            </div>
                        </div>","-31","","0","images/B_D_U_15_lightshift.png","","","","negative","2","B","D","U","lightshift","",""
"","","","","","html-slider-response","30","87650","0.0-24.0","3wlv98mr6y","11","NaN","<div style=""width:500px;"">
                            <p style=""font-size:50px; font-weight:bold;""
                            >negative</p>
                            <div style=""width:240px; margin: auto;"">
                                <img src=""images/B_L_U_12_darkshift.png"" style= ""width:200px""alt=""img"">
                            </div>
                        </div>","-200","","0","images/B_L_U_12_darkshift.png","","","","negative","2","B","L","U","darkshift","",""
"","","","","","html-slider-response","31","89117","0.0-25.0","3wlv98mr6y","11","NaN","<div style=""width:500px;"">
                            <p style=""font-size:50px; font-weight:bold;""
                            >negative</p>
                            <div style=""width:240px; margin: auto;"">
                                <img src=""images/B_L_S_10_darkshift.png"" style= ""width:200px""alt=""img"">
                            </div>
                        </div>","-200","","0","images/B_L_S_10_darkshift.png","","","","negative","1","B","L","S","darkshift","",""
"","","","","","html-slider-response","32","90787","0.0-26.0","3wlv98mr6y","11","NaN","<div style=""width:500px;"">
                            <p style=""font-size:50px; font-weight:bold;""
                            >negative</p>
                            <div style=""width:240px; margin: auto;"">
                                <img src=""images/G_D_U_7_darkshift.png"" style= ""width:200px""alt=""img"">
                            </div>
                        </div>","-200","","0","images/G_D_U_7_darkshift.png","","","","negative","2","G","D","U","darkshift","",""
"","","","","","html-slider-response","33","92487","0.0-27.0","3wlv98mr6y","11","NaN","<div style=""width:500px;"">
                            <p style=""font-size:50px; font-weight:bold;""
                            >negative</p>
                            <div style=""width:240px; margin: auto;"">
                                <img src=""images/G_D_U_7_lightshift.png"" style= ""width:200px""alt=""img"">
                            </div>
                        </div>","-200","","0","images/G_D_U_7_lightshift.png","","","","negative","2","G","D","U","lightshift","",""
"","","","","","html-slider-response","34","93867","0.0-28.0","3wlv98mr6y","11","NaN","<div style=""width:500px;"">
                            <p style=""font-size:50px; font-weight:bold;""
                            >negative</p>
                            <div style=""width:240px; margin: auto;"">
                                <img src=""images/B_L_U_12_darkshift.png"" style= ""width:200px""alt=""img"">
                            </div>
                        </div>","-200","","0","images/B_L_U_12_darkshift.png","","","","negative","1","B","L","U","darkshift","",""
"","","","","","html-slider-response","35","97093","0.0-29.0","3wlv98mr6y","11","NaN","<div style=""width:500px;"">
                            <p style=""font-size:50px; font-weight:bold;""
                            >negative</p>
                            <div style=""width:240px; margin: auto;"">
                                <img src=""images/Y_D_S_27_lightshift.png"" style= ""width:200px""alt=""img"">
                            </div>
                        </div>","46","","0","images/Y_D_S_27_lightshift.png","","","","negative","2","Y","D","S","lightshift","",""
"","","","","","html-slider-response","36","99844","0.0-30.0","3wlv98mr6y","11","NaN","<div style=""width:500px;"">
                            <p style=""font-size:50px; font-weight:bold;""
                            >negative</p>
                            <div style=""width:240px; margin: auto;"">
                                <img src=""images/B_L_S_10_lightshift.png"" style= ""width:200px""alt=""img"">
                            </div>
                        </div>","-200","","0","images/B_L_S_10_lightshift.png","","","","negative","2","B","L","S","lightshift","",""
"","","","","","html-slider-response","37","102024","0.0-31.0","3wlv98mr6y","11","NaN","<div style=""width:500px;"">
                            <p style=""font-size:50px; font-weight:bold;""
                            >negative</p>
                            <div style=""width:240px; margin: auto;"">
                                <img src=""images/Y_L_S_23_lightshift.png"" style= ""width:200px""alt=""img"">
                            </div>
                        </div>","65","","0","images/Y_L_S_23_lightshift.png","","","","negative","2","Y","L","S","lightshift","",""
"","","","","","html-slider-response","38","103607","0.0-32.0","3wlv98mr6y","11","NaN","<div style=""width:500px;"">
                            <p style=""font-size:50px; font-weight:bold;""
                            >negative</p>
                            <div style=""width:240px; margin: auto;"">
                                <img src=""images/B_D_U_15_darkshift.png"" style= ""width:200px""alt=""img"">
                            </div>
                        </div>","-200","","0","images/B_D_U_15_darkshift.png","","","","negative","1","B","D","U","darkshift","",""
"","","","","","html-slider-response","39","105882","0.0-33.0","3wlv98mr6y","11","NaN","<div style=""width:500px;"">
                            <p style=""font-size:50px; font-weight:bold;""
                            >negative</p>
                            <div style=""width:240px; margin: auto;"">
                                <img src=""images/G_L_U_2_lightshift.png"" style= ""width:200px""alt=""img"">
                            </div>
                        </div>","-66","","0","images/G_L_U_2_lightshift.png","","","","negative","2","G","L","U","lightshift","",""
"","","","","","html-slider-response","40","107462","0.0-34.0","3wlv98mr6y","11","NaN","<div style=""width:500px;"">
                            <p style=""font-size:50px; font-weight:bold;""
                            >negative</p>
                            <div style=""width:240px; margin: auto;"">
                                <img src=""images/Y_D_U_28_darkshift.png"" style= ""width:200px""alt=""img"">
                            </div>
                        </div>","94","","0","images/Y_D_U_28_darkshift.png","","","","negative","1","Y","D","U","darkshift","",""
"","","","","","html-slider-response","41","109147","0.0-35.0","3wlv98mr6y","11","NaN","<div style=""width:500px;"">
                            <p style=""font-size:50px; font-weight:bold;""
                            >negative</p>
                            <div style=""width:240px; margin: auto;"">
                                <img src=""images/R_D_U_41_lightshift.png"" style= ""width:200px""alt=""img"">
                            </div>
                        </div>","-64","","0","images/R_D_U_41_lightshift.png","","","","negative","2","R","D","U","lightshift","",""
"","","","","","html-slider-response","42","111498","0.0-36.0","3wlv98mr6y","11","NaN","<div style=""width:500px;"">
                            <p style=""font-size:50px; font-weight:bold;""
                            >negative</p>
                            <div style=""width:240px; margin: auto;"">
                                <img src=""images/R_L_U_33_lightshift.png"" style= ""width:200px""alt=""img"">
                            </div>
                        </div>","-127","","0","images/R_L_U_33_lightshift.png","","","","negative","1","R","L","U","lightshift","",""
"","","","","","html-slider-response","43","115275","0.0-37.0","3wlv98mr6y","11","NaN","<div style=""width:500px;"">
                            <p style=""font-size:50px; font-weight:bold;""
                            >negative</p>
                            <div style=""width:240px; margin: auto;"">
                                <img src=""images/R_L_S_30_darkshift.png"" style= ""width:200px""alt=""img"">
                            </div>
                        </div>","-200","","0","images/R_L_S_30_darkshift.png","","","","negative","2","R","L","S","darkshift","",""
"","","","","","html-slider-response","44","116715","0.0-38.0","3wlv98mr6y","11","NaN","<div style=""width:500px;"">
                            <p style=""font-size:50px; font-weight:bold;""
                            >negative</p>
                            <div style=""width:240px; margin: auto;"">
                                <img src=""images/G_L_U_2_lightshift.png"" style= ""width:200px""alt=""img"">
                            </div>
                        </div>","-200","","0","images/G_L_U_2_lightshift.png","","","","negative","1","G","L","U","lightshift","",""
"","","","","","html-slider-response","45","118780","0.0-39.0","3wlv98mr6y","11","NaN","<div style=""width:500px;"">
                            <p style=""font-size:50px; font-weight:bold;""
                            >negative</p>
                            <div style=""width:240px; margin: auto;"">
                                <img src=""images/Y_D_S_27_darkshift.png"" style= ""width:200px""alt=""img"">
                            </div>
                        </div>","122","","0","images/Y_D_S_27_darkshift.png","","","","negative","2","Y","D","S","darkshift","",""
"","","","","","html-slider-response","46","120684","0.0-40.0","3wlv98mr6y","11","NaN","<div style=""width:500px;"">
                            <p style=""font-size:50px; font-weight:bold;""
                            >negative</p>
                            <div style=""width:240px; margin: auto;"">
                                <img src=""images/B_L_U_12_lightshift.png"" style= ""width:200px""alt=""img"">
                            </div>
                        </div>","-200","","0","images/B_L_U_12_lightshift.png","","","","negative","1","B","L","U","lightshift","",""
"","","","","","html-slider-response","47","123429","0.0-41.0","3wlv98mr6y","11","NaN","<div style=""width:500px;"">
                            <p style=""font-size:50px; font-weight:bold;""
                            >negative</p>
                            <div style=""width:240px; margin: auto;"">
                                <img src=""images/R_L_U_33_darkshift.png"" style= ""width:200px""alt=""img"">
                            </div>
                        </div>","-74","","0","images/R_L_U_33_darkshift.png","","","","negative","2","R","L","U","darkshift","",""
"","","","","","html-slider-response","48","125330","0.0-42.0","3wlv98mr6y","11","NaN","<div style=""width:500px;"">
                            <p style=""font-size:50px; font-weight:bold;""
                            >negative</p>
                            <div style=""width:240px; margin: auto;"">
                                <img src=""images/G_D_S_5_lightshift.png"" style= ""width:200px""alt=""img"">
                            </div>
                        </div>","2","","0","images/G_D_S_5_lightshift.png","","","","negative","1","G","D","S","lightshift","",""
"","","","","","html-slider-response","49","128792","0.0-43.0","3wlv98mr6y","11","NaN","<div style=""width:500px;"">
                            <p style=""font-size:50px; font-weight:bold;""
                            >negative</p>
                            <div style=""width:240px; margin: auto;"">
                                <img src=""images/G_L_S_44_lightshift.png"" style= ""width:200px""alt=""img"">
                            </div>
                        </div>","-200","","0","images/G_L_S_44_lightshift.png","","","","negative","1","G","L","S","lightshift","",""
"","","","","","html-slider-response","50","130419","0.0-44.0","3wlv98mr6y","11","NaN","<div style=""width:500px;"">
                            <p style=""font-size:50px; font-weight:bold;""
                            >negative</p>
                            <div style=""width:240px; margin: auto;"">
                                <img src=""images/R_D_S_37_lightshift.png"" style= ""width:200px""alt=""img"">
                            </div>
                        </div>","-149","","0","images/R_D_S_37_lightshift.png","","","","negative","2","R","D","S","lightshift","",""
"","","","","","html-slider-response","51","132736","0.0-45.0","3wlv98mr6y","11","NaN","<div style=""width:500px;"">
                            <p style=""font-size:50px; font-weight:bold;""
                            >negative</p>
                            <div style=""width:240px; margin: auto;"">
                                <img src=""images/G_D_U_7_lightshift.png"" style= ""width:200px""alt=""img"">
                            </div>
                        </div>","-124","","0","images/G_D_U_7_lightshift.png","","","","negative","1","G","D","U","lightshift","",""
"","","","","","html-slider-response","52","135056","0.0-46.0","3wlv98mr6y","11","NaN","<div style=""width:500px;"">
                            <p style=""font-size:50px; font-weight:bold;""
                            >negative</p>
                            <div style=""width:240px; margin: auto;"">
                                <img src=""images/Y_L_S_23_darkshift.png"" style= ""width:200px""alt=""img"">
                            </div>
                        </div>","-110","","0","images/Y_L_S_23_darkshift.png","","","","negative","2","Y","L","S","darkshift","",""
"","","","","","html-slider-response","53","136993","0.0-47.0","3wlv98mr6y","11","NaN","<div style=""width:500px;"">
                            <p style=""font-size:50px; font-weight:bold;""
                            >negative</p>
                            <div style=""width:240px; margin: auto;"">
                                <img src=""images/R_D_U_41_darkshift.png"" style= ""width:200px""alt=""img"">
                            </div>
                        </div>","-153","","0","images/R_D_U_41_darkshift.png","","","","negative","2","R","D","U","darkshift","",""
"","","","","","html-slider-response","54","139231","0.0-48.0","3wlv98mr6y","11","NaN","<div style=""width:500px;"">
                            <p style=""font-size:50px; font-weight:bold;""
                            >negative</p>
                            <div style=""width:240px; margin: auto;"">
                                <img src=""images/B_D_S_13_darkshift.png"" style= ""width:200px""alt=""img"">
                            </div>
                        </div>","-77","","0","images/B_D_S_13_darkshift.png","","","","negative","1","B","D","S","darkshift","",""
"","","","","","html-slider-response","55","140893","0.0-49.0","3wlv98mr6y","11","NaN","<div style=""width:500px;"">
                            <p style=""font-size:50px; font-weight:bold;""
                            >negative</p>
                            <div style=""width:240px; margin: auto;"">
                                <img src=""images/B_L_S_10_lightshift.png"" style= ""width:200px""alt=""img"">
                            </div>
                        </div>","-200","","0","images/B_L_S_10_lightshift.png","","","","negative","1","B","L","S","lightshift","",""
"","","","","","html-slider-response","56","142475","0.0-50.0","3wlv98mr6y","11","NaN","<div style=""width:500px;"">
                            <p style=""font-size:50px; font-weight:bold;""
                            >negative</p>
                            <div style=""width:240px; margin: auto;"">
                                <img src=""images/G_L_S_44_darkshift.png"" style= ""width:200px""alt=""img"">
                            </div>
                        </div>","-134","","0","images/G_L_S_44_darkshift.png","","","","negative","1","G","L","S","darkshift","",""
"","","","","","html-slider-response","57","144087","0.0-51.0","3wlv98mr6y","11","NaN","<div style=""width:500px;"">
                            <p style=""font-size:50px; font-weight:bold;""
                            >negative</p>
                            <div style=""width:240px; margin: auto;"">
                                <img src=""images/B_D_U_15_darkshift.png"" style= ""width:200px""alt=""img"">
                            </div>
                        </div>","-139","","0","images/B_D_U_15_darkshift.png","","","","negative","2","B","D","U","darkshift","",""
"","","","","","html-slider-response","58","145281","0.0-52.0","3wlv98mr6y","11","NaN","<div style=""width:500px;"">
                            <p style=""font-size:50px; font-weight:bold;""
                            >negative</p>
                            <div style=""width:240px; margin: auto;"">
                                <img src=""images/Y_L_U_26_lightshift.png"" style= ""width:200px""alt=""img"">
                            </div>
                        </div>","4","","0","images/Y_L_U_26_lightshift.png","","","","negative","2","Y","L","U","lightshift","",""
"","","","","","html-slider-response","59","146496","0.0-53.0","3wlv98mr6y","11","NaN","<div style=""width:500px;"">
                            <p style=""font-size:50px; font-weight:bold;""
                            >negative</p>
                            <div style=""width:240px; margin: auto;"">
                                <img src=""images/B_D_S_13_lightshift.png"" style= ""width:200px""alt=""img"">
                            </div>
                        </div>","3","","0","images/B_D_S_13_lightshift.png","","","","negative","1","B","D","S","lightshift","",""
"","","","","","html-slider-response","60","148490","0.0-54.0","3wlv98mr6y","11","NaN","<div style=""width:500px;"">
                            <p style=""font-size:50px; font-weight:bold;""
                            >negative</p>
                            <div style=""width:240px; margin: auto;"">
                                <img src=""images/Y_D_U_28_lightshift.png"" style= ""width:200px""alt=""img"">
                            </div>
                        </div>","126","","0","images/Y_D_U_28_lightshift.png","","","","negative","1","Y","D","U","lightshift","",""
"","","","","","html-slider-response","61","149986","0.0-55.0","3wlv98mr6y","11","NaN","<div style=""width:500px;"">
                            <p style=""font-size:50px; font-weight:bold;""
                            >negative</p>
                            <div style=""width:240px; margin: auto;"">
                                <img src=""images/R_D_U_41_lightshift.png"" style= ""width:200px""alt=""img"">
                            </div>
                        </div>","-94","","0","images/R_D_U_41_lightshift.png","","","","negative","1","R","D","U","lightshift","",""
"","","","","","html-slider-response","62","151573","0.0-56.0","3wlv98mr6y","11","NaN","<div style=""width:500px;"">
                            <p style=""font-size:50px; font-weight:bold;""
                            >negative</p>
                            <div style=""width:240px; margin: auto;"">
                                <img src=""images/G_L_S_44_darkshift.png"" style= ""width:200px""alt=""img"">
                            </div>
                        </div>","-74","","0","images/G_L_S_44_darkshift.png","","","","negative","2","G","L","S","darkshift","",""
"","","","","","html-slider-response","63","153127","0.0-57.0","3wlv98mr6y","11","NaN","<div style=""width:500px;"">
                            <p style=""font-size:50px; font-weight:bold;""
                            >negative</p>
                            <div style=""width:240px; margin: auto;"">
                                <img src=""images/R_D_S_37_darkshift.png"" style= ""width:200px""alt=""img"">
                            </div>
                        </div>","-186","","0","images/R_D_S_37_darkshift.png","","","","negative","1","R","D","S","darkshift","",""
"","","","","","html-slider-response","64","155407","0.0-58.0","3wlv98mr6y","11","NaN","<div style=""width:500px;"">
                            <p style=""font-size:50px; font-weight:bold;""
                            >negative</p>
                            <div style=""width:240px; margin: auto;"">
                                <img src=""images/Y_D_U_28_darkshift.png"" style= ""width:200px""alt=""img"">
                            </div>
                        </div>","-138","","0","images/Y_D_U_28_darkshift.png","","","","negative","2","Y","D","U","darkshift","",""
"","","","","","html-slider-response","65","157045","0.0-59.0","3wlv98mr6y","11","NaN","<div style=""width:500px;"">
                            <p style=""font-size:50px; font-weight:bold;""
                            >negative</p>
                            <div style=""width:240px; margin: auto;"">
                                <img src=""images/R_D_S_37_lightshift.png"" style= ""width:200px""alt=""img"">
                            </div>
                        </div>","-158","","0","images/R_D_S_37_lightshift.png","","","","negative","1","R","D","S","lightshift","",""
"","","","","","html-slider-response","66","158269","0.0-60.0","3wlv98mr6y","11","NaN","<div style=""width:500px;"">
                            <p style=""font-size:50px; font-weight:bold;""
                            >negative</p>
                            <div style=""width:240px; margin: auto;"">
                                <img src=""images/G_D_S_5_darkshift.png"" style= ""width:200px""alt=""img"">
                            </div>
                        </div>","-93","","0","images/G_D_S_5_darkshift.png","","","","negative","2","G","D","S","darkshift","",""
"","","","","","html-slider-response","67","160659","0.0-61.0","3wlv98mr6y","11","NaN","<div style=""width:500px;"">
                            <p style=""font-size:50px; font-weight:bold;""
                            >negative</p>
                            <div style=""width:240px; margin: auto;"">
                                <img src=""images/R_L_U_33_lightshift.png"" style= ""width:200px""alt=""img"">
                            </div>
                        </div>","-86","","0","images/R_L_U_33_lightshift.png","","","","negative","2","R","L","U","lightshift","",""
"","","","","","html-slider-response","68","162023","0.0-62.0","3wlv98mr6y","11","NaN","<div style=""width:500px;"">
                            <p style=""font-size:50px; font-weight:bold;""
                            >negative</p>
                            <div style=""width:240px; margin: auto;"">
                                <img src=""images/G_L_S_44_lightshift.png"" style= ""width:200px""alt=""img"">
                            </div>
                        </div>","-84","","0","images/G_L_S_44_lightshift.png","","","","negative","2","G","L","S","lightshift","",""
"","","","","","html-slider-response","69","163375","0.0-63.0","3wlv98mr6y","11","NaN","<div style=""width:500px;"">
                            <p style=""font-size:50px; font-weight:bold;""
                            >negative</p>
                            <div style=""width:240px; margin: auto;"">
                                <img src=""images/B_D_S_13_lightshift.png"" style= ""width:200px""alt=""img"">
                            </div>
                        </div>","-172","","0","images/B_D_S_13_lightshift.png","","","","negative","2","B","D","S","lightshift","",""
"","","","","","html-slider-response","70","164851","0.0-64.0","3wlv98mr6y","11","NaN","<div style=""width:500px;"">
                            <p style=""font-size:50px; font-weight:bold;""
                            >negative</p>
                            <div style=""width:240px; margin: auto;"">
                                <img src=""images/G_L_U_2_darkshift.png"" style= ""width:200px""alt=""img"">
                            </div>
                        </div>","-155","","0","images/G_L_U_2_darkshift.png","","","","negative","2","G","L","U","darkshift","",""
"","","","","","html-slider-response","71","166203","0.0-65.0","3wlv98mr6y","11","NaN","<div style=""width:500px;"">
                            <p style=""font-size:50px; font-weight:bold;""
                            >negative</p>
                            <div style=""width:240px; margin: auto;"">
                                <img src=""images/B_L_S_10_darkshift.png"" style= ""width:200px""alt=""img"">
                            </div>
                        </div>","-140","","0","images/B_L_S_10_darkshift.png","","","","negative","2","B","L","S","darkshift","",""
"","","","","","html-slider-response","72","168596","0.0-66.0","3wlv98mr6y","11","NaN","<div style=""width:500px;"">
                            <p style=""font-size:50px; font-weight:bold;""
                            >negative</p>
                            <div style=""width:240px; margin: auto;"">
                                <img src=""images/Y_D_S_27_darkshift.png"" style= ""width:200px""alt=""img"">
                            </div>
                        </div>","56","","0","images/Y_D_S_27_darkshift.png","","","","negative","1","Y","D","S","darkshift","",""
"","","","","","html-slider-response","73","170008","0.0-67.0","3wlv98mr6y","11","NaN","<div style=""width:500px;"">
                            <p style=""font-size:50px; font-weight:bold;""
                            >negative</p>
                            <div style=""width:240px; margin: auto;"">
                                <img src=""images/R_L_S_30_lightshift.png"" style= ""width:200px""alt=""img"">
                            </div>
                        </div>","-72","","0","images/R_L_S_30_lightshift.png","","","","negative","2","R","L","S","lightshift","",""
"","","","","","html-slider-response","74","171739","0.0-68.0","3wlv98mr6y","11","NaN","<div style=""width:500px;"">
                            <p style=""font-size:50px; font-weight:bold;""
                            >negative</p>
                            <div style=""width:240px; margin: auto;"">
                                <img src=""images/G_L_U_2_darkshift.png"" style= ""width:200px""alt=""img"">
                            </div>
                        </div>","-131","","0","images/G_L_U_2_darkshift.png","","","","negative","1","G","L","U","darkshift","",""
"","","","","","html-slider-response","75","173397","0.0-69.0","3wlv98mr6y","11","NaN","<div style=""width:500px;"">
                            <p style=""font-size:50px; font-weight:bold;""
                            >negative</p>
                            <div style=""width:240px; margin: auto;"">
                                <img src=""images/G_D_S_5_lightshift.png"" style= ""width:200px""alt=""img"">
                            </div>
                        </div>","-83","","0","images/G_D_S_5_lightshift.png","","","","negative","2","G","D","S","lightshift","",""
"","","","","","html-slider-response","76","174581","0.0-70.0","3wlv98mr6y","11","NaN","<div style=""width:500px;"">
                            <p style=""font-size:50px; font-weight:bold;""
                            >negative</p>
                            <div style=""width:240px; margin: auto;"">
                                <img src=""images/B_D_S_13_darkshift.png"" style= ""width:200px""alt=""img"">
                            </div>
                        </div>","-106","","0","images/B_D_S_13_darkshift.png","","","","negative","2","B","D","S","darkshift","",""
"","","","","","html-slider-response","77","177799","0.0-71.0","3wlv98mr6y","11","NaN","<div style=""width:500px;"">
                            <p style=""font-size:50px; font-weight:bold;""
                            >negative</p>
                            <div style=""width:240px; margin: auto;"">
                                <img src=""images/Y_L_U_26_darkshift.png"" style= ""width:200px""alt=""img"">
                            </div>
                        </div>","124","","0","images/Y_L_U_26_darkshift.png","","","","negative","1","Y","L","U","darkshift","",""
"","","","","","html-slider-response","78","179999","0.0-72.0","3wlv98mr6y","11","NaN","<div style=""width:500px;"">
                            <p style=""font-size:50px; font-weight:bold;""
                            >negative</p>
                            <div style=""width:240px; margin: auto;"">
                                <img src=""images/Y_L_S_23_darkshift.png"" style= ""width:200px""alt=""img"">
                            </div>
                        </div>","-96","","0","images/Y_L_S_23_darkshift.png","","","","negative","1","Y","L","S","darkshift","",""
"","","","","","html-slider-response","79","181315","0.0-73.0","3wlv98mr6y","11","NaN","<div style=""width:500px;"">
                            <p style=""font-size:50px; font-weight:bold;""
                            >negative</p>
                            <div style=""width:240px; margin: auto;"">
                                <img src=""images/R_D_U_41_darkshift.png"" style= ""width:200px""alt=""img"">
                            </div>
                        </div>","-58","","0","images/R_D_U_41_darkshift.png","","","","negative","1","R","D","U","darkshift","",""
"","","","","","html-slider-response","80","183101","0.0-74.0","3wlv98mr6y","11","NaN","<div style=""width:500px;"">
                            <p style=""font-size:50px; font-weight:bold;""
                            >negative</p>
                            <div style=""width:240px; margin: auto;"">
                                <img src=""images/Y_D_U_28_lightshift.png"" style= ""width:200px""alt=""img"">
                            </div>
                        </div>","19","","0","images/Y_D_U_28_lightshift.png","","","","negative","2","Y","D","U","lightshift","",""
"","","","","","html-slider-response","81","184317","0.0-75.0","3wlv98mr6y","11","NaN","<div style=""width:500px;"">
                            <p style=""font-size:50px; font-weight:bold;""
                            >negative</p>
                            <div style=""width:240px; margin: auto;"">
                                <img src=""images/R_L_U_33_darkshift.png"" style= ""width:200px""alt=""img"">
                            </div>
                        </div>","-110","","0","images/R_L_U_33_darkshift.png","","","","negative","1","R","L","U","darkshift","",""
"","","","","","html-slider-response","82","185564","0.0-76.0","3wlv98mr6y","11","NaN","<div style=""width:500px;"">
                            <p style=""font-size:50px; font-weight:bold;""
                            >negative</p>
                            <div style=""width:240px; margin: auto;"">
                                <img src=""images/R_L_S_30_darkshift.png"" style= ""width:200px""alt=""img"">
                            </div>
                        </div>","-124","","0","images/R_L_S_30_darkshift.png","","","","negative","1","R","L","S","darkshift","",""
"","","","","","html-slider-response","83","186853","0.0-77.0","3wlv98mr6y","11","NaN","<div style=""width:500px;"">
                            <p style=""font-size:50px; font-weight:bold;""
                            >negative</p>
                            <div style=""width:240px; margin: auto;"">
                                <img src=""images/B_L_U_12_lightshift.png"" style= ""width:200px""alt=""img"">
                            </div>
                        </div>","-124","","0","images/B_L_U_12_lightshift.png","","","","negative","2","B","L","U","lightshift","",""
"","","","","","html-button-response","84","188724","0.0-78.0","3wlv98mr6y","11","1360","<p>Great Job! You've finished block 1.<br></br> You have 3 block(s) left to go.<br></br></p>","0","","","","","","","","","","","","","",""
"","","","","","html-button-response","85","189912","0.0-79.0","3wlv98mr6y","11","1188","<p>In this block of trials, you will be asked to rate how much you associate each map with:</p > <p style = 'font-size:150%; font-weight: bold'>startling</p><br></br>","0","","","","","","","","","","","","","",""
"","","","","","html-slider-response","86","192241","0.0-80.0","3wlv98mr6y","11","NaN","<div style=""width:500px;"">
                            <p style=""font-size:50px; font-weight:bold;""
                            >startling</p>
                            <div style=""width:240px; margin: auto;"">
                                <img src=""images/G_L_S_44_darkshift.png"" style= ""width:200px""alt=""img"">
                            </div>
                        </div>","-192","","0","images/G_L_S_44_darkshift.png","","","","startling","1","G","L","S","darkshift","",""
"","","","","","html-slider-response","87","194979","0.0-81.0","3wlv98mr6y","11","NaN","<div style=""width:500px;"">
                            <p style=""font-size:50px; font-weight:bold;""
                            >startling</p>
                            <div style=""width:240px; margin: auto;"">
                                <img src=""images/R_L_U_33_lightshift.png"" style= ""width:200px""alt=""img"">
                            </div>
                        </div>","61","","0","images/R_L_U_33_lightshift.png","","","","startling","2","R","L","U","lightshift","",""
"","","","","","html-slider-response","88","196754","0.0-82.0","3wlv98mr6y","11","NaN","<div style=""width:500px;"">
                            <p style=""font-size:50px; font-weight:bold;""
                            >startling</p>
                            <div style=""width:240px; margin: auto;"">
                                <img src=""images/Y_L_U_26_lightshift.png"" style= ""width:200px""alt=""img"">
                            </div>
                        </div>","74","","0","images/Y_L_U_26_lightshift.png","","","","startling","1","Y","L","U","lightshift","",""
"","","","","","html-slider-response","89","199743","0.0-83.0","3wlv98mr6y","11","NaN","<div style=""width:500px;"">
                            <p style=""font-size:50px; font-weight:bold;""
                            >startling</p>
                            <div style=""width:240px; margin: auto;"">
                                <img src=""images/B_L_S_10_lightshift.png"" style= ""width:200px""alt=""img"">
                            </div>
                        </div>","-155","","0","images/B_L_S_10_lightshift.png","","","","startling","1","B","L","S","lightshift","",""
"","","","","","html-slider-response","90","201712","0.0-84.0","3wlv98mr6y","11","NaN","<div style=""width:500px;"">
                            <p style=""font-size:50px; font-weight:bold;""
                            >startling</p>
                            <div style=""width:240px; margin: auto;"">
                                <img src=""images/R_D_U_41_darkshift.png"" style= ""width:200px""alt=""img"">
                            </div>
                        </div>","-179","","0","images/R_D_U_41_darkshift.png","","","","startling","1","R","D","U","darkshift","",""
"","","","","","html-slider-response","91","203260","0.0-85.0","3wlv98mr6y","11","NaN","<div style=""width:500px;"">
                            <p style=""font-size:50px; font-weight:bold;""
                            >startling</p>
                            <div style=""width:240px; margin: auto;"">
                                <img src=""images/G_L_S_44_darkshift.png"" style= ""width:200px""alt=""img"">
                            </div>
                        </div>","-185","","0","images/G_L_S_44_darkshift.png","","","","startling","2","G","L","S","darkshift","",""
"","","","","","html-slider-response","92","206856","0.0-86.0","3wlv98mr6y","11","NaN","<div style=""width:500px;"">
                            <p style=""font-size:50px; font-weight:bold;""
                            >startling</p>
                            <div style=""width:240px; margin: auto;"">
                                <img src=""images/R_L_S_30_darkshift.png"" style= ""width:200px""alt=""img"">
                            </div>
                        </div>","-38","","0","images/R_L_S_30_darkshift.png","","","","startling","2","R","L","S","darkshift","",""
"","","","","","html-slider-response","93","208473","0.0-87.0","3wlv98mr6y","11","NaN","<div style=""width:500px;"">
                            <p style=""font-size:50px; font-weight:bold;""
                            >startling</p>
                            <div style=""width:240px; margin: auto;"">
                                <img src=""images/Y_D_U_28_darkshift.png"" style= ""width:200px""alt=""img"">
                            </div>
                        </div>","-178","","0","images/Y_D_U_28_darkshift.png","","","","startling","1","Y","D","U","darkshift","",""
"","","","","","html-slider-response","94","211117","0.0-88.0","3wlv98mr6y","11","NaN","<div style=""width:500px;"">
                            <p style=""font-size:50px; font-weight:bold;""
                            >startling</p>
                            <div style=""width:240px; margin: auto;"">
                                <img src=""images/G_L_U_2_darkshift.png"" style= ""width:200px""alt=""img"">
                            </div>
                        </div>","-195","","0","images/G_L_U_2_darkshift.png","","","","startling","2","G","L","U","darkshift","",""
"","","","","","html-slider-response","95","213047","0.0-89.0","3wlv98mr6y","11","NaN","<div style=""width:500px;"">
                            <p style=""font-size:50px; font-weight:bold;""
                            >startling</p>
                            <div style=""width:240px; margin: auto;"">
                                <img src=""images/B_L_U_12_darkshift.png"" style= ""width:200px""alt=""img"">
                            </div>
                        </div>","-192","","0","images/B_L_U_12_darkshift.png","","","","startling","1","B","L","U","darkshift","",""
"","","","","","html-slider-response","96","214122","0.0-90.0","3wlv98mr6y","11","NaN","<div style=""width:500px;"">
                            <p style=""font-size:50px; font-weight:bold;""
                            >startling</p>
                            <div style=""width:240px; margin: auto;"">
                                <img src=""images/R_L_U_33_darkshift.png"" style= ""width:200px""alt=""img"">
                            </div>
                        </div>","-192","","0","images/R_L_U_33_darkshift.png","","","","startling","2","R","L","U","darkshift","",""
"","","","","","html-slider-response","97","216312","0.0-91.0","3wlv98mr6y","11","NaN","<div style=""width:500px;"">
                            <p style=""font-size:50px; font-weight:bold;""
                            >startling</p>
                            <div style=""width:240px; margin: auto;"">
                                <img src=""images/Y_D_S_27_lightshift.png"" style= ""width:200px""alt=""img"">
                            </div>
                        </div>","-192","","0","images/Y_D_S_27_lightshift.png","","","","startling","1","Y","D","S","lightshift","",""
"","","","","","html-slider-response","98","218394","0.0-92.0","3wlv98mr6y","11","NaN","<div style=""width:500px;"">
                            <p style=""font-size:50px; font-weight:bold;""
                            >startling</p>
                            <div style=""width:240px; margin: auto;"">
                                <img src=""images/Y_L_U_26_lightshift.png"" style= ""width:200px""alt=""img"">
                            </div>
                        </div>","90","","0","images/Y_L_U_26_lightshift.png","","","","startling","2","Y","L","U","lightshift","",""
"","","","","","html-slider-response","99","220480","0.0-93.0","3wlv98mr6y","11","NaN","<div style=""width:500px;"">
                            <p style=""font-size:50px; font-weight:bold;""
                            >startling</p>
                            <div style=""width:240px; margin: auto;"">
                                <img src=""images/R_L_U_33_lightshift.png"" style= ""width:200px""alt=""img"">
                            </div>
                        </div>","-194","","0","images/R_L_U_33_lightshift.png","","","","startling","1","R","L","U","lightshift","",""
"","","","","","html-slider-response","100","223456","0.0-94.0","3wlv98mr6y","11","NaN","<div style=""width:500px;"">
                            <p style=""font-size:50px; font-weight:bold;""
                            >startling</p>
                            <div style=""width:240px; margin: auto;"">
                                <img src=""images/R_D_S_37_darkshift.png"" style= ""width:200px""alt=""img"">
                            </div>
                        </div>","-188","","0","images/R_D_S_37_darkshift.png","","","","startling","2","R","D","S","darkshift","",""
"","","","","","html-slider-response","101","224597","0.0-95.0","3wlv98mr6y","11","NaN","<div style=""width:500px;"">
                            <p style=""font-size:50px; font-weight:bold;""
                            >startling</p>
                            <div style=""width:240px; margin: auto;"">
                                <img src=""images/B_D_S_13_darkshift.png"" style= ""width:200px""alt=""img"">
                            </div>
                        </div>","-188","","0","images/B_D_S_13_darkshift.png","","","","startling","1","B","D","S","darkshift","",""
"","","","","","html-slider-response","102","226910","0.0-96.0","3wlv98mr6y","11","NaN","<div style=""width:500px;"">
                            <p style=""font-size:50px; font-weight:bold;""
                            >startling</p>
                            <div style=""width:240px; margin: auto;"">
                                <img src=""images/R_D_S_37_lightshift.png"" style= ""width:200px""alt=""img"">
                            </div>
                        </div>","-195","","0","images/R_D_S_37_lightshift.png","","","","startling","1","R","D","S","lightshift","",""
"","","","","","html-slider-response","103","228277","0.0-97.0","3wlv98mr6y","11","NaN","<div style=""width:500px;"">
                            <p style=""font-size:50px; font-weight:bold;""
                            >startling</p>
                            <div style=""width:240px; margin: auto;"">
                                <img src=""images/R_L_S_30_lightshift.png"" style= ""width:200px""alt=""img"">
                            </div>
                        </div>","-195","","0","images/R_L_S_30_lightshift.png","","","","startling","1","R","L","S","lightshift","",""
"","","","","","html-slider-response","104","229692","0.0-98.0","3wlv98mr6y","11","NaN","<div style=""width:500px;"">
                            <p style=""font-size:50px; font-weight:bold;""
                            >startling</p>
                            <div style=""width:240px; margin: auto;"">
                                <img src=""images/Y_D_S_27_darkshift.png"" style= ""width:200px""alt=""img"">
                            </div>
                        </div>","-195","","0","images/Y_D_S_27_darkshift.png","","","","startling","2","Y","D","S","darkshift","",""
"","","","","","html-slider-response","105","232196","0.0-99.0","3wlv98mr6y","11","NaN","<div style=""width:500px;"">
                            <p style=""font-size:50px; font-weight:bold;""
                            >startling</p>
                            <div style=""width:240px; margin: auto;"">
                                <img src=""images/B_L_U_12_lightshift.png"" style= ""width:200px""alt=""img"">
                            </div>
                        </div>","52","","0","images/B_L_U_12_lightshift.png","","","","startling","1","B","L","U","lightshift","",""
"","","","","","html-slider-response","106","233912","0.0-100.0","3wlv98mr6y","11","NaN","<div style=""width:500px;"">
                            <p style=""font-size:50px; font-weight:bold;""
                            >startling</p>
                            <div style=""width:240px; margin: auto;"">
                                <img src=""images/R_L_S_30_darkshift.png"" style= ""width:200px""alt=""img"">
                            </div>
                        </div>","-141","","0","images/R_L_S_30_darkshift.png","","","","startling","1","R","L","S","darkshift","",""
"","","","","","html-slider-response","107","235285","0.0-101.0","3wlv98mr6y","11","NaN","<div style=""width:500px;"">
                            <p style=""font-size:50px; font-weight:bold;""
                            >startling</p>
                            <div style=""width:240px; margin: auto;"">
                                <img src=""images/Y_L_U_26_darkshift.png"" style= ""width:200px""alt=""img"">
                            </div>
                        </div>","-141","","0","images/Y_L_U_26_darkshift.png","","","","startling","2","Y","L","U","darkshift","",""
"","","","","","html-slider-response","108","236750","0.0-102.0","3wlv98mr6y","11","NaN","<div style=""width:500px;"">
                            <p style=""font-size:50px; font-weight:bold;""
                            >startling</p>
                            <div style=""width:240px; margin: auto;"">
                                <img src=""images/G_D_U_7_lightshift.png"" style= ""width:200px""alt=""img"">
                            </div>
                        </div>","-141","","0","images/G_D_U_7_lightshift.png","","","","startling","2","G","D","U","lightshift","",""
"","","","","","html-slider-response","109","237867","0.0-103.0","3wlv98mr6y","11","NaN","<div style=""width:500px;"">
                            <p style=""font-size:50px; font-weight:bold;""
                            >startling</p>
                            <div style=""width:240px; margin: auto;"">
                                <img src=""images/B_L_S_10_darkshift.png"" style= ""width:200px""alt=""img"">
                            </div>
                        </div>","-141","","0","images/B_L_S_10_darkshift.png","","","","startling","2","B","L","S","darkshift","",""
"","","","","","html-slider-response","110","239129","0.0-104.0","3wlv98mr6y","11","NaN","<div style=""width:500px;"">
                            <p style=""font-size:50px; font-weight:bold;""
                            >startling</p>
                            <div style=""width:240px; margin: auto;"">
                                <img src=""images/R_D_U_41_lightshift.png"" style= ""width:200px""alt=""img"">
                            </div>
                        </div>","-105","","0","images/R_D_U_41_lightshift.png","","","","startling","2","R","D","U","lightshift","",""
"","","","","","html-slider-response","111","240297","0.0-105.0","3wlv98mr6y","11","NaN","<div style=""width:500px;"">
                            <p style=""font-size:50px; font-weight:bold;""
                            >startling</p>
                            <div style=""width:240px; margin: auto;"">
                                <img src=""images/G_D_S_5_darkshift.png"" style= ""width:200px""alt=""img"">
                            </div>
                        </div>","-176","","0","images/G_D_S_5_darkshift.png","","","","startling","1","G","D","S","darkshift","",""
"","","","","","html-slider-response","112","241778","0.0-106.0","3wlv98mr6y","11","NaN","<div style=""width:500px;"">
                            <p style=""font-size:50px; font-weight:bold;""
                            >startling</p>
                            <div style=""width:240px; margin: auto;"">
                                <img src=""images/Y_D_U_28_darkshift.png"" style= ""width:200px""alt=""img"">
                            </div>
                        </div>","-133","","0","images/Y_D_U_28_darkshift.png","","","","startling","2","Y","D","U","darkshift","",""
"","","","","","html-slider-response","113","243857","0.0-107.0","3wlv98mr6y","11","NaN","<div style=""width:500px;"">
                            <p style=""font-size:50px; font-weight:bold;""
                            >startling</p>
                            <div style=""width:240px; margin: auto;"">
                                <img src=""images/B_L_U_12_darkshift.png"" style= ""width:200px""alt=""img"">
                            </div>
                        </div>","29","","0","images/B_L_U_12_darkshift.png","","","","startling","2","B","L","U","darkshift","",""
"","","","","","html-slider-response","114","245696","0.0-108.0","3wlv98mr6y","11","NaN","<div style=""width:500px;"">
                            <p style=""font-size:50px; font-weight:bold;""
                            >startling</p>
                            <div style=""width:240px; margin: auto;"">
                                <img src=""images/Y_L_U_26_darkshift.png"" style= ""width:200px""alt=""img"">
                            </div>
                        </div>","-121","","0","images/Y_L_U_26_darkshift.png","","","","startling","1","Y","L","U","darkshift","",""
"","","","","","html-slider-response","115","247258","0.0-109.0","3wlv98mr6y","11","NaN","<div style=""width:500px;"">
                            <p style=""font-size:50px; font-weight:bold;""
                            >startling</p>
                            <div style=""width:240px; margin: auto;"">
                                <img src=""images/Y_L_S_23_lightshift.png"" style= ""width:200px""alt=""img"">
                            </div>
                        </div>","119","","0","images/Y_L_S_23_lightshift.png","","","","startling","1","Y","L","S","lightshift","",""
"","","","","","html-slider-response","116","248319","0.0-110.0","3wlv98mr6y","11","NaN","<div style=""width:500px;"">
                            <p style=""font-size:50px; font-weight:bold;""
                            >startling</p>
                            <div style=""width:240px; margin: auto;"">
                                <img src=""images/R_D_S_37_darkshift.png"" style= ""width:200px""alt=""img"">
                            </div>
                        </div>","-156","","0","images/R_D_S_37_darkshift.png","","","","startling","1","R","D","S","darkshift","",""
"","","","","","html-slider-response","117","250027","0.0-111.0","3wlv98mr6y","11","NaN","<div style=""width:500px;"">
                            <p style=""font-size:50px; font-weight:bold;""
                            >startling</p>
                            <div style=""width:240px; margin: auto;"">
                                <img src=""images/G_L_S_44_lightshift.png"" style= ""width:200px""alt=""img"">
                            </div>
                        </div>","191","","0","images/G_L_S_44_lightshift.png","","","","startling","1","G","L","S","lightshift","",""
"","","","","","html-slider-response","118","251537","0.0-112.0","3wlv98mr6y","11","NaN","<div style=""width:500px;"">
                            <p style=""font-size:50px; font-weight:bold;""
                            >startling</p>
                            <div style=""width:240px; margin: auto;"">
                                <img src=""images/B_L_U_12_lightshift.png"" style= ""width:200px""alt=""img"">
                            </div>
                        </div>","87","","0","images/B_L_U_12_lightshift.png","","","","startling","2","B","L","U","lightshift","",""
"","","","","","html-slider-response","119","253945","0.0-113.0","3wlv98mr6y","11","NaN","<div style=""width:500px;"">
                            <p style=""font-size:50px; font-weight:bold;""
                            >startling</p>
                            <div style=""width:240px; margin: auto;"">
                                <img src=""images/B_L_S_10_lightshift.png"" style= ""width:200px""alt=""img"">
                            </div>
                        </div>","125","","0","images/B_L_S_10_lightshift.png","","","","startling","2","B","L","S","lightshift","",""
"","","","","","html-slider-response","120","255233","0.0-114.0","3wlv98mr6y","11","NaN","<div style=""width:500px;"">
                            <p style=""font-size:50px; font-weight:bold;""
                            >startling</p>
                            <div style=""width:240px; margin: auto;"">
                                <img src=""images/G_D_S_5_darkshift.png"" style= ""width:200px""alt=""img"">
                            </div>
                        </div>","-138","","0","images/G_D_S_5_darkshift.png","","","","startling","2","G","D","S","darkshift","",""
"","","","","","html-slider-response","121","256913","0.0-115.0","3wlv98mr6y","11","NaN","<div style=""width:500px;"">
                            <p style=""font-size:50px; font-weight:bold;""
                            >startling</p>
                            <div style=""width:240px; margin: auto;"">
                                <img src=""images/B_D_U_15_darkshift.png"" style= ""width:200px""alt=""img"">
                            </div>
                        </div>","-178","","0","images/B_D_U_15_darkshift.png","","","","startling","1","B","D","U","darkshift","",""
"","","","","","html-slider-response","122","258372","0.0-116.0","3wlv98mr6y","11","NaN","<div style=""width:500px;"">
                            <p style=""font-size:50px; font-weight:bold;""
                            >startling</p>
                            <div style=""width:240px; margin: auto;"">
                                <img src=""images/G_D_S_5_lightshift.png"" style= ""width:200px""alt=""img"">
                            </div>
                        </div>","82","","0","images/G_D_S_5_lightshift.png","","","","startling","1","G","D","S","lightshift","",""
"","","","","","html-slider-response","123","260490","0.0-117.0","3wlv98mr6y","11","NaN","<div style=""width:500px;"">
                            <p style=""font-size:50px; font-weight:bold;""
                            >startling</p>
                            <div style=""width:240px; margin: auto;"">
                                <img src=""images/R_D_U_41_lightshift.png"" style= ""width:200px""alt=""img"">
                            </div>
                        </div>","-183","","0","images/R_D_U_41_lightshift.png","","","","startling","1","R","D","U","lightshift","",""
"","","","","","html-slider-response","124","261900","0.0-118.0","3wlv98mr6y","11","NaN","<div style=""width:500px;"">
                            <p style=""font-size:50px; font-weight:bold;""
                            >startling</p>
                            <div style=""width:240px; margin: auto;"">
                                <img src=""images/G_D_S_5_lightshift.png"" style= ""width:200px""alt=""img"">
                            </div>
                        </div>","-136","","0","images/G_D_S_5_lightshift.png","","","","startling","2","G","D","S","lightshift","",""
"","","","","","html-slider-response","125","263684","0.0-119.0","3wlv98mr6y","11","NaN","<div style=""width:500px;"">
                            <p style=""font-size:50px; font-weight:bold;""
                            >startling</p>
                            <div style=""width:240px; margin: auto;"">
                                <img src=""images/G_L_U_2_lightshift.png"" style= ""width:200px""alt=""img"">
                            </div>
                        </div>","54","","0","images/G_L_U_2_lightshift.png","","","","startling","1","G","L","U","lightshift","",""
"","","","","","html-slider-response","126","265006","0.0-120.0","3wlv98mr6y","11","NaN","<div style=""width:500px;"">
                            <p style=""font-size:50px; font-weight:bold;""
                            >startling</p>
                            <div style=""width:240px; margin: auto;"">
                                <img src=""images/G_D_U_7_lightshift.png"" style= ""width:200px""alt=""img"">
                            </div>
                        </div>","-145","","0","images/G_D_U_7_lightshift.png","","","","startling","1","G","D","U","lightshift","",""
"","","","","","html-slider-response","127","266763","0.0-121.0","3wlv98mr6y","11","NaN","<div style=""width:500px;"">
                            <p style=""font-size:50px; font-weight:bold;""
                            >startling</p>
                            <div style=""width:240px; margin: auto;"">
                                <img src=""images/B_L_S_10_darkshift.png"" style= ""width:200px""alt=""img"">
                            </div>
                        </div>","67","","0","images/B_L_S_10_darkshift.png","","","","startling","1","B","L","S","darkshift","",""
"","","","","","html-slider-response","128","268557","0.0-122.0","3wlv98mr6y","11","NaN","<div style=""width:500px;"">
                            <p style=""font-size:50px; font-weight:bold;""
                            >startling</p>
                            <div style=""width:240px; margin: auto;"">
                                <img src=""images/R_L_U_33_darkshift.png"" style= ""width:200px""alt=""img"">
                            </div>
                        </div>","-159","","0","images/R_L_U_33_darkshift.png","","","","startling","1","R","L","U","darkshift","",""
"","","","","","html-slider-response","129","269912","0.0-123.0","3wlv98mr6y","11","NaN","<div style=""width:500px;"">
                            <p style=""font-size:50px; font-weight:bold;""
                            >startling</p>
                            <div style=""width:240px; margin: auto;"">
                                <img src=""images/G_D_U_7_darkshift.png"" style= ""width:200px""alt=""img"">
                            </div>
                        </div>","-163","","0","images/G_D_U_7_darkshift.png","","","","startling","1","G","D","U","darkshift","",""
"","","","","","html-slider-response","130","271120","0.0-124.0","3wlv98mr6y","11","NaN","<div style=""width:500px;"">
                            <p style=""font-size:50px; font-weight:bold;""
                            >startling</p>
                            <div style=""width:240px; margin: auto;"">
                                <img src=""images/G_D_U_7_darkshift.png"" style= ""width:200px""alt=""img"">
                            </div>
                        </div>","-198","","0","images/G_D_U_7_darkshift.png","","","","startling","2","G","D","U","darkshift","",""
"","","","","","html-slider-response","131","272134","0.0-125.0","3wlv98mr6y","11","NaN","<div style=""width:500px;"">
                            <p style=""font-size:50px; font-weight:bold;""
                            >startling</p>
                            <div style=""width:240px; margin: auto;"">
                                <img src=""images/R_D_U_41_darkshift.png"" style= ""width:200px""alt=""img"">
                            </div>
                        </div>","-198","","0","images/R_D_U_41_darkshift.png","","","","startling","2","R","D","U","darkshift","",""
"","","","","","html-slider-response","132","273917","0.0-126.0","3wlv98mr6y","11","NaN","<div style=""width:500px;"">
                            <p style=""font-size:50px; font-weight:bold;""
                            >startling</p>
                            <div style=""width:240px; margin: auto;"">
                                <img src=""images/R_L_S_30_lightshift.png"" style= ""width:200px""alt=""img"">
                            </div>
                        </div>","89","","0","images/R_L_S_30_lightshift.png","","","","startling","2","R","L","S","lightshift","",""
"","","","","","html-slider-response","133","276006","0.0-127.0","3wlv98mr6y","11","NaN","<div style=""width:500px;"">
                            <p style=""font-size:50px; font-weight:bold;""
                            >startling</p>
                            <div style=""width:240px; margin: auto;"">
                                <img src=""images/G_L_S_44_lightshift.png"" style= ""width:200px""alt=""img"">
                            </div>
                        </div>","81","","0","images/G_L_S_44_lightshift.png","","","","startling","2","G","L","S","lightshift","",""
"","","","","","html-slider-response","134","278390","0.0-128.0","3wlv98mr6y","11","NaN","<div style=""width:500px;"">
                            <p style=""font-size:50px; font-weight:bold;""
                            >startling</p>
                            <div style=""width:240px; margin: auto;"">
                                <img src=""images/Y_D_S_27_lightshift.png"" style= ""width:200px""alt=""img"">
                            </div>
                        </div>","-137","","0","images/Y_D_S_27_lightshift.png","","","","startling","2","Y","D","S","lightshift","",""
"","","","","","html-slider-response","135","279759","0.0-129.0","3wlv98mr6y","11","NaN","<div style=""width:500px;"">
                            <p style=""font-size:50px; font-weight:bold;""
                            >startling</p>
                            <div style=""width:240px; margin: auto;"">
                                <img src=""images/B_D_S_13_darkshift.png"" style= ""width:200px""alt=""img"">
                            </div>
                        </div>","-188","","0","images/B_D_S_13_darkshift.png","","","","startling","2","B","D","S","darkshift","",""
"","","","","","html-slider-response","136","280963","0.0-130.0","3wlv98mr6y","11","NaN","<div style=""width:500px;"">
                            <p style=""font-size:50px; font-weight:bold;""
                            >startling</p>
                            <div style=""width:240px; margin: auto;"">
                                <img src=""images/R_D_S_37_lightshift.png"" style= ""width:200px""alt=""img"">
                            </div>
                        </div>","-185","","0","images/R_D_S_37_lightshift.png","","","","startling","2","R","D","S","lightshift","",""
"","","","","","html-slider-response","137","282049","0.0-131.0","3wlv98mr6y","11","NaN","<div style=""width:500px;"">
                            <p style=""font-size:50px; font-weight:bold;""
                            >startling</p>
                            <div style=""width:240px; margin: auto;"">
                                <img src=""images/B_D_S_13_lightshift.png"" style= ""width:200px""alt=""img"">
                            </div>
                        </div>","-185","","0","images/B_D_S_13_lightshift.png","","","","startling","1","B","D","S","lightshift","",""
"","","","","","html-slider-response","138","283639","0.0-132.0","3wlv98mr6y","11","NaN","<div style=""width:500px;"">
                            <p style=""font-size:50px; font-weight:bold;""
                            >startling</p>
                            <div style=""width:240px; margin: auto;"">
                                <img src=""images/Y_L_S_23_lightshift.png"" style= ""width:200px""alt=""img"">
                            </div>
                        </div>","170","","0","images/Y_L_S_23_lightshift.png","","","","startling","2","Y","L","S","lightshift","",""
"","","","","","html-slider-response","139","285323","0.0-133.0","3wlv98mr6y","11","NaN","<div style=""width:500px;"">
                            <p style=""font-size:50px; font-weight:bold;""
                            >startling</p>
                            <div style=""width:240px; margin: auto;"">
                                <img src=""images/B_D_U_15_lightshift.png"" style= ""width:200px""alt=""img"">
                            </div>
                        </div>","-184","","0","images/B_D_U_15_lightshift.png","","","","startling","2","B","D","U","lightshift","",""
"","","","","","html-slider-response","140","286382","0.0-134.0","3wlv98mr6y","11","NaN","<div style=""width:500px;"">
                            <p style=""font-size:50px; font-weight:bold;""
                            >startling</p>
                            <div style=""width:240px; margin: auto;"">
                                <img src=""images/Y_D_U_28_lightshift.png"" style= ""width:200px""alt=""img"">
                            </div>
                        </div>","-179","","0","images/Y_D_U_28_lightshift.png","","","","startling","1","Y","D","U","lightshift","",""
"","","","","","html-slider-response","141","288173","0.0-135.0","3wlv98mr6y","11","NaN","<div style=""width:500px;"">
                            <p style=""font-size:50px; font-weight:bold;""
                            >startling</p>
                            <div style=""width:240px; margin: auto;"">
                                <img src=""images/G_L_U_2_darkshift.png"" style= ""width:200px""alt=""img"">
                            </div>
                        </div>","-62","","0","images/G_L_U_2_darkshift.png","","","","startling","1","G","L","U","darkshift","",""
"","","","","","html-slider-response","142","289464","0.0-136.0","3wlv98mr6y","11","NaN","<div style=""width:500px;"">
                            <p style=""font-size:50px; font-weight:bold;""
                            >startling</p>
                            <div style=""width:240px; margin: auto;"">
                                <img src=""images/Y_L_S_23_darkshift.png"" style= ""width:200px""alt=""img"">
                            </div>
                        </div>","-101","","0","images/Y_L_S_23_darkshift.png","","","","startling","1","Y","L","S","darkshift","",""
"","","","","","html-slider-response","143","292493","0.0-137.0","3wlv98mr6y","11","NaN","<div style=""width:500px;"">
                            <p style=""font-size:50px; font-weight:bold;""
                            >startling</p>
                            <div style=""width:240px; margin: auto;"">
                                <img src=""images/B_D_S_13_lightshift.png"" style= ""width:200px""alt=""img"">
                            </div>
                        </div>","70","","0","images/B_D_S_13_lightshift.png","","","","startling","2","B","D","S","lightshift","",""
"","","","","","html-slider-response","144","294349","0.0-138.0","3wlv98mr6y","11","NaN","<div style=""width:500px;"">
                            <p style=""font-size:50px; font-weight:bold;""
                            >startling</p>
                            <div style=""width:240px; margin: auto;"">
                                <img src=""images/Y_D_U_28_lightshift.png"" style= ""width:200px""alt=""img"">
                            </div>
                        </div>","-190","","0","images/Y_D_U_28_lightshift.png","","","","startling","2","Y","D","U","lightshift","",""
"","","","","","html-slider-response","145","298135","0.0-139.0","3wlv98mr6y","11","NaN","<div style=""width:500px;"">
                            <p style=""font-size:50px; font-weight:bold;""
                            >startling</p>
                            <div style=""width:240px; margin: auto;"">
                                <img src=""images/B_D_U_15_lightshift.png"" style= ""width:200px""alt=""img"">
                            </div>
                        </div>","-179","","0","images/B_D_U_15_lightshift.png","","","","startling","1","B","D","U","lightshift","",""
"","","","","","html-slider-response","146","299862","0.0-140.0","3wlv98mr6y","11","NaN","<div style=""width:500px;"">
                            <p style=""font-size:50px; font-weight:bold;""
                            >startling</p>
                            <div style=""width:240px; margin: auto;"">
                                <img src=""images/B_D_U_15_darkshift.png"" style= ""width:200px""alt=""img"">
                            </div>
                        </div>","-193","","0","images/B_D_U_15_darkshift.png","","","","startling","2","B","D","U","darkshift","",""
"","","","","","html-slider-response","147","300979","0.0-141.0","3wlv98mr6y","11","NaN","<div style=""width:500px;"">
                            <p style=""font-size:50px; font-weight:bold;""
                            >startling</p>
                            <div style=""width:240px; margin: auto;"">
                                <img src=""images/Y_D_S_27_darkshift.png"" style= ""width:200px""alt=""img"">
                            </div>
                        </div>","-184","","0","images/Y_D_S_27_darkshift.png","","","","startling","1","Y","D","S","darkshift","",""
"","","","","","html-slider-response","148","302006","0.0-142.0","3wlv98mr6y","11","NaN","<div style=""width:500px;"">
                            <p style=""font-size:50px; font-weight:bold;""
                            >startling</p>
                            <div style=""width:240px; margin: auto;"">
                                <img src=""images/Y_L_S_23_darkshift.png"" style= ""width:200px""alt=""img"">
                            </div>
                        </div>","-184","","0","images/Y_L_S_23_darkshift.png","","","","startling","2","Y","L","S","darkshift","",""
"","","","","","html-slider-response","149","303923","0.0-143.0","3wlv98mr6y","11","NaN","<div style=""width:500px;"">
                            <p style=""font-size:50px; font-weight:bold;""
                            >startling</p>
                            <div style=""width:240px; margin: auto;"">
                                <img src=""images/G_L_U_2_lightshift.png"" style= ""width:200px""alt=""img"">
                            </div>
                        </div>","96","","0","images/G_L_U_2_lightshift.png","","","","startling","2","G","L","U","lightshift","",""
"","","","","","html-button-response","150","306373","0.0-144.0","3wlv98mr6y","11","1945","<p>Great Job! You've finished block 2.<br></br> You have 2 block(s) left to go.<br></br></p>","0","","","","","","","","","","","","","",""
"","","","","","html-button-response","151","307149","0.0-145.0","3wlv98mr6y","11","776","<p>In this block of trials, you will be asked to rate how much you associate each map with:</p > <p style = 'font-size:150%; font-weight: bold'>positive</p><br></br>","0","","","","","","","","","","","","","",""
"","","","","","html-slider-response","152","310262","0.0-146.0","3wlv98mr6y","11","NaN","<div style=""width:500px;"">
                            <p style=""font-size:50px; font-weight:bold;""
                            >positive</p>
                            <div style=""width:240px; margin: auto;"">
                                <img src=""images/R_D_S_37_darkshift.png"" style= ""width:200px""alt=""img"">
                            </div>
                        </div>","190","","0","images/R_D_S_37_darkshift.png","","","","positive","2","R","D","S","darkshift","",""
"","","","","","html-slider-response","153","312219","0.0-147.0","3wlv98mr6y","11","NaN","<div style=""width:500px;"">
                            <p style=""font-size:50px; font-weight:bold;""
                            >positive</p>
                            <div style=""width:240px; margin: auto;"">
                                <img src=""images/B_L_S_10_darkshift.png"" style= ""width:200px""alt=""img"">
                            </div>
                        </div>","138","","0","images/B_L_S_10_darkshift.png","","","","positive","1","B","L","S","darkshift","",""
"","","","","","html-slider-response","154","314218","0.0-148.0","3wlv98mr6y","11","NaN","<div style=""width:500px;"">
                            <p style=""font-size:50px; font-weight:bold;""
                            >positive</p>
                            <div style=""width:240px; margin: auto;"">
                                <img src=""images/G_D_U_7_lightshift.png"" style= ""width:200px""alt=""img"">
                            </div>
                        </div>","-47","","0","images/G_D_U_7_lightshift.png","","","","positive","2","G","D","U","lightshift","",""
"","","","","","html-slider-response","155","315829","0.0-149.0","3wlv98mr6y","11","NaN","<div style=""width:500px;"">
                            <p style=""font-size:50px; font-weight:bold;""
                            >positive</p>
                            <div style=""width:240px; margin: auto;"">
                                <img src=""images/B_D_S_13_lightshift.png"" style= ""width:200px""alt=""img"">
                            </div>
                        </div>","-48","","0","images/B_D_S_13_lightshift.png","","","","positive","2","B","D","S","lightshift","",""
"","","","","","html-slider-response","156","318847","0.0-150.0","3wlv98mr6y","11","NaN","<div style=""width:500px;"">
                            <p style=""font-size:50px; font-weight:bold;""
                            >positive</p>
                            <div style=""width:240px; margin: auto;"">
                                <img src=""images/Y_L_U_26_darkshift.png"" style= ""width:200px""alt=""img"">
                            </div>
                        </div>","-110","","0","images/Y_L_U_26_darkshift.png","","","","positive","1","Y","L","U","darkshift","",""
"","","","","","html-slider-response","157","321563","0.0-151.0","3wlv98mr6y","11","NaN","<div style=""width:500px;"">
                            <p style=""font-size:50px; font-weight:bold;""
                            >positive</p>
                            <div style=""width:240px; margin: auto;"">
                                <img src=""images/G_L_U_2_lightshift.png"" style= ""width:200px""alt=""img"">
                            </div>
                        </div>","-184","","0","images/G_L_U_2_lightshift.png","","","","positive","1","G","L","U","lightshift","",""
"","","","","","html-slider-response","158","323330","0.0-152.0","3wlv98mr6y","11","NaN","<div style=""width:500px;"">
                            <p style=""font-size:50px; font-weight:bold;""
                            >positive</p>
                            <div style=""width:240px; margin: auto;"">
                                <img src=""images/R_D_U_41_lightshift.png"" style= ""width:200px""alt=""img"">
                            </div>
                        </div>","-93","","0","images/R_D_U_41_lightshift.png","","","","positive","2","R","D","U","lightshift","",""
"","","","","","html-slider-response","159","326044","0.0-153.0","3wlv98mr6y","11","NaN","<div style=""width:500px;"">
                            <p style=""font-size:50px; font-weight:bold;""
                            >positive</p>
                            <div style=""width:240px; margin: auto;"">
                                <img src=""images/R_L_U_33_darkshift.png"" style= ""width:200px""alt=""img"">
                            </div>
                        </div>","114","","0","images/R_L_U_33_darkshift.png","","","","positive","1","R","L","U","darkshift","",""
"","","","","","html-slider-response","160","328394","0.0-154.0","3wlv98mr6y","11","NaN","<div style=""width:500px;"">
                            <p style=""font-size:50px; font-weight:bold;""
                            >positive</p>
                            <div style=""width:240px; margin: auto;"">
                                <img src=""images/Y_D_U_28_lightshift.png"" style= ""width:200px""alt=""img"">
                            </div>
                        </div>","-182","","0","images/Y_D_U_28_lightshift.png","","","","positive","1","Y","D","U","lightshift","",""
"","","","","","html-slider-response","161","330199","0.0-155.0","3wlv98mr6y","11","NaN","<div style=""width:500px;"">
                            <p style=""font-size:50px; font-weight:bold;""
                            >positive</p>
                            <div style=""width:240px; margin: auto;"">
                                <img src=""images/Y_D_S_27_darkshift.png"" style= ""width:200px""alt=""img"">
                            </div>
                        </div>","-195","","0","images/Y_D_S_27_darkshift.png","","","","positive","2","Y","D","S","darkshift","",""
"","","","","","html-slider-response","162","332623","0.0-156.0","3wlv98mr6y","11","NaN","<div style=""width:500px;"">
                            <p style=""font-size:50px; font-weight:bold;""
                            >positive</p>
                            <div style=""width:240px; margin: auto;"">
                                <img src=""images/R_L_S_30_darkshift.png"" style= ""width:200px""alt=""img"">
                            </div>
                        </div>","48","","0","images/R_L_S_30_darkshift.png","","","","positive","1","R","L","S","darkshift","",""
"","","","","","html-slider-response","163","333805","0.0-157.0","3wlv98mr6y","11","NaN","<div style=""width:500px;"">
                            <p style=""font-size:50px; font-weight:bold;""
                            >positive</p>
                            <div style=""width:240px; margin: auto;"">
                                <img src=""images/B_L_S_10_lightshift.png"" style= ""width:200px""alt=""img"">
                            </div>
                        </div>","112","","0","images/B_L_S_10_lightshift.png","","","","positive","2","B","L","S","lightshift","",""
"","","","","","html-slider-response","164","334762","0.0-158.0","3wlv98mr6y","11","NaN","<div style=""width:500px;"">
                            <p style=""font-size:50px; font-weight:bold;""
                            >positive</p>
                            <div style=""width:240px; margin: auto;"">
                                <img src=""images/R_D_S_37_lightshift.png"" style= ""width:200px""alt=""img"">
                            </div>
                        </div>","131","","0","images/R_D_S_37_lightshift.png","","","","positive","2","R","D","S","lightshift","",""
"","","","","","html-slider-response","165","336113","0.0-159.0","3wlv98mr6y","11","NaN","<div style=""width:500px;"">
                            <p style=""font-size:50px; font-weight:bold;""
                            >positive</p>
                            <div style=""width:240px; margin: auto;"">
                                <img src=""images/B_L_S_10_darkshift.png"" style= ""width:200px""alt=""img"">
                            </div>
                        </div>","168","","0","images/B_L_S_10_darkshift.png","","","","positive","2","B","L","S","darkshift","",""
"","","","","","html-slider-response","166","337273","0.0-160.0","3wlv98mr6y","11","NaN","<div style=""width:500px;"">
                            <p style=""font-size:50px; font-weight:bold;""
                            >positive</p>
                            <div style=""width:240px; margin: auto;"">
                                <img src=""images/R_D_S_37_lightshift.png"" style= ""width:200px""alt=""img"">
                            </div>
                        </div>","134","","0","images/R_D_S_37_lightshift.png","","","","positive","1","R","D","S","lightshift","",""
"","","","","","html-slider-response","167","339346","0.0-161.0","3wlv98mr6y","11","NaN","<div style=""width:500px;"">
                            <p style=""font-size:50px; font-weight:bold;""
                            >positive</p>
                            <div style=""width:240px; margin: auto;"">
                                <img src=""images/G_L_S_44_lightshift.png"" style= ""width:200px""alt=""img"">
                            </div>
                        </div>","181","","0","images/G_L_S_44_lightshift.png","","","","positive","1","G","L","S","lightshift","",""
"","","","","","html-slider-response","168","341492","0.0-162.0","3wlv98mr6y","11","NaN","<div style=""width:500px;"">
                            <p style=""font-size:50px; font-weight:bold;""
                            >positive</p>
                            <div style=""width:240px; margin: auto;"">
                                <img src=""images/R_L_S_30_lightshift.png"" style= ""width:200px""alt=""img"">
                            </div>
                        </div>","190","","0","images/R_L_S_30_lightshift.png","","","","positive","1","R","L","S","lightshift","",""
"","","","","","html-slider-response","169","343660","0.0-163.0","3wlv98mr6y","11","NaN","<div style=""width:500px;"">
                            <p style=""font-size:50px; font-weight:bold;""
                            >positive</p>
                            <div style=""width:240px; margin: auto;"">
                                <img src=""images/Y_L_S_23_darkshift.png"" style= ""width:200px""alt=""img"">
                            </div>
                        </div>","-38","","0","images/Y_L_S_23_darkshift.png","","","","positive","2","Y","L","S","darkshift","",""
"","","","","","html-slider-response","170","346014","0.0-164.0","3wlv98mr6y","11","NaN","<div style=""width:500px;"">
                            <p style=""font-size:50px; font-weight:bold;""
                            >positive</p>
                            <div style=""width:240px; margin: auto;"">
                                <img src=""images/G_L_U_2_lightshift.png"" style= ""width:200px""alt=""img"">
                            </div>
                        </div>","61","","0","images/G_L_U_2_lightshift.png","","","","positive","2","G","L","U","lightshift","",""
"","","","","","html-slider-response","171","347383","0.0-165.0","3wlv98mr6y","11","NaN","<div style=""width:500px;"">
                            <p style=""font-size:50px; font-weight:bold;""
                            >positive</p>
                            <div style=""width:240px; margin: auto;"">
                                <img src=""images/G_L_U_2_darkshift.png"" style= ""width:200px""alt=""img"">
                            </div>
                        </div>","90","","0","images/G_L_U_2_darkshift.png","","","","positive","2","G","L","U","darkshift","",""
"","","","","","html-slider-response","172","348481","0.0-166.0","3wlv98mr6y","11","NaN","<div style=""width:500px;"">
                            <p style=""font-size:50px; font-weight:bold;""
                            >positive</p>
                            <div style=""width:240px; margin: auto;"">
                                <img src=""images/R_L_U_33_lightshift.png"" style= ""width:200px""alt=""img"">
                            </div>
                        </div>","92","","0","images/R_L_U_33_lightshift.png","","","","positive","1","R","L","U","lightshift","",""
"","","","","","html-slider-response","173","349533","0.0-167.0","3wlv98mr6y","11","NaN","<div style=""width:500px;"">
