"success","timeout","failed_images","failed_audio","failed_video","trial_type","trial_index","time_elapsed","internal_node_id","subject_id","condition_num","rt","stimulus","response","question_order","slider_start","image_path","practiceTrial","practiceTrialNum","correct","concept","repetition","hue","lightness","saturation","shift","ishihara_plate","correct_response"
"true","false","[]","[]","[]","preload","0","538","0.0-0.0","405g4ks0w4","4","","","","","","","","","","","","","","","","",""
"","","","","","html-button-response","1","4549","0.0-1.0","405g4ks0w4","4","4010","Welcome to our experiment!<p>At the bottom of this screen, you will see a button that says ""Begin Experiment"".<br>Please only click that button when you are ready to complete the 25 minute experiment in one sitting.</p><p> Once you click that button, it will not be possible to restart the experiment.","0","","","","","","","","","","","","","",""
"true","","","","","fullscreen","2","7133","0.0-2.0","405g4ks0w4","4","1582","","","","","","","","","","","","","","","",""
"","","","","","survey-multi-select","3","29989","0.0-3.0","405g4ks0w4","4","22851","","{""Consent"":[""<strong>I consent</strong>""]}","[0]","","","","","","","","","","","","",""
"","","","","","html-button-response","4","31259","0.0-4.0","405g4ks0w4","4","1268","Welcome! <p> This experiment involves two parts: demographic information, followed by the experimental task.<p> It will take about 25 minutes to complete both parts.","0","","","","","","","","","","","","","",""
"","","","","","survey-text","5","41601","0.0-5.0","405g4ks0w4","4","10333","","{""Age"":""18"",""Gender"":""Male"",""Race/ethnicity"":""White"",""Languages"":""English""}","","","","","","","","","","","","","",""
"","","","","","html-slider-response","6","79738","0.0-6.0","405g4ks0w4","4","38135","
                            <div style='text-align:left; font-size:20px; line-height:25px; width: 1400px;'>
                                During this experiment you will be asked to rate how much you associate maps with                    different concepts.<br> Below, you can see some examples of the maps you will be asked to rate. Next to the maps
                    is the list of concepts.<br>You will be asked                    to rate how much you associate each map with each concept on a scale from 'not at all' to 'very much' like the
                    one below. <br><br>
                    Now, please look at the list of concepts and maps. For each concept, think about the map you associate 'very
                    much' with the concept.<br>                     When you see that map during the experiment, please rate it near the 'very much' endpoint of the
                    scale.<br>Now, please think about which map you associate 'not at all'                     with each concept. When you see that map during the experiment, please rate it near the 'not at all' endpoint
                    of the scale.<br>
                    Please use the full range of the scale. That is, if a map is somewhat associated with the concept, you would
                    click partway between the middle point and right side of the scale.                    You will be asked to rate each map for a given concept before moving on to the next concept.<br><br>Press the
                    'Continue' button for instructions on how to use the slider.                    <br><br>
                </div>

                <div style=""width: 500px; margin: 0 auto;"">
                    <!-- Centered text paragraphs -->
                    <div style=""text-align: center; width: 500px;"">
                        <p style=""font-size:25px; line-height:18px;"">calm</p>
                        <p style=""font-size:25px; line-height:18px;"">positive</p>
                        <p style=""font-size:25px;line-height:18px;"">negative</p>
                        <p style=""font-size:25px;line-height:18px;"">startling</p>
                    </div>

                    <!-- Grid section -->
                   <div style=""display: flex; justify-content: center; padding-top: 15px;"">
                    <div style=""display: grid; grid-template-columns: repeat(8, 80px); grid-gap: 5px; width: auto;"">
                        <img src=""images/Y_L_U_5_lightshift.png"" alt=""map"" style=""width: 100%;""><img src=""images/G_L_U_27_lightshift.png"" alt=""map"" style=""width: 100%;""><img src=""images/Y_D_S_7_lightshift.png"" alt=""map"" style=""width: 100%;""><img src=""images/R_L_S_12_lightshift.png"" alt=""map"" style=""width: 100%;""><img src=""images/B_L_S_33_darkshift.png"" alt=""map"" style=""width: 100%;""><img src=""images/G_D_U_30_lightshift.png"" alt=""map"" style=""width: 100%;""><img src=""images/B_L_S_33_lightshift.png"" alt=""map"" style=""width: 100%;""><img src=""images/B_D_U_44_lightshift.png"" alt=""map"" style=""width: 100%;""><img src=""images/B_D_U_44_darkshift.png"" alt=""map"" style=""width: 100%;""><img src=""images/Y_D_U_10_lightshift.png"" alt=""map"" style=""width: 100%;""><img src=""images/Y_L_U_5_darkshift.png"" alt=""map"" style=""width: 100%;""><img src=""images/B_L_U_37_darkshift.png"" alt=""map"" style=""width: 100%;""><img src=""images/Y_D_S_7_darkshift.png"" alt=""map"" style=""width: 100%;""><img src=""images/Y_L_S_2_lightshift.png"" alt=""map"" style=""width: 100%;""><img src=""images/G_L_S_26_darkshift.png"" alt=""map"" style=""width: 100%;""><img src=""images/R_L_U_13_darkshift.png"" alt=""map"" style=""width: 100%;""><img src=""images/R_D_U_23_lightshift.png"" alt=""map"" style=""width: 100%;""><img src=""images/Y_L_S_2_darkshift.png"" alt=""map"" style=""width: 100%;""><img src=""images/R_D_S_15_darkshift.png"" alt=""map"" style=""width: 100%;""><img src=""images/G_L_U_27_darkshift.png"" alt=""map"" style=""width: 100%;""><img src=""images/G_D_S_28_darkshift.png"" alt=""map"" style=""width: 100%;""><img src=""images/R_D_S_15_lightshift.png"" alt=""map"" style=""width: 100%;""><img src=""images/R_L_U_13_lightshift.png"" alt=""map"" style=""width: 100%;""><img src=""images/B_D_S_41_lightshift.png"" alt=""map"" style=""width: 100%;""><img src=""images/R_D_U_23_darkshift.png"" alt=""map"" style=""width: 100%;""><img src=""images/B_L_U_37_lightshift.png"" alt=""map"" style=""width: 100%;""><img src=""images/G_D_U_30_darkshift.png"" alt=""map"" style=""width: 100%;""><img src=""images/Y_D_U_10_darkshift.png"" alt=""map"" style=""width: 100%;""><img src=""images/G_D_S_28_lightshift.png"" alt=""map"" style=""width: 100%;""><img src=""images/G_L_S_26_lightshift.png"" alt=""map"" style=""width: 100%;""><img src=""images/B_D_S_41_darkshift.png"" alt=""map"" style=""width: 100%;""><img src=""images/R_L_S_12_darkshift.png"" alt=""map"" style=""width: 100%;"">
                    </div>
                </div>

                    <!-- Clear floats -->
                    <div style=""clear: both;""></div>
                </div>
                            ","68","","0","maps_anchoring.png","true","","","","","","","","","",""
"","","","","","html-button-response","7","81274","0.0-7.0","405g4ks0w4","4","1534","<div style=""width:800px;""><p style=""text-align:left"">To move the slider, click and drag your cursor to the location of the scale where you would like to make your rating and then let go. When you let go of the slider, your response will be recorded and the next trial will begin. <br>
                    We are interested in your initial impressions of each map for the given concept, so please go with your first intuition. <br>
                    Before you begin the experiment, there will be four training trials for you to practice using the scale. <br>
                     When you are ready to start the training trials, please click ""Continue"".</p><br></div>","0","","","","","","","","","","","","","",""
"","","","","","html-slider-response","8","85709","0.0-8.0-0.0","405g4ks0w4","4","NaN","<div style=""width:500px;"">
                                    <p style=""font-size:25px;"">Please move the slider all the way to the <br> right endpoint of the scale</p>

                                    </div>
                                </div>","200","","0","","true","0","true","","","","","","","",""
"","","","","","html-button-response","9","87236","0.0-8.0-1.0","405g4ks0w4","4","1023","<p align='center'><b>Good job!</b> Click on 'Continue' to proceed.</p>","0","","","","","","","","","","","","","",""
"","","","","","html-slider-response","10","88952","0.0-9.0-0.0","405g4ks0w4","4","NaN","<div style=""width:500px;"">
                                    <p style=""font-size:25px;"">Please move the slider all the way to the <br> left endpoint of the scale</p>

                                    </div>
                                </div>","-200","","0","","true","1","true","","","","","","","",""
"","","","","","html-button-response","11","90333","0.0-9.0-1.0","405g4ks0w4","4","878","<p align='center'><b>Good job!</b> Click on 'Continue' to proceed.</p>","0","","","","","","","","","","","","","",""
"","","","","","html-slider-response","12","97689","0.0-10.0-0.0","405g4ks0w4","4","NaN","<div style=""width:500px;"">
                                    <p style=""font-size:25px;"">Please move the slider halfway between the center and right endpoint of the scale</p>

                                    </div>
                                </div>","108","","0","","true","2","true","","","","","","","",""
"","","","","","html-button-response","13","98973","0.0-10.0-1.0","405g4ks0w4","4","782","<p align='center'><b>Good job!</b> Click on 'Continue' to proceed.</p>","0","","","","","","","","","","","","","",""
"","","","","","html-slider-response","14","101485","0.0-11.0-0.0","405g4ks0w4","4","NaN","<div style=""width:500px;"">
                                    <p style=""font-size:25px;"">Please move the slider halfway between the center and left endpoint of the scale</p>

                                    </div>
                                </div>","-100","","0","","true","3","true","","","","","","","",""
"","","","","","html-button-response","15","103142","0.0-11.0-1.0","405g4ks0w4","4","1154","<p align='center'><b>Good job!</b> Click on 'Continue' to proceed.</p>","0","","","","","","","","","","","","","",""
"","","","","","html-button-response","16","103895","0.0-12.0","405g4ks0w4","4","751","<p>Great job! You've completed the practice trials. Now you will begin the main task.</p>","0","","","","","","","","","","","","","",""
"","","","","","html-button-response","17","105760","0.0-13.0","405g4ks0w4","4","1863","<p>In this block of trials, you will be asked to rate how much you associate each map with:</p > <p style = 'font-size:150%; font-weight: bold'>calm</p><br></br>","0","","","","","","","","","","","","","",""
"","","","","","html-slider-response","18","113602","0.0-14.0","405g4ks0w4","4","NaN","<div style=""width:500px;"">
                            <p style=""font-size:50px; font-weight:bold;""
                            >calm</p>
                            <div style=""width:240px; margin: auto;"">
                                <img src=""images/R_D_U_23_lightshift.png"" style= ""width:200px""alt=""img"">
                            </div>
                        </div>","-138","","0","images/R_D_U_23_lightshift.png","","","","calm","2","R","D","U","lightshift","",""
"","","","","","html-slider-response","19","116421","0.0-15.0","405g4ks0w4","4","NaN","<div style=""width:500px;"">
                            <p style=""font-size:50px; font-weight:bold;""
                            >calm</p>
                            <div style=""width:240px; margin: auto;"">
                                <img src=""images/R_L_U_13_lightshift.png"" style= ""width:200px""alt=""img"">
                            </div>
                        </div>","-66","","0","images/R_L_U_13_lightshift.png","","","","calm","2","R","L","U","lightshift","",""
"","","","","","html-slider-response","20","119254","0.0-16.0","405g4ks0w4","4","NaN","<div style=""width:500px;"">
                            <p style=""font-size:50px; font-weight:bold;""
                            >calm</p>
                            <div style=""width:240px; margin: auto;"">
                                <img src=""images/R_L_U_13_darkshift.png"" style= ""width:200px""alt=""img"">
                            </div>
                        </div>","7","","0","images/R_L_U_13_darkshift.png","","","","calm","2","R","L","U","darkshift","",""
"","","","","","html-slider-response","21","121460","0.0-17.0","405g4ks0w4","4","NaN","<div style=""width:500px;"">
                            <p style=""font-size:50px; font-weight:bold;""
                            >calm</p>
                            <div style=""width:240px; margin: auto;"">
                                <img src=""images/R_D_S_15_lightshift.png"" style= ""width:200px""alt=""img"">
                            </div>
                        </div>","55","","0","images/R_D_S_15_lightshift.png","","","","calm","1","R","D","S","lightshift","",""
"","","","","","html-slider-response","22","123669","0.0-18.0","405g4ks0w4","4","NaN","<div style=""width:500px;"">
                            <p style=""font-size:50px; font-weight:bold;""
                            >calm</p>
                            <div style=""width:240px; margin: auto;"">
                                <img src=""images/Y_D_U_10_darkshift.png"" style= ""width:200px""alt=""img"">
                            </div>
                        </div>","-191","","0","images/Y_D_U_10_darkshift.png","","","","calm","1","Y","D","U","darkshift","",""
"","","","","","html-slider-response","23","126120","0.0-19.0","405g4ks0w4","4","NaN","<div style=""width:500px;"">
                            <p style=""font-size:50px; font-weight:bold;""
                            >calm</p>
                            <div style=""width:240px; margin: auto;"">
                                <img src=""images/G_L_S_26_darkshift.png"" style= ""width:200px""alt=""img"">
                            </div>
                        </div>","164","","0","images/G_L_S_26_darkshift.png","","","","calm","2","G","L","S","darkshift","",""
"","","","","","html-slider-response","24","128999","0.0-20.0","405g4ks0w4","4","NaN","<div style=""width:500px;"">
                            <p style=""font-size:50px; font-weight:bold;""
                            >calm</p>
                            <div style=""width:240px; margin: auto;"">
                                <img src=""images/G_D_U_30_lightshift.png"" style= ""width:200px""alt=""img"">
                            </div>
                        </div>","78","","0","images/G_D_U_30_lightshift.png","","","","calm","2","G","D","U","lightshift","",""
"","","","","","html-slider-response","25","131045","0.0-21.0","405g4ks0w4","4","NaN","<div style=""width:500px;"">
                            <p style=""font-size:50px; font-weight:bold;""
                            >calm</p>
                            <div style=""width:240px; margin: auto;"">
                                <img src=""images/R_L_U_13_darkshift.png"" style= ""width:200px""alt=""img"">
                            </div>
                        </div>","-32","","0","images/R_L_U_13_darkshift.png","","","","calm","1","R","L","U","darkshift","",""
"","","","","","html-slider-response","26","135340","0.0-22.0","405g4ks0w4","4","NaN","<div style=""width:500px;"">
                            <p style=""font-size:50px; font-weight:bold;""
                            >calm</p>
                            <div style=""width:240px; margin: auto;"">
                                <img src=""images/G_L_U_27_darkshift.png"" style= ""width:200px""alt=""img"">
                            </div>
                        </div>","-21","","0","images/G_L_U_27_darkshift.png","","","","calm","2","G","L","U","darkshift","",""
"","","","","","html-slider-response","27","138001","0.0-23.0","405g4ks0w4","4","NaN","<div style=""width:500px;"">
                            <p style=""font-size:50px; font-weight:bold;""
                            >calm</p>
                            <div style=""width:240px; margin: auto;"">
                                <img src=""images/G_L_S_26_lightshift.png"" style= ""width:200px""alt=""img"">
                            </div>
                        </div>","159","","0","images/G_L_S_26_lightshift.png","","","","calm","1","G","L","S","lightshift","",""
"","","","","","html-slider-response","28","140207","0.0-24.0","405g4ks0w4","4","NaN","<div style=""width:500px;"">
                            <p style=""font-size:50px; font-weight:bold;""
                            >calm</p>
                            <div style=""width:240px; margin: auto;"">
                                <img src=""images/G_L_U_27_lightshift.png"" style= ""width:200px""alt=""img"">
                            </div>
                        </div>","200","","0","images/G_L_U_27_lightshift.png","","","","calm","2","G","L","U","lightshift","",""
"","","","","","html-slider-response","29","143185","0.0-25.0","405g4ks0w4","4","NaN","<div style=""width:500px;"">
                            <p style=""font-size:50px; font-weight:bold;""
                            >calm</p>
                            <div style=""width:240px; margin: auto;"">
                                <img src=""images/B_D_S_41_darkshift.png"" style= ""width:200px""alt=""img"">
                            </div>
                        </div>","-60","","0","images/B_D_S_41_darkshift.png","","","","calm","1","B","D","S","darkshift","",""
"","","","","","html-slider-response","30","146879","0.0-26.0","405g4ks0w4","4","NaN","<div style=""width:500px;"">
                            <p style=""font-size:50px; font-weight:bold;""
                            >calm</p>
                            <div style=""width:240px; margin: auto;"">
                                <img src=""images/Y_L_S_2_lightshift.png"" style= ""width:200px""alt=""img"">
                            </div>
                        </div>","29","","0","images/Y_L_S_2_lightshift.png","","","","calm","2","Y","L","S","lightshift","",""
"","","","","","html-slider-response","31","148959","0.0-27.0","405g4ks0w4","4","NaN","<div style=""width:500px;"">
                            <p style=""font-size:50px; font-weight:bold;""
                            >calm</p>
                            <div style=""width:240px; margin: auto;"">
                                <img src=""images/Y_D_U_10_lightshift.png"" style= ""width:200px""alt=""img"">
                            </div>
                        </div>","-187","","0","images/Y_D_U_10_lightshift.png","","","","calm","2","Y","D","U","lightshift","",""
"","","","","","html-slider-response","32","151475","0.0-28.0","405g4ks0w4","4","NaN","<div style=""width:500px;"">
                            <p style=""font-size:50px; font-weight:bold;""
                            >calm</p>
                            <div style=""width:240px; margin: auto;"">
                                <img src=""images/G_D_S_28_lightshift.png"" style= ""width:200px""alt=""img"">
                            </div>
                        </div>","155","","0","images/G_D_S_28_lightshift.png","","","","calm","2","G","D","S","lightshift","",""
"","","","","","html-slider-response","33","158789","0.0-29.0","405g4ks0w4","4","NaN","<div style=""width:500px;"">
                            <p style=""font-size:50px; font-weight:bold;""
                            >calm</p>
                            <div style=""width:240px; margin: auto;"">
                                <img src=""images/R_D_S_15_darkshift.png"" style= ""width:200px""alt=""img"">
                            </div>
                        </div>","-146","","0","images/R_D_S_15_darkshift.png","","","","calm","1","R","D","S","darkshift","",""
"","","","","","html-slider-response","34","164172","0.0-30.0","405g4ks0w4","4","NaN","<div style=""width:500px;"">
                            <p style=""font-size:50px; font-weight:bold;""
                            >calm</p>
                            <div style=""width:240px; margin: auto;"">
                                <img src=""images/R_D_U_23_darkshift.png"" style= ""width:200px""alt=""img"">
                            </div>
                        </div>","-38","","0","images/R_D_U_23_darkshift.png","","","","calm","1","R","D","U","darkshift","",""
"","","","","","html-slider-response","35","167713","0.0-31.0","405g4ks0w4","4","NaN","<div style=""width:500px;"">
                            <p style=""font-size:50px; font-weight:bold;""
                            >calm</p>
                            <div style=""width:240px; margin: auto;"">
                                <img src=""images/R_D_U_23_lightshift.png"" style= ""width:200px""alt=""img"">
                            </div>
                        </div>","-51","","0","images/R_D_U_23_lightshift.png","","","","calm","1","R","D","U","lightshift","",""
"","","","","","html-slider-response","36","171294","0.0-32.0","405g4ks0w4","4","NaN","<div style=""width:500px;"">
                            <p style=""font-size:50px; font-weight:bold;""
                            >calm</p>
                            <div style=""width:240px; margin: auto;"">
                                <img src=""images/G_D_S_28_darkshift.png"" style= ""width:200px""alt=""img"">
                            </div>
                        </div>","-38","","0","images/G_D_S_28_darkshift.png","","","","calm","1","G","D","S","darkshift","",""
"","","","","","html-slider-response","37","173263","0.0-33.0","405g4ks0w4","4","NaN","<div style=""width:500px;"">
                            <p style=""font-size:50px; font-weight:bold;""
                            >calm</p>
                            <div style=""width:240px; margin: auto;"">
                                <img src=""images/Y_D_S_7_darkshift.png"" style= ""width:200px""alt=""img"">
                            </div>
                        </div>","-164","","0","images/Y_D_S_7_darkshift.png","","","","calm","2","Y","D","S","darkshift","",""
"","","","","","html-slider-response","38","185011","0.0-34.0","405g4ks0w4","4","NaN","<div style=""width:500px;"">
                            <p style=""font-size:50px; font-weight:bold;""
                            >calm</p>
                            <div style=""width:240px; margin: auto;"">
                                <img src=""images/G_D_U_30_darkshift.png"" style= ""width:200px""alt=""img"">
                            </div>
                        </div>","34","","0","images/G_D_U_30_darkshift.png","","","","calm","2","G","D","U","darkshift","",""
"","","","","","html-slider-response","39","187474","0.0-35.0","405g4ks0w4","4","NaN","<div style=""width:500px;"">
                            <p style=""font-size:50px; font-weight:bold;""
                            >calm</p>
                            <div style=""width:240px; margin: auto;"">
                                <img src=""images/B_D_U_44_lightshift.png"" style= ""width:200px""alt=""img"">
                            </div>
                        </div>","144","","0","images/B_D_U_44_lightshift.png","","","","calm","2","B","D","U","lightshift","",""
"","","","","","html-slider-response","40","189411","0.0-36.0","405g4ks0w4","4","NaN","<div style=""width:500px;"">
                            <p style=""font-size:50px; font-weight:bold;""
                            >calm</p>
                            <div style=""width:240px; margin: auto;"">
                                <img src=""images/B_L_S_33_lightshift.png"" style= ""width:200px""alt=""img"">
                            </div>
                        </div>","200","","0","images/B_L_S_33_lightshift.png","","","","calm","2","B","L","S","lightshift","",""
"","","","","","html-slider-response","41","194437","0.0-37.0","405g4ks0w4","4","NaN","<div style=""width:500px;"">
                            <p style=""font-size:50px; font-weight:bold;""
                            >calm</p>
                            <div style=""width:240px; margin: auto;"">
                                <img src=""images/Y_L_S_2_darkshift.png"" style= ""width:200px""alt=""img"">
                            </div>
                        </div>","-30","","0","images/Y_L_S_2_darkshift.png","","","","calm","1","Y","L","S","darkshift","",""
"","","","","","html-slider-response","42","196946","0.0-38.0","405g4ks0w4","4","NaN","<div style=""width:500px;"">
                            <p style=""font-size:50px; font-weight:bold;""
                            >calm</p>
                            <div style=""width:240px; margin: auto;"">
                                <img src=""images/B_L_S_33_lightshift.png"" style= ""width:200px""alt=""img"">
                            </div>
                        </div>","161","","0","images/B_L_S_33_lightshift.png","","","","calm","1","B","L","S","lightshift","",""
"","","","","","html-slider-response","43","202309","0.0-39.0","405g4ks0w4","4","NaN","<div style=""width:500px;"">
                            <p style=""font-size:50px; font-weight:bold;""
                            >calm</p>
                            <div style=""width:240px; margin: auto;"">
                                <img src=""images/Y_D_U_10_darkshift.png"" style= ""width:200px""alt=""img"">
                            </div>
                        </div>","-200","","0","images/Y_D_U_10_darkshift.png","","","","calm","2","Y","D","U","darkshift","",""
"","","","","","html-slider-response","44","205560","0.0-40.0","405g4ks0w4","4","NaN","<div style=""width:500px;"">
                            <p style=""font-size:50px; font-weight:bold;""
                            >calm</p>
                            <div style=""width:240px; margin: auto;"">
                                <img src=""images/G_D_U_30_lightshift.png"" style= ""width:200px""alt=""img"">
                            </div>
                        </div>","66","","0","images/G_D_U_30_lightshift.png","","","","calm","1","G","D","U","lightshift","",""
"","","","","","html-slider-response","45","207397","0.0-41.0","405g4ks0w4","4","NaN","<div style=""width:500px;"">
                            <p style=""font-size:50px; font-weight:bold;""
                            >calm</p>
                            <div style=""width:240px; margin: auto;"">
                                <img src=""images/Y_L_U_5_darkshift.png"" style= ""width:200px""alt=""img"">
                            </div>
                        </div>","-50","","0","images/Y_L_U_5_darkshift.png","","","","calm","1","Y","L","U","darkshift","",""
"","","","","","html-slider-response","46","209580","0.0-42.0","405g4ks0w4","4","NaN","<div style=""width:500px;"">
                            <p style=""font-size:50px; font-weight:bold;""
                            >calm</p>
                            <div style=""width:240px; margin: auto;"">
                                <img src=""images/B_L_U_37_lightshift.png"" style= ""width:200px""alt=""img"">
                            </div>
                        </div>","170","","0","images/B_L_U_37_lightshift.png","","","","calm","1","B","L","U","lightshift","",""
"","","","","","html-slider-response","47","211716","0.0-43.0","405g4ks0w4","4","NaN","<div style=""width:500px;"">
                            <p style=""font-size:50px; font-weight:bold;""
                            >calm</p>
                            <div style=""width:240px; margin: auto;"">
                                <img src=""images/Y_D_S_7_lightshift.png"" style= ""width:200px""alt=""img"">
                            </div>
                        </div>","-137","","0","images/Y_D_S_7_lightshift.png","","","","calm","2","Y","D","S","lightshift","",""
"","","","","","html-slider-response","48","213976","0.0-44.0","405g4ks0w4","4","NaN","<div style=""width:500px;"">
                            <p style=""font-size:50px; font-weight:bold;""
                            >calm</p>
                            <div style=""width:240px; margin: auto;"">
                                <img src=""images/R_D_S_15_lightshift.png"" style= ""width:200px""alt=""img"">
                            </div>
                        </div>","147","","0","images/R_D_S_15_lightshift.png","","","","calm","2","R","D","S","lightshift","",""
"","","","","","html-slider-response","49","218496","0.0-45.0","405g4ks0w4","4","NaN","<div style=""width:500px;"">
                            <p style=""font-size:50px; font-weight:bold;""
                            >calm</p>
                            <div style=""width:240px; margin: auto;"">
                                <img src=""images/Y_D_S_7_lightshift.png"" style= ""width:200px""alt=""img"">
                            </div>
                        </div>","-43","","0","images/Y_D_S_7_lightshift.png","","","","calm","1","Y","D","S","lightshift","",""
"","","","","","html-slider-response","50","219974","0.0-46.0","405g4ks0w4","4","NaN","<div style=""width:500px;"">
                            <p style=""font-size:50px; font-weight:bold;""
                            >calm</p>
                            <div style=""width:240px; margin: auto;"">
                                <img src=""images/G_L_U_27_darkshift.png"" style= ""width:200px""alt=""img"">
                            </div>
                        </div>","87","","0","images/G_L_U_27_darkshift.png","","","","calm","1","G","L","U","darkshift","",""
"","","","","","html-slider-response","51","221677","0.0-47.0","405g4ks0w4","4","NaN","<div style=""width:500px;"">
                            <p style=""font-size:50px; font-weight:bold;""
                            >calm</p>
                            <div style=""width:240px; margin: auto;"">
                                <img src=""images/B_L_U_37_darkshift.png"" style= ""width:200px""alt=""img"">
                            </div>
                        </div>","150","","0","images/B_L_U_37_darkshift.png","","","","calm","1","B","L","U","darkshift","",""
"","","","","","html-slider-response","52","223452","0.0-48.0","405g4ks0w4","4","NaN","<div style=""width:500px;"">
                            <p style=""font-size:50px; font-weight:bold;""
                            >calm</p>
                            <div style=""width:240px; margin: auto;"">
                                <img src=""images/Y_D_S_7_darkshift.png"" style= ""width:200px""alt=""img"">
                            </div>
                        </div>","-141","","0","images/Y_D_S_7_darkshift.png","","","","calm","1","Y","D","S","darkshift","",""
"","","","","","html-slider-response","53","225673","0.0-49.0","405g4ks0w4","4","NaN","<div style=""width:500px;"">
                            <p style=""font-size:50px; font-weight:bold;""
                            >calm</p>
                            <div style=""width:240px; margin: auto;"">
                                <img src=""images/Y_L_S_2_darkshift.png"" style= ""width:200px""alt=""img"">
                            </div>
                        </div>","-40","","0","images/Y_L_S_2_darkshift.png","","","","calm","2","Y","L","S","darkshift","",""
"","","","","","html-slider-response","54","227745","0.0-50.0","405g4ks0w4","4","NaN","<div style=""width:500px;"">
                            <p style=""font-size:50px; font-weight:bold;""
                            >calm</p>
                            <div style=""width:240px; margin: auto;"">
                                <img src=""images/B_D_U_44_darkshift.png"" style= ""width:200px""alt=""img"">
                            </div>
                        </div>","41","","0","images/B_D_U_44_darkshift.png","","","","calm","1","B","D","U","darkshift","",""
"","","","","","html-slider-response","55","229722","0.0-51.0","405g4ks0w4","4","NaN","<div style=""width:500px;"">
                            <p style=""font-size:50px; font-weight:bold;""
                            >calm</p>
                            <div style=""width:240px; margin: auto;"">
                                <img src=""images/G_L_U_27_lightshift.png"" style= ""width:200px""alt=""img"">
                            </div>
                        </div>","161","","0","images/G_L_U_27_lightshift.png","","","","calm","1","G","L","U","lightshift","",""
"","","","","","html-slider-response","56","231702","0.0-52.0","405g4ks0w4","4","NaN","<div style=""width:500px;"">
                            <p style=""font-size:50px; font-weight:bold;""
                            >calm</p>
                            <div style=""width:240px; margin: auto;"">
                                <img src=""images/B_D_U_44_darkshift.png"" style= ""width:200px""alt=""img"">
                            </div>
                        </div>","-40","","0","images/B_D_U_44_darkshift.png","","","","calm","2","B","D","U","darkshift","",""
"","","","","","html-slider-response","57","233513","0.0-53.0","405g4ks0w4","4","NaN","<div style=""width:500px;"">
                            <p style=""font-size:50px; font-weight:bold;""
                            >calm</p>
                            <div style=""width:240px; margin: auto;"">
                                <img src=""images/B_L_U_37_lightshift.png"" style= ""width:200px""alt=""img"">
                            </div>
                        </div>","188","","0","images/B_L_U_37_lightshift.png","","","","calm","2","B","L","U","lightshift","",""
"","","","","","html-slider-response","58","235588","0.0-54.0","405g4ks0w4","4","NaN","<div style=""width:500px;"">
                            <p style=""font-size:50px; font-weight:bold;""
                            >calm</p>
                            <div style=""width:240px; margin: auto;"">
                                <img src=""images/B_D_S_41_lightshift.png"" style= ""width:200px""alt=""img"">
                            </div>
                        </div>","200","","0","images/B_D_S_41_lightshift.png","","","","calm","1","B","D","S","lightshift","",""
"","","","","","html-slider-response","59","237552","0.0-55.0","405g4ks0w4","4","NaN","<div style=""width:500px;"">
                            <p style=""font-size:50px; font-weight:bold;""
                            >calm</p>
                            <div style=""width:240px; margin: auto;"">
                                <img src=""images/B_D_U_44_lightshift.png"" style= ""width:200px""alt=""img"">
                            </div>
                        </div>","49","","0","images/B_D_U_44_lightshift.png","","","","calm","1","B","D","U","lightshift","",""
"","","","","","html-slider-response","60","241386","0.0-56.0","405g4ks0w4","4","NaN","<div style=""width:500px;"">
                            <p style=""font-size:50px; font-weight:bold;""
                            >calm</p>
                            <div style=""width:240px; margin: auto;"">
                                <img src=""images/R_L_S_12_darkshift.png"" style= ""width:200px""alt=""img"">
                            </div>
                        </div>","-31","","0","images/R_L_S_12_darkshift.png","","","","calm","1","R","L","S","darkshift","",""
"","","","","","html-slider-response","61","243709","0.0-57.0","405g4ks0w4","4","NaN","<div style=""width:500px;"">
                            <p style=""font-size:50px; font-weight:bold;""
                            >calm</p>
                            <div style=""width:240px; margin: auto;"">
                                <img src=""images/Y_L_U_5_lightshift.png"" style= ""width:200px""alt=""img"">
                            </div>
                        </div>","-34","","0","images/Y_L_U_5_lightshift.png","","","","calm","2","Y","L","U","lightshift","",""
"","","","","","html-slider-response","62","245427","0.0-58.0","405g4ks0w4","4","NaN","<div style=""width:500px;"">
                            <p style=""font-size:50px; font-weight:bold;""
                            >calm</p>
                            <div style=""width:240px; margin: auto;"">
                                <img src=""images/B_L_S_33_darkshift.png"" style= ""width:200px""alt=""img"">
                            </div>
                        </div>","158","","0","images/B_L_S_33_darkshift.png","","","","calm","2","B","L","S","darkshift","",""
"","","","","","html-slider-response","63","247178","0.0-59.0","405g4ks0w4","4","NaN","<div style=""width:500px;"">
                            <p style=""font-size:50px; font-weight:bold;""
                            >calm</p>
                            <div style=""width:240px; margin: auto;"">
                                <img src=""images/B_L_S_33_darkshift.png"" style= ""width:200px""alt=""img"">
                            </div>
                        </div>","61","","0","images/B_L_S_33_darkshift.png","","","","calm","1","B","L","S","darkshift","",""
"","","","","","html-slider-response","64","248760","0.0-60.0","405g4ks0w4","4","NaN","<div style=""width:500px;"">
                            <p style=""font-size:50px; font-weight:bold;""
                            >calm</p>
                            <div style=""width:240px; margin: auto;"">
                                <img src=""images/B_L_U_37_darkshift.png"" style= ""width:200px""alt=""img"">
                            </div>
                        </div>","69","","0","images/B_L_U_37_darkshift.png","","","","calm","2","B","L","U","darkshift","",""
"","","","","","html-slider-response","65","250673","0.0-61.0","405g4ks0w4","4","NaN","<div style=""width:500px;"">
                            <p style=""font-size:50px; font-weight:bold;""
                            >calm</p>
                            <div style=""width:240px; margin: auto;"">
                                <img src=""images/G_D_S_28_darkshift.png"" style= ""width:200px""alt=""img"">
                            </div>
                        </div>","-49","","0","images/G_D_S_28_darkshift.png","","","","calm","2","G","D","S","darkshift","",""
"","","","","","html-slider-response","66","252379","0.0-62.0","405g4ks0w4","4","NaN","<div style=""width:500px;"">
                            <p style=""font-size:50px; font-weight:bold;""
                            >calm</p>
                            <div style=""width:240px; margin: auto;"">
                                <img src=""images/Y_L_U_5_lightshift.png"" style= ""width:200px""alt=""img"">
                            </div>
                        </div>","-26","","0","images/Y_L_U_5_lightshift.png","","","","calm","1","Y","L","U","lightshift","",""
"","","","","","html-slider-response","67","253977","0.0-63.0","405g4ks0w4","4","NaN","<div style=""width:500px;"">
                            <p style=""font-size:50px; font-weight:bold;""
                            >calm</p>
                            <div style=""width:240px; margin: auto;"">
                                <img src=""images/Y_L_U_5_darkshift.png"" style= ""width:200px""alt=""img"">
                            </div>
                        </div>","-100","","0","images/Y_L_U_5_darkshift.png","","","","calm","2","Y","L","U","darkshift","",""
"","","","","","html-slider-response","68","255714","0.0-64.0","405g4ks0w4","4","NaN","<div style=""width:500px;"">
                            <p style=""font-size:50px; font-weight:bold;""
                            >calm</p>
                            <div style=""width:240px; margin: auto;"">
                                <img src=""images/R_L_S_12_lightshift.png"" style= ""width:200px""alt=""img"">
                            </div>
                        </div>","105","","0","images/R_L_S_12_lightshift.png","","","","calm","1","R","L","S","lightshift","",""
"","","","","","html-slider-response","69","257469","0.0-65.0","405g4ks0w4","4","NaN","<div style=""width:500px;"">
                            <p style=""font-size:50px; font-weight:bold;""
                            >calm</p>
                            <div style=""width:240px; margin: auto;"">
                                <img src=""images/G_L_S_26_lightshift.png"" style= ""width:200px""alt=""img"">
                            </div>
                        </div>","55","","0","images/G_L_S_26_lightshift.png","","","","calm","2","G","L","S","lightshift","",""
"","","","","","html-slider-response","70","259722","0.0-66.0","405g4ks0w4","4","NaN","<div style=""width:500px;"">
                            <p style=""font-size:50px; font-weight:bold;""
                            >calm</p>
                            <div style=""width:240px; margin: auto;"">
                                <img src=""images/G_L_S_26_darkshift.png"" style= ""width:200px""alt=""img"">
                            </div>
                        </div>","-28","","0","images/G_L_S_26_darkshift.png","","","","calm","1","G","L","S","darkshift","",""
"","","","","","html-slider-response","71","261549","0.0-67.0","405g4ks0w4","4","NaN","<div style=""width:500px;"">
                            <p style=""font-size:50px; font-weight:bold;""
                            >calm</p>
                            <div style=""width:240px; margin: auto;"">
                                <img src=""images/G_D_U_30_darkshift.png"" style= ""width:200px""alt=""img"">
                            </div>
                        </div>","-123","","0","images/G_D_U_30_darkshift.png","","","","calm","1","G","D","U","darkshift","",""
"","","","","","html-slider-response","72","263461","0.0-68.0","405g4ks0w4","4","NaN","<div style=""width:500px;"">
                            <p style=""font-size:50px; font-weight:bold;""
                            >calm</p>
                            <div style=""width:240px; margin: auto;"">
                                <img src=""images/G_D_S_28_lightshift.png"" style= ""width:200px""alt=""img"">
                            </div>
                        </div>","-40","","0","images/G_D_S_28_lightshift.png","","","","calm","1","G","D","S","lightshift","",""
"","","","","","html-slider-response","73","265470","0.0-69.0","405g4ks0w4","4","NaN","<div style=""width:500px;"">
                            <p style=""font-size:50px; font-weight:bold;""
                            >calm</p>
                            <div style=""width:240px; margin: auto;"">
                                <img src=""images/R_D_U_23_darkshift.png"" style= ""width:200px""alt=""img"">
                            </div>
                        </div>","-169","","0","images/R_D_U_23_darkshift.png","","","","calm","2","R","D","U","darkshift","",""
"","","","","","html-slider-response","74","267837","0.0-70.0","405g4ks0w4","4","NaN","<div style=""width:500px;"">
                            <p style=""font-size:50px; font-weight:bold;""
                            >calm</p>
                            <div style=""width:240px; margin: auto;"">
                                <img src=""images/R_D_S_15_darkshift.png"" style= ""width:200px""alt=""img"">
                            </div>
                        </div>","-193","","0","images/R_D_S_15_darkshift.png","","","","calm","2","R","D","S","darkshift","",""
"","","","","","html-slider-response","75","269636","0.0-71.0","405g4ks0w4","4","NaN","<div style=""width:500px;"">
                            <p style=""font-size:50px; font-weight:bold;""
                            >calm</p>
                            <div style=""width:240px; margin: auto;"">
                                <img src=""images/B_D_S_41_lightshift.png"" style= ""width:200px""alt=""img"">
                            </div>
                        </div>","67","","0","images/B_D_S_41_lightshift.png","","","","calm","2","B","D","S","lightshift","",""
"","","","","","html-slider-response","76","271472","0.0-72.0","405g4ks0w4","4","NaN","<div style=""width:500px;"">
                            <p style=""font-size:50px; font-weight:bold;""
                            >calm</p>
                            <div style=""width:240px; margin: auto;"">
                                <img src=""images/B_D_S_41_darkshift.png"" style= ""width:200px""alt=""img"">
                            </div>
                        </div>","14","","0","images/B_D_S_41_darkshift.png","","","","calm","2","B","D","S","darkshift","",""
"","","","","","html-slider-response","77","274510","0.0-73.0","405g4ks0w4","4","NaN","<div style=""width:500px;"">
                            <p style=""font-size:50px; font-weight:bold;""
                            >calm</p>
                            <div style=""width:240px; margin: auto;"">
                                <img src=""images/Y_L_S_2_lightshift.png"" style= ""width:200px""alt=""img"">
                            </div>
                        </div>","-35","","0","images/Y_L_S_2_lightshift.png","","","","calm","1","Y","L","S","lightshift","",""
"","","","","","html-slider-response","78","277402","0.0-74.0","405g4ks0w4","4","NaN","<div style=""width:500px;"">
                            <p style=""font-size:50px; font-weight:bold;""
                            >calm</p>
                            <div style=""width:240px; margin: auto;"">
                                <img src=""images/R_L_S_12_darkshift.png"" style= ""width:200px""alt=""img"">
                            </div>
                        </div>","-38","","0","images/R_L_S_12_darkshift.png","","","","calm","2","R","L","S","darkshift","",""
"","","","","","html-slider-response","79","281694","0.0-75.0","405g4ks0w4","4","NaN","<div style=""width:500px;"">
                            <p style=""font-size:50px; font-weight:bold;""
                            >calm</p>
                            <div style=""width:240px; margin: auto;"">
                                <img src=""images/R_L_U_13_lightshift.png"" style= ""width:200px""alt=""img"">
                            </div>
                        </div>","-44","","0","images/R_L_U_13_lightshift.png","","","","calm","1","R","L","U","lightshift","",""
"","","","","","html-slider-response","80","284752","0.0-76.0","405g4ks0w4","4","NaN","<div style=""width:500px;"">
                            <p style=""font-size:50px; font-weight:bold;""
                            >calm</p>
                            <div style=""width:240px; margin: auto;"">
                                <img src=""images/Y_D_U_10_lightshift.png"" style= ""width:200px""alt=""img"">
                            </div>
                        </div>","-18","","0","images/Y_D_U_10_lightshift.png","","","","calm","1","Y","D","U","lightshift","",""
"","","","","","html-slider-response","81","286888","0.0-77.0","405g4ks0w4","4","NaN","<div style=""width:500px;"">
                            <p style=""font-size:50px; font-weight:bold;""
                            >calm</p>
                            <div style=""width:240px; margin: auto;"">
                                <img src=""images/R_L_S_12_lightshift.png"" style= ""width:200px""alt=""img"">
                            </div>
                        </div>","-67","","0","images/R_L_S_12_lightshift.png","","","","calm","2","R","L","S","lightshift","",""
"","","","","","html-button-response","82","289334","0.0-78.0","405g4ks0w4","4","1944","<p>Great Job! You've finished block 1.<br></br> You have 3 block(s) left to go.<br></br></p>","0","","","","","","","","","","","","","",""
"","","","","","html-button-response","83","292009","0.0-79.0","405g4ks0w4","4","2674","<p>In this block of trials, you will be asked to rate how much you associate each map with:</p > <p style = 'font-size:150%; font-weight: bold'>positive</p><br></br>","0","","","","","","","","","","","","","",""
"","","","","","html-slider-response","84","310738","0.0-80.0","405g4ks0w4","4","NaN","<div style=""width:500px;"">
                            <p style=""font-size:50px; font-weight:bold;""
                            >positive</p>
                            <div style=""width:240px; margin: auto;"">
                                <img src=""images/R_D_S_15_lightshift.png"" style= ""width:200px""alt=""img"">
                            </div>
                        </div>","46","","0","images/R_D_S_15_lightshift.png","","","","positive","1","R","D","S","lightshift","",""
"","","","","","html-slider-response","85","312621","0.0-81.0","405g4ks0w4","4","NaN","<div style=""width:500px;"">
                            <p style=""font-size:50px; font-weight:bold;""
                            >positive</p>
                            <div style=""width:240px; margin: auto;"">
                                <img src=""images/R_L_U_13_lightshift.png"" style= ""width:200px""alt=""img"">
                            </div>
                        </div>","20","","0","images/R_L_U_13_lightshift.png","","","","positive","2","R","L","U","lightshift","",""
"","","","","","html-slider-response","86","315351","0.0-82.0","405g4ks0w4","4","NaN","<div style=""width:500px;"">
                            <p style=""font-size:50px; font-weight:bold;""
                            >positive</p>
                            <div style=""width:240px; margin: auto;"">
                                <img src=""images/R_D_S_15_lightshift.png"" style= ""width:200px""alt=""img"">
                            </div>
                        </div>","164","","0","images/R_D_S_15_lightshift.png","","","","positive","2","R","D","S","lightshift","",""
"","","","","","html-slider-response","87","317280","0.0-83.0","405g4ks0w4","4","NaN","<div style=""width:500px;"">
                            <p style=""font-size:50px; font-weight:bold;""
                            >positive</p>
                            <div style=""width:240px; margin: auto;"">
                                <img src=""images/Y_L_S_2_lightshift.png"" style= ""width:200px""alt=""img"">
                            </div>
                        </div>","-93","","0","images/Y_L_S_2_lightshift.png","","","","positive","1","Y","L","S","lightshift","",""
"","","","","","html-slider-response","88","319067","0.0-84.0","405g4ks0w4","4","NaN","<div style=""width:500px;"">
                            <p style=""font-size:50px; font-weight:bold;""
                            >positive</p>
                            <div style=""width:240px; margin: auto;"">
                                <img src=""images/Y_D_U_10_darkshift.png"" style= ""width:200px""alt=""img"">
                            </div>
                        </div>","-200","","0","images/Y_D_U_10_darkshift.png","","","","positive","2","Y","D","U","darkshift","",""
"","","","","","html-slider-response","89","320790","0.0-85.0","405g4ks0w4","4","NaN","<div style=""width:500px;"">
                            <p style=""font-size:50px; font-weight:bold;""
                            >positive</p>
                            <div style=""width:240px; margin: auto;"">
                                <img src=""images/Y_D_S_7_darkshift.png"" style= ""width:200px""alt=""img"">
                            </div>
                        </div>","-200","","0","images/Y_D_S_7_darkshift.png","","","","positive","1","Y","D","S","darkshift","",""
"","","","","","html-slider-response","90","322599","0.0-86.0","405g4ks0w4","4","NaN","<div style=""width:500px;"">
                            <p style=""font-size:50px; font-weight:bold;""
                            >positive</p>
                            <div style=""width:240px; margin: auto;"">
                                <img src=""images/Y_L_U_5_lightshift.png"" style= ""width:200px""alt=""img"">
                            </div>
                        </div>","-74","","0","images/Y_L_U_5_lightshift.png","","","","positive","1","Y","L","U","lightshift","",""
"","","","","","html-slider-response","91","324843","0.0-87.0","405g4ks0w4","4","NaN","<div style=""width:500px;"">
                            <p style=""font-size:50px; font-weight:bold;""
                            >positive</p>
                            <div style=""width:240px; margin: auto;"">
                                <img src=""images/B_L_S_33_darkshift.png"" style= ""width:200px""alt=""img"">
                            </div>
                        </div>","182","","0","images/B_L_S_33_darkshift.png","","","","positive","1","B","L","S","darkshift","",""
"","","","","","html-slider-response","92","327061","0.0-88.0","405g4ks0w4","4","NaN","<div style=""width:500px;"">
                            <p style=""font-size:50px; font-weight:bold;""
                            >positive</p>
                            <div style=""width:240px; margin: auto;"">
                                <img src=""images/G_D_U_30_darkshift.png"" style= ""width:200px""alt=""img"">
                            </div>
                        </div>","-34","","0","images/G_D_U_30_darkshift.png","","","","positive","1","G","D","U","darkshift","",""
"","","","","","html-slider-response","93","328676","0.0-89.0","405g4ks0w4","4","NaN","<div style=""width:500px;"">
                            <p style=""font-size:50px; font-weight:bold;""
                            >positive</p>
                            <div style=""width:240px; margin: auto;"">
                                <img src=""images/Y_L_S_2_lightshift.png"" style= ""width:200px""alt=""img"">
                            </div>
                        </div>","-49","","0","images/Y_L_S_2_lightshift.png","","","","positive","2","Y","L","S","lightshift","",""
"","","","","","html-slider-response","94","331266","0.0-90.0","405g4ks0w4","4","NaN","<div style=""width:500px;"">
                            <p style=""font-size:50px; font-weight:bold;""
                            >positive</p>
                            <div style=""width:240px; margin: auto;"">
                                <img src=""images/B_D_U_44_darkshift.png"" style= ""width:200px""alt=""img"">
                            </div>
                        </div>","14","","0","images/B_D_U_44_darkshift.png","","","","positive","1","B","D","U","darkshift","",""
"","","","","","html-slider-response","95","333369","0.0-91.0","405g4ks0w4","4","NaN","<div style=""width:500px;"">
                            <p style=""font-size:50px; font-weight:bold;""
                            >positive</p>
                            <div style=""width:240px; margin: auto;"">
                                <img src=""images/B_D_S_41_lightshift.png"" style= ""width:200px""alt=""img"">
                            </div>
                        </div>","82","","0","images/B_D_S_41_lightshift.png","","","","positive","2","B","D","S","lightshift","",""
"","","","","","html-slider-response","96","336165","0.0-92.0","405g4ks0w4","4","NaN","<div style=""width:500px;"">
                            <p style=""font-size:50px; font-weight:bold;""
                            >positive</p>
                            <div style=""width:240px; margin: auto;"">
                                <img src=""images/B_L_U_37_darkshift.png"" style= ""width:200px""alt=""img"">
                            </div>
                        </div>","62","","0","images/B_L_U_37_darkshift.png","","","","positive","2","B","L","U","darkshift","",""
"","","","","","html-slider-response","97","338498","0.0-93.0","405g4ks0w4","4","NaN","<div style=""width:500px;"">
                            <p style=""font-size:50px; font-weight:bold;""
                            >positive</p>
                            <div style=""width:240px; margin: auto;"">
                                <img src=""images/R_L_S_12_lightshift.png"" style= ""width:200px""alt=""img"">
                            </div>
                        </div>","29","","0","images/R_L_S_12_lightshift.png","","","","positive","1","R","L","S","lightshift","",""
"","","","","","html-slider-response","98","340365","0.0-94.0","405g4ks0w4","4","NaN","<div style=""width:500px;"">
                            <p style=""font-size:50px; font-weight:bold;""
                            >positive</p>
                            <div style=""width:240px; margin: auto;"">
                                <img src=""images/R_L_S_12_darkshift.png"" style= ""width:200px""alt=""img"">
                            </div>
                        </div>","171","","0","images/R_L_S_12_darkshift.png","","","","positive","2","R","L","S","darkshift","",""
"","","","","","html-slider-response","99","342682","0.0-95.0","405g4ks0w4","4","NaN","<div style=""width:500px;"">
                            <p style=""font-size:50px; font-weight:bold;""
                            >positive</p>
                            <div style=""width:240px; margin: auto;"">
                                <img src=""images/B_D_U_44_darkshift.png"" style= ""width:200px""alt=""img"">
                            </div>
                        </div>","-27","","0","images/B_D_U_44_darkshift.png","","","","positive","2","B","D","U","darkshift","",""
"","","","","","html-slider-response","100","345683","0.0-96.0","405g4ks0w4","4","NaN","<div style=""width:500px;"">
                            <p style=""font-size:50px; font-weight:bold;""
                            >positive</p>
                            <div style=""width:240px; margin: auto;"">
                                <img src=""images/G_L_S_26_darkshift.png"" style= ""width:200px""alt=""img"">
                            </div>
                        </div>","9","","0","images/G_L_S_26_darkshift.png","","","","positive","2","G","L","S","darkshift","",""
"","","","","","html-slider-response","101","347595","0.0-97.0","405g4ks0w4","4","NaN","<div style=""width:500px;"">
                            <p style=""font-size:50px; font-weight:bold;""
                            >positive</p>
                            <div style=""width:240px; margin: auto;"">
                                <img src=""images/G_D_S_28_darkshift.png"" style= ""width:200px""alt=""img"">
                            </div>
                        </div>","-122","","0","images/G_D_S_28_darkshift.png","","","","positive","1","G","D","S","darkshift","",""
"","","","","","html-slider-response","102","349335","0.0-98.0","405g4ks0w4","4","NaN","<div style=""width:500px;"">
                            <p style=""font-size:50px; font-weight:bold;""
                            >positive</p>
                            <div style=""width:240px; margin: auto;"">
                                <img src=""images/Y_L_S_2_darkshift.png"" style= ""width:200px""alt=""img"">
                            </div>
                        </div>","-166","","0","images/Y_L_S_2_darkshift.png","","","","positive","2","Y","L","S","darkshift","",""
"","","","","","html-slider-response","103","350991","0.0-99.0","405g4ks0w4","4","NaN","<div style=""width:500px;"">
                            <p style=""font-size:50px; font-weight:bold;""
                            >positive</p>
                            <div style=""width:240px; margin: auto;"">
                                <img src=""images/Y_D_U_10_lightshift.png"" style= ""width:200px""alt=""img"">
                            </div>
                        </div>","-47","","0","images/Y_D_U_10_lightshift.png","","","","positive","1","Y","D","U","lightshift","",""
"","","","","","html-slider-response","104","352547","0.0-100.0","405g4ks0w4","4","NaN","<div style=""width:500px;"">
                            <p style=""font-size:50px; font-weight:bold;""
                            >positive</p>
                            <div style=""width:240px; margin: auto;"">
                                <img src=""images/Y_L_U_5_darkshift.png"" style= ""width:200px""alt=""img"">
                            </div>
                        </div>","-22","","0","images/Y_L_U_5_darkshift.png","","","","positive","2","Y","L","U","darkshift","",""
"","","","","","html-slider-response","105","354191","0.0-101.0","405g4ks0w4","4","NaN","<div style=""width:500px;"">
                            <p style=""font-size:50px; font-weight:bold;""
                            >positive</p>
                            <div style=""width:240px; margin: auto;"">
                                <img src=""images/R_L_U_13_lightshift.png"" style= ""width:200px""alt=""img"">
                            </div>
                        </div>","10","","0","images/R_L_U_13_lightshift.png","","","","positive","1","R","L","U","lightshift","",""
"","","","","","html-slider-response","106","356056","0.0-102.0","405g4ks0w4","4","NaN","<div style=""width:500px;"">
                            <p style=""font-size:50px; font-weight:bold;""
                            >positive</p>
                            <div style=""width:240px; margin: auto;"">
                                <img src=""images/B_D_S_41_darkshift.png"" style= ""width:200px""alt=""img"">
                            </div>
                        </div>","-31","","0","images/B_D_S_41_darkshift.png","","","","positive","2","B","D","S","darkshift","",""
"","","","","","html-slider-response","107","357819","0.0-103.0","405g4ks0w4","4","NaN","<div style=""width:500px;"">
                            <p style=""font-size:50px; font-weight:bold;""
                            >positive</p>
                            <div style=""width:240px; margin: auto;"">
                                <img src=""images/B_L_S_33_lightshift.png"" style= ""width:200px""alt=""img"">
                            </div>
                        </div>","56","","0","images/B_L_S_33_lightshift.png","","","","positive","2","B","L","S","lightshift","",""
"","","","","","html-slider-response","108","360009","0.0-104.0","405g4ks0w4","4","NaN","<div style=""width:500px;"">
                            <p style=""font-size:50px; font-weight:bold;""
                            >positive</p>
                            <div style=""width:240px; margin: auto;"">
                                <img src=""images/G_D_S_28_lightshift.png"" style= ""width:200px""alt=""img"">
                            </div>
                        </div>","27","","0","images/G_D_S_28_lightshift.png","","","","positive","2","G","D","S","lightshift","",""
"","","","","","html-slider-response","109","362693","0.0-105.0","405g4ks0w4","4","NaN","<div style=""width:500px;"">
                            <p style=""font-size:50px; font-weight:bold;""
                            >positive</p>
                            <div style=""width:240px; margin: auto;"">
                                <img src=""images/Y_D_S_7_darkshift.png"" style= ""width:200px""alt=""img"">
                            </div>
                        </div>","-185","","0","images/Y_D_S_7_darkshift.png","","","","positive","2","Y","D","S","darkshift","",""
"","","","","","html-slider-response","110","364825","0.0-106.0","405g4ks0w4","4","NaN","<div style=""width:500px;"">
                            <p style=""font-size:50px; font-weight:bold;""
                            >positive</p>
                            <div style=""width:240px; margin: auto;"">
                                <img src=""images/B_D_S_41_darkshift.png"" style= ""width:200px""alt=""img"">
                            </div>
                        </div>","37","","0","images/B_D_S_41_darkshift.png","","","","positive","1","B","D","S","darkshift","",""
"","","","","","html-slider-response","111","367630","0.0-107.0","405g4ks0w4","4","NaN","<div style=""width:500px;"">
                            <p style=""font-size:50px; font-weight:bold;""
                            >positive</p>
                            <div style=""width:240px; margin: auto;"">
                                <img src=""images/G_L_S_26_darkshift.png"" style= ""width:200px""alt=""img"">
                            </div>
                        </div>","30","","0","images/G_L_S_26_darkshift.png","","","","positive","1","G","L","S","darkshift","",""
"","","","","","html-slider-response","112","369876","0.0-108.0","405g4ks0w4","4","NaN","<div style=""width:500px;"">
                            <p style=""font-size:50px; font-weight:bold;""
                            >positive</p>
                            <div style=""width:240px; margin: auto;"">
                                <img src=""images/R_L_S_12_lightshift.png"" style= ""width:200px""alt=""img"">
                            </div>
                        </div>","16","","0","images/R_L_S_12_lightshift.png","","","","positive","2","R","L","S","lightshift","",""
"","","","","","html-slider-response","113","382209","0.0-109.0","405g4ks0w4","4","NaN","<div style=""width:500px;"">
                            <p style=""font-size:50px; font-weight:bold;""
                            >positive</p>
                            <div style=""width:240px; margin: auto;"">
                                <img src=""images/G_L_S_26_lightshift.png"" style= ""width:200px""alt=""img"">
                            </div>
                        </div>","57","","0","images/G_L_S_26_lightshift.png","","","","positive","1","G","L","S","lightshift","",""
"","","","","","html-slider-response","114","384426","0.0-110.0","405g4ks0w4","4","NaN","<div style=""width:500px;"">
                            <p style=""font-size:50px; font-weight:bold;""
                            >positive</p>
                            <div style=""width:240px; margin: auto;"">
                                <img src=""images/G_L_U_27_darkshift.png"" style= ""width:200px""alt=""img"">
                            </div>
                        </div>","10","","0","images/G_L_U_27_darkshift.png","","","","positive","1","G","L","U","darkshift","",""
"","","","","","html-slider-response","115","387578","0.0-111.0","405g4ks0w4","4","NaN","<div style=""width:500px;"">
                            <p style=""font-size:50px; font-weight:bold;""
                            >positive</p>
                            <div style=""width:240px; margin: auto;"">
                                <img src=""images/G_D_S_28_darkshift.png"" style= ""width:200px""alt=""img"">
                            </div>
                        </div>","-150","","0","images/G_D_S_28_darkshift.png","","","","positive","2","G","D","S","darkshift","",""
"","","","","","html-slider-response","116","390447","0.0-112.0","405g4ks0w4","4","NaN","<div style=""width:500px;"">
                            <p style=""font-size:50px; font-weight:bold;""
                            >positive</p>
                            <div style=""width:240px; margin: auto;"">
                                <img src=""images/R_D_S_15_darkshift.png"" style= ""width:200px""alt=""img"">
                            </div>
                        </div>","29","","0","images/R_D_S_15_darkshift.png","","","","positive","1","R","D","S","darkshift","",""
"","","","","","html-slider-response","117","395417","0.0-113.0","405g4ks0w4","4","NaN","<div style=""width:500px;"">
                            <p style=""font-size:50px; font-weight:bold;""
                            >positive</p>
                            <div style=""width:240px; margin: auto;"">
                                <img src=""images/B_L_U_37_lightshift.png"" style= ""width:200px""alt=""img"">
                            </div>
                        </div>","31","","0","images/B_L_U_37_lightshift.png","","","","positive","2","B","L","U","lightshift","",""
"","","","","","html-slider-response","118","397052","0.0-114.0","405g4ks0w4","4","NaN","<div style=""width:500px;"">
                            <p style=""font-size:50px; font-weight:bold;""
                            >positive</p>
                            <div style=""width:240px; margin: auto;"">
                                <img src=""images/R_D_U_23_lightshift.png"" style= ""width:200px""alt=""img"">
                            </div>
                        </div>","-45","","0","images/R_D_U_23_lightshift.png","","","","positive","1","R","D","U","lightshift","",""
"","","","","","html-slider-response","119","398933","0.0-115.0","405g4ks0w4","4","NaN","<div style=""width:500px;"">
                            <p style=""font-size:50px; font-weight:bold;""
                            >positive</p>
                            <div style=""width:240px; margin: auto;"">
                                <img src=""images/B_D_S_41_lightshift.png"" style= ""width:200px""alt=""img"">
                            </div>
                        </div>","116","","0","images/B_D_S_41_lightshift.png","","","","positive","1","B","D","S","lightshift","",""
"","","","","","html-slider-response","120","400624","0.0-116.0","405g4ks0w4","4","NaN","<div style=""width:500px;"">
                            <p style=""font-size:50px; font-weight:bold;""
                            >positive</p>
                            <div style=""width:240px; margin: auto;"">
                                <img src=""images/R_D_U_23_lightshift.png"" style= ""width:200px""alt=""img"">
                            </div>
                        </div>","-57","","0","images/R_D_U_23_lightshift.png","","","","positive","2","R","D","U","lightshift","",""
"","","","","","html-slider-response","121","402522","0.0-117.0","405g4ks0w4","4","NaN","<div style=""width:500px;"">
                            <p style=""font-size:50px; font-weight:bold;""
                            >positive</p>
                            <div style=""width:240px; margin: auto;"">
                                <img src=""images/R_L_S_12_darkshift.png"" style= ""width:200px""alt=""img"">
                            </div>
                        </div>","30","","0","images/R_L_S_12_darkshift.png","","","","positive","1","R","L","S","darkshift","",""
"","","","","","html-slider-response","122","404219","0.0-118.0","405g4ks0w4","4","NaN","<div style=""width:500px;"">
                            <p style=""font-size:50px; font-weight:bold;""
                            >positive</p>
                            <div style=""width:240px; margin: auto;"">
                                <img src=""images/Y_L_U_5_darkshift.png"" style= ""width:200px""alt=""img"">
                            </div>
                        </div>","-114","","0","images/Y_L_U_5_darkshift.png","","","","positive","1","Y","L","U","darkshift","",""
"","","","","","html-slider-response","123","406220","0.0-119.0","405g4ks0w4","4","NaN","<div style=""width:500px;"">
                            <p style=""font-size:50px; font-weight:bold;""
                            >positive</p>
                            <div style=""width:240px; margin: auto;"">
                                <img src=""images/Y_D_S_7_lightshift.png"" style= ""width:200px""alt=""img"">
                            </div>
                        </div>","-179","","0","images/Y_D_S_7_lightshift.png","","","","positive","2","Y","D","S","lightshift","",""
"","","","","","html-slider-response","124","408434","0.0-120.0","405g4ks0w4","4","NaN","<div style=""width:500px;"">
                            <p style=""font-size:50px; font-weight:bold;""
                            >positive</p>
                            <div style=""width:240px; margin: auto;"">
                                <img src=""images/R_L_U_13_darkshift.png"" style= ""width:200px""alt=""img"">
                            </div>
                        </div>","-32","","0","images/R_L_U_13_darkshift.png","","","","positive","2","R","L","U","darkshift","",""
"","","","","","html-slider-response","125","410237","0.0-121.0","405g4ks0w4","4","NaN","<div style=""width:500px;"">
                            <p style=""font-size:50px; font-weight:bold;""
                            >positive</p>
                            <div style=""width:240px; margin: auto;"">
                                <img src=""images/B_D_U_44_lightshift.png"" style= ""width:200px""alt=""img"">
                            </div>
                        </div>","56","","0","images/B_D_U_44_lightshift.png","","","","positive","1","B","D","U","lightshift","",""
"","","","","","html-slider-response","126","411942","0.0-122.0","405g4ks0w4","4","NaN","<div style=""width:500px;"">
                            <p style=""font-size:50px; font-weight:bold;""
                            >positive</p>
                            <div style=""width:240px; margin: auto;"">
                                <img src=""images/Y_L_U_5_lightshift.png"" style= ""width:200px""alt=""img"">
                            </div>
                        </div>","-33","","0","images/Y_L_U_5_lightshift.png","","","","positive","2","Y","L","U","lightshift","",""
"","","","","","html-slider-response","127","413706","0.0-123.0","405g4ks0w4","4","NaN","<div style=""width:500px;"">
                            <p style=""font-size:50px; font-weight:bold;""
                            >positive</p>
                            <div style=""width:240px; margin: auto;"">
                                <img src=""images/Y_D_S_7_lightshift.png"" style= ""width:200px""alt=""img"">
                            </div>
                        </div>","-113","","0","images/Y_D_S_7_lightshift.png","","","","positive","1","Y","D","S","lightshift","",""
"","","","","","html-slider-response","128","416444","0.0-124.0","405g4ks0w4","4","NaN","<div style=""width:500px;"">
                            <p style=""font-size:50px; font-weight:bold;""
                            >positive</p>
                            <div style=""width:240px; margin: auto;"">
                                <img src=""images/R_D_U_23_darkshift.png"" style= ""width:200px""alt=""img"">
                            </div>
                        </div>","-28","","0","images/R_D_U_23_darkshift.png","","","","positive","2","R","D","U","darkshift","",""
"","","","","","html-slider-response","129","418202","0.0-125.0","405g4ks0w4","4","NaN","<div style=""width:500px;"">
                            <p style=""font-size:50px; font-weight:bold;""
                            >positive</p>
                            <div style=""width:240px; margin: auto;"">
                                <img src=""images/R_D_U_23_darkshift.png"" style= ""width:200px""alt=""img"">
                            </div>
                        </div>","-37","","0","images/R_D_U_23_darkshift.png","","","","positive","1","R","D","U","darkshift","",""
"","","","","","html-slider-response","130","419933","0.0-126.0","405g4ks0w4","4","NaN","<div style=""width:500px;"">
                            <p style=""font-size:50px; font-weight:bold;""
                            >positive</p>
                            <div style=""width:240px; margin: auto;"">
                                <img src=""images/Y_D_U_10_darkshift.png"" style= ""width:200px""alt=""img"">
                            </div>
                        </div>","-200","","0","images/Y_D_U_10_darkshift.png","","","","positive","1","Y","D","U","darkshift","",""
"","","","","","html-slider-response","131","421911","0.0-127.0","405g4ks0w4","4","NaN","<div style=""width:500px;"">
                            <p style=""font-size:50px; font-weight:bold;""
                            >positive</p>
                            <div style=""width:240px; margin: auto;"">
                                <img src=""images/G_L_U_27_lightshift.png"" style= ""width:200px""alt=""img"">
                            </div>
                        </div>","62","","0","images/G_L_U_27_lightshift.png","","","","positive","2","G","L","U","lightshift","",""
"","","","","","html-slider-response","132","423847","0.0-128.0","405g4ks0w4","4","NaN","<div style=""width:500px;"">
                            <p style=""font-size:50px; font-weight:bold;""
                            >positive</p>
                            <div style=""width:240px; margin: auto;"">
                                <img src=""images/G_D_S_28_lightshift.png"" style= ""width:200px""alt=""img"">
                            </div>
                        </div>","47","","0","images/G_D_S_28_lightshift.png","","","","positive","1","G","D","S","lightshift","",""
"","","","","","html-slider-response","133","425618","0.0-129.0","405g4ks0w4","4","NaN","<div style=""width:500px;"">
                            <p style=""font-size:50px; font-weight:bold;""
                            >positive</p>
                            <div style=""width:240px; margin: auto;"">
                                <img src=""images/G_L_S_26_lightshift.png"" style= ""width:200px""alt=""img"">
                            </div>
                        </div>","138","","0","images/G_L_S_26_lightshift.png","","","","positive","2","G","L","S","lightshift","",""
"","","","","","html-slider-response","134","427585","0.0-130.0","405g4ks0w4","4","NaN","<div style=""width:500px;"">
                            <p style=""font-size:50px; font-weight:bold;""
                            >positive</p>
                            <div style=""width:240px; margin: auto;"">
                                <img src=""images/G_D_U_30_lightshift.png"" style= ""width:200px""alt=""img"">
                            </div>
                        </div>","24","","0","images/G_D_U_30_lightshift.png","","","","positive","1","G","D","U","lightshift","",""
"","","","","","html-slider-response","135","429119","0.0-131.0","405g4ks0w4","4","NaN","<div style=""width:500px;"">
                            <p style=""font-size:50px; font-weight:bold;""
                            >positive</p>
                            <div style=""width:240px; margin: auto;"">
                                <img src=""images/G_D_U_30_lightshift.png"" style= ""width:200px""alt=""img"">
                            </div>
                        </div>","41","","0","images/G_D_U_30_lightshift.png","","","","positive","2","G","D","U","lightshift","",""
"","","","","","html-slider-response","136","430745","0.0-132.0","405g4ks0w4","4","NaN","<div style=""width:500px;"">
                            <p style=""font-size:50px; font-weight:bold;""
                            >positive</p>
                            <div style=""width:240px; margin: auto;"">
                                <img src=""images/R_L_U_13_darkshift.png"" style= ""width:200px""alt=""img"">
                            </div>
                        </div>","-41","","0","images/R_L_U_13_darkshift.png","","","","positive","1","R","L","U","darkshift","",""
"","","","","","html-slider-response","137","432623","0.0-133.0","405g4ks0w4","4","NaN","<div style=""width:500px;"">
                            <p style=""font-size:50px; font-weight:bold;""
                            >positive</p>
                            <div style=""width:240px; margin: auto;"">
                                <img src=""images/B_L_S_33_darkshift.png"" style= ""width:200px""alt=""img"">
                            </div>
                        </div>","167","","0","images/B_L_S_33_darkshift.png","","","","positive","2","B","L","S","darkshift","",""
"","","","","","html-slider-response","138","434661","0.0-134.0","405g4ks0w4","4","NaN","<div style=""width:500px;"">
                            <p style=""font-size:50px; font-weight:bold;""
                            >positive</p>
                            <div style=""width:240px; margin: auto;"">
                                <img src=""images/Y_D_U_10_lightshift.png"" style= ""width:200px""alt=""img"">
                            </div>
                        </div>","-100","","0","images/Y_D_U_10_lightshift.png","","","","positive","2","Y","D","U","lightshift","",""
"","","","","","html-slider-response","139","436506","0.0-135.0","405g4ks0w4","4","NaN","<div style=""width:500px;"">
                            <p style=""font-size:50px; font-weight:bold;""
                            >positive</p>
                            <div style=""width:240px; margin: auto;"">
                                <img src=""images/B_L_U_37_darkshift.png"" style= ""width:200px""alt=""img"">
                            </div>
                        </div>","52","","0","images/B_L_U_37_darkshift.png","","","","positive","1","B","L","U","darkshift","",""
"","","","","","html-slider-response","140","437992","0.0-136.0","405g4ks0w4","4","NaN","<div style=""width:500px;"">
                            <p style=""font-size:50px; font-weight:bold;""
                            >positive</p>
                            <div style=""width:240px; margin: auto;"">
                                <img src=""images/G_L_U_27_lightshift.png"" style= ""width:200px""alt=""img"">
                            </div>
                        </div>","34","","0","images/G_L_U_27_lightshift.png","","","","positive","1","G","L","U","lightshift","",""
"","","","","","html-slider-response","141","439743","0.0-137.0","405g4ks0w4","4","NaN","<div style=""width:500px;"">
                            <p style=""font-size:50px; font-weight:bold;""
                            >positive</p>
                            <div style=""width:240px; margin: auto;"">
                                <img src=""images/B_L_U_37_lightshift.png"" style= ""width:200px""alt=""img"">
                            </div>
                        </div>","95","","0","images/B_L_U_37_lightshift.png","","","","positive","1","B","L","U","lightshift","",""
"","","","","","html-slider-response","142","441388","0.0-138.0","405g4ks0w4","4","NaN","<div style=""width:500px;"">
                            <p style=""font-size:50px; font-weight:bold;""
                            >positive</p>
                            <div style=""width:240px; margin: auto;"">
                                <img src=""images/B_L_S_33_lightshift.png"" style= ""width:200px""alt=""img"">
                            </div>
                        </div>","159","","0","images/B_L_S_33_lightshift.png","","","","positive","1","B","L","S","lightshift","",""
"","","","","","html-slider-response","143","442614","0.0-139.0","405g4ks0w4","4","NaN","<div style=""width:500px;"">
                            <p style=""font-size:50px; font-weight:bold;""
                            >positive</p>
                            <div style=""width:240px; margin: auto;"">
                                <img src=""images/Y_L_S_2_darkshift.png"" style= ""width:200px""alt=""img"">
                            </div>
                        </div>","-30","","0","images/Y_L_S_2_darkshift.png","","","","positive","1","Y","L","S","darkshift","",""
"","","","","","html-slider-response","144","445181","0.0-140.0","405g4ks0w4","4","NaN","<div style=""width:500px;"">
                            <p style=""font-size:50px; font-weight:bold;""
                            >positive</p>
                            <div style=""width:240px; margin: auto;"">
                                <img src=""images/G_L_U_27_darkshift.png"" style= ""width:200px""alt=""img"">
                            </div>
                        </div>","31","","0","images/G_L_U_27_darkshift.png","","","","positive","2","G","L","U","darkshift","",""
"","","","","","html-slider-response","145","447583","0.0-141.0","405g4ks0w4","4","NaN","<div style=""width:500px;"">
                            <p style=""font-size:50px; font-weight:bold;""
                            >positive</p>
                            <div style=""width:240px; margin: auto;"">
                                <img src=""images/G_D_U_30_darkshift.png"" style= ""width:200px""alt=""img"">
                            </div>
                        </div>","-50","","0","images/G_D_U_30_darkshift.png","","","","positive","2","G","D","U","darkshift","",""
"","","","","","html-slider-response","146","449292","0.0-142.0","405g4ks0w4","4","NaN","<div style=""width:500px;"">
                            <p style=""font-size:50px; font-weight:bold;""
                            >positive</p>
                            <div style=""width:240px; margin: auto;"">
                                <img src=""images/B_D_U_44_lightshift.png"" style= ""width:200px""alt=""img"">
                            </div>
                        </div>","46","","0","images/B_D_U_44_lightshift.png","","","","positive","2","B","D","U","lightshift","",""
"","","","","","html-slider-response","147","451180","0.0-143.0","405g4ks0w4","4","NaN","<div style=""width:500px;"">
                            <p style=""font-size:50px; font-weight:bold;""
                            >positive</p>
                            <div style=""width:240px; margin: auto;"">
                                <img src=""images/R_D_S_15_darkshift.png"" style= ""width:200px""alt=""img"">
                            </div>
                        </div>","-118","","0","images/R_D_S_15_darkshift.png","","","","positive","2","R","D","S","darkshift","",""
"","","","","","html-button-response","148","452645","0.0-144.0","405g4ks0w4","4","963","<p>Great Job! You've finished block 2.<br></br> You have 2 block(s) left to go.<br></br></p>","0","","","","","","","","","","","","","",""
"","","","","","html-button-response","149","453802","0.0-145.0","405g4ks0w4","4","1156","<p>In this block of trials, you will be asked to rate how much you associate each map with:</p > <p style = 'font-size:150%; font-weight: bold'>negative</p><br></br>","0","","","","","","","","","","","","","",""
"","","","","","html-slider-response","150","458536","0.0-146.0","405g4ks0w4","4","NaN","<div style=""width:500px;"">
                            <p style=""font-size:50px; font-weight:bold;""
                            >negative</p>
                            <div style=""width:240px; margin: auto;"">
                                <img src=""images/R_L_S_12_lightshift.png"" style= ""width:200px""alt=""img"">
                            </div>
                        </div>","-53","","0","images/R_L_S_12_lightshift.png","","","","negative","1","R","L","S","lightshift","",""
"","","","","","html-slider-response","151","461360","0.0-147.0","405g4ks0w4","4","NaN","<div style=""width:500px;"">
                            <p style=""font-size:50px; font-weight:bold;""
                            >negative</p>
                            <div style=""width:240px; margin: auto;"">
                                <img src=""images/G_D_U_30_lightshift.png"" style= ""width:200px""alt=""img"">
                            </div>
                        </div>","-54","","0","images/G_D_U_30_lightshift.png","","","","negative","2","G","D","U","lightshift","",""
"","","","","","html-slider-response","152","463702","0.0-148.0","405g4ks0w4","4","NaN","<div style=""width:500px;"">
                            <p style=""font-size:50px; font-weight:bold;""
                            >negative</p>
                            <div style=""width:240px; margin: auto;"">
                                <img src=""images/B_L_U_37_darkshift.png"" style= ""width:200px""alt=""img"">
                            </div>
                        </div>","-142","","0","images/B_L_U_37_darkshift.png","","","","negative","2","B","L","U","darkshift","",""
"","","","","","html-slider-response","153","465988","0.0-149.0","405g4ks0w4","4","NaN","<div style=""width:500px;"">
                            <p style=""font-size:50px; font-weight:bold;""
                            >negative</p>
                            <div style=""width:240px; margin: auto;"">
                                <img src=""images/G_D_U_30_lightshift.png"" style= ""width:200px""alt=""img"">
                            </div>
                        </div>","27","","0","images/G_D_U_30_lightshift.png","","","","negative","1","G","D","U","lightshift","",""
"","","","","","html-slider-response","154","467597","0.0-150.0","405g4ks0w4","4","NaN","<div style=""width:500px;"">
                            <p style=""font-size:50px; font-weight:bold;""
                            >negative</p>
                            <div style=""width:240px; margin: auto;"">
                                <img src=""images/B_D_U_44_lightshift.png"" style= ""width:200px""alt=""img"">
                            </div>
                        </div>","-70","","0","images/B_D_U_44_lightshift.png","","","","negative","2","B","D","U","lightshift","",""
"","","","","","html-slider-response","155","470242","0.0-151.0","405g4ks0w4","4","NaN","<div style=""width:500px;"">
                            <p style=""font-size:50px; font-weight:bold;""
                            >negative</p>
                            <div style=""width:240px; margin: auto;"">
                                <img src=""images/G_D_S_28_lightshift.png"" style= ""width:200px""alt=""img"">
                            </div>
                        </div>","19","","0","images/G_D_S_28_lightshift.png","","","","negative","1","G","D","S","lightshift","",""
"","","","","","html-slider-response","156","472401","0.0-152.0","405g4ks0w4","4","NaN","<div style=""width:500px;"">
                            <p style=""font-size:50px; font-weight:bold;""
                            >negative</p>
                            <div style=""width:240px; margin: auto;"">
                                <img src=""images/R_L_U_13_lightshift.png"" style= ""width:200px""alt=""img"">
                            </div>
                        </div>","48","","0","images/R_L_U_13_lightshift.png","","","","negative","2","R","L","U","lightshift","",""
"","","","","","html-slider-response","157","475488","0.0-153.0","405g4ks0w4","4","NaN","<div style=""width:500px;"">
                            <p style=""font-size:50px; font-weight:bold;""
                            >negative</p>
                            <div style=""width:240px; margin: auto;"">
                                <img src=""images/G_L_U_27_darkshift.png"" style= ""width:200px""alt=""img"">
                            </div>
                        </div>","31","","0","images/G_L_U_27_darkshift.png","","","","negative","2","G","L","U","darkshift","",""
"","","","","","html-slider-response","158","477535","0.0-154.0","405g4ks0w4","4","NaN","<div style=""width:500px;"">
                            <p style=""font-size:50px; font-weight:bold;""
                            >negative</p>
                            <div style=""width:240px; margin: auto;"">
                                <img src=""images/Y_D_U_10_darkshift.png"" style= ""width:200px""alt=""img"">
                            </div>
                        </div>","186","","0","images/Y_D_U_10_darkshift.png","","","","negative","1","Y","D","U","darkshift","",""
"","","","","","html-slider-response","159","479757","0.0-155.0","405g4ks0w4","4","NaN","<div style=""width:500px;"">
                            <p style=""font-size:50px; font-weight:bold;""
                            >negative</p>
                            <div style=""width:240px; margin: auto;"">
                                <img src=""images/R_L_U_13_darkshift.png"" style= ""width:200px""alt=""img"">
                            </div>
                        </div>","32","","0","images/R_L_U_13_darkshift.png","","","","negative","2","R","L","U","darkshift","",""
"","","","","","html-slider-response","160","481185","0.0-156.0","405g4ks0w4","4","NaN","<div style=""width:500px;"">
                            <p style=""font-size:50px; font-weight:bold;""
                            >negative</p>
                            <div style=""width:240px; margin: auto;"">
                                <img src=""images/B_L_U_37_lightshift.png"" style= ""width:200px""alt=""img"">
                            </div>
                        </div>","-77","","0","images/B_L_U_37_lightshift.png","","","","negative","2","B","L","U","lightshift","",""
"","","","","","html-slider-response","161","482614","0.0-157.0","405g4ks0w4","4","NaN","<div style=""width:500px;"">
                            <p style=""font-size:50px; font-weight:bold;""
                            >negative</p>
                            <div style=""width:240px; margin: auto;"">
                                <img src=""images/B_L_S_33_darkshift.png"" style= ""width:200px""alt=""img"">
                            </div>
                        </div>","-110","","0","images/B_L_S_33_darkshift.png","","","","negative","2","B","L","S","darkshift","",""
"","","","","","html-slider-response","162","484328","0.0-158.0","405g4ks0w4","4","NaN","<div style=""width:500px;"">
                            <p style=""font-size:50px; font-weight:bold;""
                            >negative</p>
                            <div style=""width:240px; margin: auto;"">
                                <img src=""images/B_D_S_41_darkshift.png"" style= ""width:200px""alt=""img"">
                            </div>
                        </div>","-143","","0","images/B_D_S_41_darkshift.png","","","","negative","2","B","D","S","darkshift","",""
"","","","","","html-slider-response","163","487039","0.0-159.0","405g4ks0w4","4","NaN","<div style=""width:500px;"">
                            <p style=""font-size:50px; font-weight:bold;""
                            >negative</p>
                            <div style=""width:240px; margin: auto;"">
                                <img src=""images/B_D_U_44_darkshift.png"" style= ""width:200px""alt=""img"">
                            </div>
                        </div>","-20","","0","images/B_D_U_44_darkshift.png","","","","negative","1","B","D","U","darkshift","",""
"","","","","","html-slider-response","164","489384","0.0-160.0","405g4ks0w4","4","NaN","<div style=""width:500px;"">
                            <p style=""font-size:50px; font-weight:bold;""
                            >negative</p>
                            <div style=""width:240px; margin: auto;"">
                                <img src=""images/Y_L_U_5_darkshift.png"" style= ""width:200px""alt=""img"">
                            </div>
                        </div>","76","","0","images/Y_L_U_5_darkshift.png","","","","negative","1","Y","L","U","darkshift","",""
"","","","","","html-slider-response","165","490951","0.0-161.0","405g4ks0w4","4","NaN","<div style=""width:500px;"">
                            <p style=""font-size:50px; font-weight:bold;""
                            >negative</p>
                            <div style=""width:240px; margin: auto;"">
                                <img src=""images/Y_D_S_7_darkshift.png"" style= ""width:200px""alt=""img"">
                            </div>
                        </div>","200","","0","images/Y_D_S_7_darkshift.png","","","","negative","1","Y","D","S","darkshift","",""
"","","","","","html-slider-response","166","492491","0.0-162.0","405g4ks0w4","4","NaN","<div style=""width:500px;"">
                            <p style=""font-size:50px; font-weight:bold;""
                            >negative</p>
                            <div style=""width:240px; margin: auto;"">
                                <img src=""images/Y_D_U_10_darkshift.png"" style= ""width:200px""alt=""img"">
                            </div>
                        </div>","200","","0","images/Y_D_U_10_darkshift.png","","","","negative","2","Y","D","U","darkshift","",""
"","","","","","html-slider-response","167","494908","0.0-163.0","405g4ks0w4","4","NaN","<div style=""width:500px;"">
                            <p style=""font-size:50px; font-weight:bold;""
                            >negative</p>
                            <div style=""width:240px; margin: auto;"">
                                <img src=""images/Y_L_U_5_darkshift.png"" style= ""width:200px""alt=""img"">
                            </div>
                        </div>","101","","0","images/Y_L_U_5_darkshift.png","","","","negative","2","Y","L","U","darkshift","",""
"","","","","","html-slider-response","168","496817","0.0-164.0","405g4ks0w4","4","NaN","<div style=""width:500px;"">
                            <p style=""font-size:50px; font-weight:bold;""
                            >negative</p>
                            <div style=""width:240px; margin: auto;"">
                                <img src=""images/Y_L_U_5_lightshift.png"" style= ""width:200px""alt=""img"">
                            </div>
                        </div>","54","","0","images/Y_L_U_5_lightshift.png","","","","negative","2","Y","L","U","lightshift","",""
"","","","","","html-slider-response","169","499525","0.0-165.0","405g4ks0w4","4","NaN","<div style=""width:500px;"">
                            <p style=""font-size:50px; font-weight:bold;""
                            >negative</p>
                            <div style=""width:240px; margin: auto;"">
                                <img src=""images/Y_L_S_2_lightshift.png"" style= ""width:200px""alt=""img"">
                            </div>
                        </div>","42","","0","images/Y_L_S_2_lightshift.png","","","","negative","1","Y","L","S","lightshift","",""
"","","","","","html-slider-response","170","501036","0.0-166.0","405g4ks0w4","4","NaN","<div style=""width:500px;"">
                            <p style=""font-size:50px; font-weight:bold;""
                            >negative</p>
                            <div style=""width:240px; margin: auto;"">
                                <img src=""images/B_L_S_33_darkshift.png"" style= ""width:200px""alt=""img"">
                            </div>
                        </div>","-57","","0","images/B_L_S_33_darkshift.png","","","","negative","1","B","L","S","darkshift","",""
"","","","","","html-slider-response","171","502753","0.0-167.0","405g4ks0w4","4","NaN","<div style=""width:500px;"">
                            <p style=""font-size:50px; font-weight:bold;""
                            >negative</p>
                            <div style=""width:240px; margin: auto;"">
                                <img src=""images/R_L_U_13_lightshift.png"" style= ""width:200px""alt=""img"">
                            </div>
                        </div>","38","","0","images/R_L_U_13_lightshift.png","","","","negative","1","R","L","U","lightshift","",""
"","","","","","html-slider-response","172","504655","0.0-168.0","405g4ks0w4","4","NaN","<div style=""width:500px;"">
                            <p style=""font-size:50px; font-weight:bold;""
                            >negative</p>
                            <div style=""width:240px; margin: auto;"">
                                <img src=""images/R_D_U_23_darkshift.png"" style= ""width:200px""alt=""img"">
                            </div>
                        </div>","142","","0","images/R_D_U_23_darkshift.png","","","","negative","2","R","D","U","darkshift","",""
"","","","","","html-slider-response","173","506515","0.0-169.0","405g4ks0w4","4","NaN","<div style=""width:500px;"">
                            <p style=""font-size:50px; font-weight:bold;""
                            >negative</p>
                            <div style=""width:240px; margin: auto;"">
                                <img src=""images/B_D_S_41_darkshift.png"" style= ""width:200px""alt=""img"">
                            </div>
                        </div>","-51","","0","images/B_D_S_41_darkshift.png","","","","negative","1","B","D","S","darkshift","",""
"","","","","","html-slider-response","174","508079","0.0-170.0","405g4ks0w4","4","NaN","<div style=""width:500px;"">
