"success","timeout","failed_images","failed_audio","failed_video","trial_type","trial_index","time_elapsed","internal_node_id","subject_id","condition_num","rt","stimulus","response","question_order","slider_start","image_path","practiceTrial","practiceTrialNum","correct","concept","repetition","hue","lightness","saturation","shift","ishihara_plate","correct_response"
"true","false","[]","[]","[]","preload","0","634","0.0-0.0","46xjsdxsl9","4","","","","","","","","","","","","","","","","",""
"","","","","","html-button-response","1","1744","0.0-1.0","46xjsdxsl9","4","1108","Welcome to our experiment!<p>At the bottom of this screen, you will see a button that says ""Begin Experiment"".<br>Please only click that button when you are ready to complete the 25 minute experiment in one sitting.</p><p> Once you click that button, it will not be possible to restart the experiment.","0","","","","","","","","","","","","","",""
"true","","","","","fullscreen","2","4150","0.0-2.0","46xjsdxsl9","4","1401","","","","","","","","","","","","","","","",""
"","","","","","survey-multi-select","3","12598","0.0-3.0","46xjsdxsl9","4","8442","","{""Consent"":[""<strong>I consent</strong>""]}","[0]","","","","","","","","","","","","",""
"","","","","","html-button-response","4","14419","0.0-4.0","46xjsdxsl9","4","1815","Welcome! <p> This experiment involves two parts: demographic information, followed by the experimental task.<p> It will take about 25 minutes to complete both parts.","0","","","","","","","","","","","","","",""
"","","","","","survey-text","5","39389","0.0-5.0","46xjsdxsl9","4","24953","","{""Age"":""19"",""Gender"":""Female"",""Race/ethnicity"":""White"",""Languages"":""English\nSpanish""}","","","","","","","","","","","","","",""
"","","","","","html-slider-response","6","95558","0.0-6.0","46xjsdxsl9","4","56166","
                            <div style='text-align:left; font-size:20px; line-height:25px; width: 1400px;'>
                                During this experiment you will be asked to rate how much you associate maps with                    different concepts.<br> Below, you can see some examples of the maps you will be asked to rate. Next to the maps
                    is the list of concepts.<br>You will be asked                    to rate how much you associate each map with each concept on a scale from 'not at all' to 'very much' like the
                    one below. <br><br>
                    Now, please look at the list of concepts and maps. For each concept, think about the map you associate 'very
                    much' with the concept.<br>                     When you see that map during the experiment, please rate it near the 'very much' endpoint of the
                    scale.<br>Now, please think about which map you associate 'not at all'                     with each concept. When you see that map during the experiment, please rate it near the 'not at all' endpoint
                    of the scale.<br>
                    Please use the full range of the scale. That is, if a map is somewhat associated with the concept, you would
                    click partway between the middle point and right side of the scale.                    You will be asked to rate each map for a given concept before moving on to the next concept.<br><br>Press the
                    'Continue' button for instructions on how to use the slider.                    <br><br>
                </div>

                <div style=""width: 500px; margin: 0 auto;"">
                    <!-- Centered text paragraphs -->
                    <div style=""text-align: center; width: 500px;"">
                        <p style=""font-size:25px; line-height:18px;"">calm</p>
                        <p style=""font-size:25px; line-height:18px;"">positive</p>
                        <p style=""font-size:25px;line-height:18px;"">negative</p>
                        <p style=""font-size:25px;line-height:18px;"">startling</p>
                    </div>

                    <!-- Grid section -->
                   <div style=""display: flex; justify-content: center; padding-top: 15px;"">
                    <div style=""display: grid; grid-template-columns: repeat(8, 80px); grid-gap: 5px; width: auto;"">
                        <img src=""images/Y_L_S_2_lightshift.png"" alt=""map"" style=""width: 100%;""><img src=""images/R_D_U_23_darkshift.png"" alt=""map"" style=""width: 100%;""><img src=""images/B_D_S_41_lightshift.png"" alt=""map"" style=""width: 100%;""><img src=""images/R_L_U_13_darkshift.png"" alt=""map"" style=""width: 100%;""><img src=""images/B_L_S_33_lightshift.png"" alt=""map"" style=""width: 100%;""><img src=""images/R_L_S_12_darkshift.png"" alt=""map"" style=""width: 100%;""><img src=""images/R_D_S_15_darkshift.png"" alt=""map"" style=""width: 100%;""><img src=""images/Y_D_S_7_darkshift.png"" alt=""map"" style=""width: 100%;""><img src=""images/Y_L_S_2_darkshift.png"" alt=""map"" style=""width: 100%;""><img src=""images/B_L_S_33_darkshift.png"" alt=""map"" style=""width: 100%;""><img src=""images/R_D_S_15_lightshift.png"" alt=""map"" style=""width: 100%;""><img src=""images/G_D_U_30_lightshift.png"" alt=""map"" style=""width: 100%;""><img src=""images/Y_L_U_5_darkshift.png"" alt=""map"" style=""width: 100%;""><img src=""images/Y_D_S_7_lightshift.png"" alt=""map"" style=""width: 100%;""><img src=""images/G_D_S_28_darkshift.png"" alt=""map"" style=""width: 100%;""><img src=""images/G_D_S_28_lightshift.png"" alt=""map"" style=""width: 100%;""><img src=""images/B_D_U_44_lightshift.png"" alt=""map"" style=""width: 100%;""><img src=""images/R_D_U_23_lightshift.png"" alt=""map"" style=""width: 100%;""><img src=""images/Y_D_U_10_lightshift.png"" alt=""map"" style=""width: 100%;""><img src=""images/G_D_U_30_darkshift.png"" alt=""map"" style=""width: 100%;""><img src=""images/B_L_U_37_darkshift.png"" alt=""map"" style=""width: 100%;""><img src=""images/Y_L_U_5_lightshift.png"" alt=""map"" style=""width: 100%;""><img src=""images/Y_D_U_10_darkshift.png"" alt=""map"" style=""width: 100%;""><img src=""images/G_L_U_27_lightshift.png"" alt=""map"" style=""width: 100%;""><img src=""images/B_L_U_37_lightshift.png"" alt=""map"" style=""width: 100%;""><img src=""images/G_L_U_27_darkshift.png"" alt=""map"" style=""width: 100%;""><img src=""images/G_L_S_26_darkshift.png"" alt=""map"" style=""width: 100%;""><img src=""images/R_L_S_12_lightshift.png"" alt=""map"" style=""width: 100%;""><img src=""images/R_L_U_13_lightshift.png"" alt=""map"" style=""width: 100%;""><img src=""images/G_L_S_26_lightshift.png"" alt=""map"" style=""width: 100%;""><img src=""images/B_D_S_41_darkshift.png"" alt=""map"" style=""width: 100%;""><img src=""images/B_D_U_44_darkshift.png"" alt=""map"" style=""width: 100%;"">
                    </div>
                </div>

                    <!-- Clear floats -->
                    <div style=""clear: both;""></div>
                </div>
                            ","-92","","0","maps_anchoring.png","true","","","","","","","","","",""
"","","","","","html-button-response","7","97112","0.0-7.0","46xjsdxsl9","4","1553","<div style=""width:800px;""><p style=""text-align:left"">To move the slider, click and drag your cursor to the location of the scale where you would like to make your rating and then let go. When you let go of the slider, your response will be recorded and the next trial will begin. <br>
                    We are interested in your initial impressions of each map for the given concept, so please go with your first intuition. <br>
                    Before you begin the experiment, there will be four training trials for you to practice using the scale. <br>
                     When you are ready to start the training trials, please click ""Continue"".</p><br></div>","0","","","","","","","","","","","","","",""
"","","","","","html-slider-response","8","100197","0.0-8.0-0.0","46xjsdxsl9","4","NaN","<div style=""width:500px;"">
                                    <p style=""font-size:25px;"">Please move the slider all the way to the <br> right endpoint of the scale</p>

                                    </div>
                                </div>","200","","0","","true","0","true","","","","","","","",""
"","","","","","html-button-response","9","101947","0.0-8.0-1.0","46xjsdxsl9","4","1245","<p align='center'><b>Good job!</b> Click on 'Continue' to proceed.</p>","0","","","","","","","","","","","","","",""
"","","","","","html-slider-response","10","103535","0.0-9.0-0.0","46xjsdxsl9","4","NaN","<div style=""width:500px;"">
                                    <p style=""font-size:25px;"">Please move the slider all the way to the <br> left endpoint of the scale</p>

                                    </div>
                                </div>","-200","","0","","true","1","true","","","","","","","",""
"","","","","","html-button-response","11","105142","0.0-9.0-1.0","46xjsdxsl9","4","1105","<p align='center'><b>Good job!</b> Click on 'Continue' to proceed.</p>","0","","","","","","","","","","","","","",""
"","","","","","html-slider-response","12","108708","0.0-10.0-0.0","46xjsdxsl9","4","NaN","<div style=""width:500px;"">
                                    <p style=""font-size:25px;"">Please move the slider halfway between the center and right endpoint of the scale</p>

                                    </div>
                                </div>","104","","0","","true","2","true","","","","","","","",""
"","","","","","html-button-response","13","110102","0.0-10.0-1.0","46xjsdxsl9","4","890","<p align='center'><b>Good job!</b> Click on 'Continue' to proceed.</p>","0","","","","","","","","","","","","","",""
"","","","","","html-slider-response","14","112592","0.0-11.0-0.0","46xjsdxsl9","4","NaN","<div style=""width:500px;"">
                                    <p style=""font-size:25px;"">Please move the slider halfway between the center and left endpoint of the scale</p>

                                    </div>
                                </div>","-104","","0","","true","3","true","","","","","","","",""
"","","","","","html-button-response","15","113953","0.0-11.0-1.0","46xjsdxsl9","4","858","<p align='center'><b>Good job!</b> Click on 'Continue' to proceed.</p>","0","","","","","","","","","","","","","",""
"","","","","","html-button-response","16","115483","0.0-12.0","46xjsdxsl9","4","1529","<p>Great job! You've completed the practice trials. Now you will begin the main task.</p>","0","","","","","","","","","","","","","",""
"","","","","","html-button-response","17","122472","0.0-13.0","46xjsdxsl9","4","6987","<p>In this block of trials, you will be asked to rate how much you associate each map with:</p > <p style = 'font-size:150%; font-weight: bold'>startling</p><br></br>","0","","","","","","","","","","","","","",""
"","","","","","html-slider-response","18","125233","0.0-14.0","46xjsdxsl9","4","NaN","<div style=""width:500px;"">
                            <p style=""font-size:50px; font-weight:bold;""
                            >startling</p>
                            <div style=""width:240px; margin: auto;"">
                                <img src=""images/G_L_S_26_lightshift.png"" style= ""width:200px""alt=""img"">
                            </div>
                        </div>","-54","","0","images/G_L_S_26_lightshift.png","","","","startling","2","G","L","S","lightshift","",""
"","","","","","html-slider-response","19","129961","0.0-15.0","46xjsdxsl9","4","NaN","<div style=""width:500px;"">
                            <p style=""font-size:50px; font-weight:bold;""
                            >startling</p>
                            <div style=""width:240px; margin: auto;"">
                                <img src=""images/B_D_S_41_darkshift.png"" style= ""width:200px""alt=""img"">
                            </div>
                        </div>","86","","0","images/B_D_S_41_darkshift.png","","","","startling","1","B","D","S","darkshift","",""
"","","","","","html-slider-response","20","132381","0.0-16.0","46xjsdxsl9","4","NaN","<div style=""width:500px;"">
                            <p style=""font-size:50px; font-weight:bold;""
                            >startling</p>
                            <div style=""width:240px; margin: auto;"">
                                <img src=""images/Y_D_U_10_darkshift.png"" style= ""width:200px""alt=""img"">
                            </div>
                        </div>","99","","0","images/Y_D_U_10_darkshift.png","","","","startling","1","Y","D","U","darkshift","",""
"","","","","","html-slider-response","21","135003","0.0-17.0","46xjsdxsl9","4","NaN","<div style=""width:500px;"">
                            <p style=""font-size:50px; font-weight:bold;""
                            >startling</p>
                            <div style=""width:240px; margin: auto;"">
                                <img src=""images/Y_D_S_7_lightshift.png"" style= ""width:200px""alt=""img"">
                            </div>
                        </div>","92","","0","images/Y_D_S_7_lightshift.png","","","","startling","1","Y","D","S","lightshift","",""
"","","","","","html-slider-response","22","137381","0.0-18.0","46xjsdxsl9","4","NaN","<div style=""width:500px;"">
                            <p style=""font-size:50px; font-weight:bold;""
                            >startling</p>
                            <div style=""width:240px; margin: auto;"">
                                <img src=""images/Y_L_S_2_lightshift.png"" style= ""width:200px""alt=""img"">
                            </div>
                        </div>","57","","0","images/Y_L_S_2_lightshift.png","","","","startling","2","Y","L","S","lightshift","",""
"","","","","","html-slider-response","23","140992","0.0-19.0","46xjsdxsl9","4","NaN","<div style=""width:500px;"">
                            <p style=""font-size:50px; font-weight:bold;""
                            >startling</p>
                            <div style=""width:240px; margin: auto;"">
                                <img src=""images/R_D_S_15_darkshift.png"" style= ""width:200px""alt=""img"">
                            </div>
                        </div>","32","","0","images/R_D_S_15_darkshift.png","","","","startling","1","R","D","S","darkshift","",""
"","","","","","html-slider-response","24","142672","0.0-20.0","46xjsdxsl9","4","NaN","<div style=""width:500px;"">
                            <p style=""font-size:50px; font-weight:bold;""
                            >startling</p>
                            <div style=""width:240px; margin: auto;"">
                                <img src=""images/R_L_U_13_darkshift.png"" style= ""width:200px""alt=""img"">
                            </div>
                        </div>","-45","","0","images/R_L_U_13_darkshift.png","","","","startling","1","R","L","U","darkshift","",""
"","","","","","html-slider-response","25","144598","0.0-21.0","46xjsdxsl9","4","NaN","<div style=""width:500px;"">
                            <p style=""font-size:50px; font-weight:bold;""
                            >startling</p>
                            <div style=""width:240px; margin: auto;"">
                                <img src=""images/B_L_S_33_lightshift.png"" style= ""width:200px""alt=""img"">
                            </div>
                        </div>","-116","","0","images/B_L_S_33_lightshift.png","","","","startling","2","B","L","S","lightshift","",""
"","","","","","html-slider-response","26","148148","0.0-22.0","46xjsdxsl9","4","NaN","<div style=""width:500px;"">
                            <p style=""font-size:50px; font-weight:bold;""
                            >startling</p>
                            <div style=""width:240px; margin: auto;"">
                                <img src=""images/B_L_U_37_lightshift.png"" style= ""width:200px""alt=""img"">
                            </div>
                        </div>","-100","","0","images/B_L_U_37_lightshift.png","","","","startling","2","B","L","U","lightshift","",""
"","","","","","html-slider-response","27","155377","0.0-23.0","46xjsdxsl9","4","NaN","<div style=""width:500px;"">
                            <p style=""font-size:50px; font-weight:bold;""
                            >startling</p>
                            <div style=""width:240px; margin: auto;"">
                                <img src=""images/Y_L_S_2_darkshift.png"" style= ""width:200px""alt=""img"">
                            </div>
                        </div>","63","","0","images/Y_L_S_2_darkshift.png","","","","startling","2","Y","L","S","darkshift","",""
"","","","","","html-slider-response","28","157597","0.0-24.0","46xjsdxsl9","4","NaN","<div style=""width:500px;"">
                            <p style=""font-size:50px; font-weight:bold;""
                            >startling</p>
                            <div style=""width:240px; margin: auto;"">
                                <img src=""images/B_D_U_44_darkshift.png"" style= ""width:200px""alt=""img"">
                            </div>
                        </div>","-2","","0","images/B_D_U_44_darkshift.png","","","","startling","2","B","D","U","darkshift","",""
"","","","","","html-slider-response","29","159127","0.0-25.0","46xjsdxsl9","4","NaN","<div style=""width:500px;"">
                            <p style=""font-size:50px; font-weight:bold;""
                            >startling</p>
                            <div style=""width:240px; margin: auto;"">
                                <img src=""images/R_D_U_23_lightshift.png"" style= ""width:200px""alt=""img"">
                            </div>
                        </div>","0","","0","images/R_D_U_23_lightshift.png","","","","startling","1","R","D","U","lightshift","",""
"","","","","","html-slider-response","30","161035","0.0-26.0","46xjsdxsl9","4","NaN","<div style=""width:500px;"">
                            <p style=""font-size:50px; font-weight:bold;""
                            >startling</p>
                            <div style=""width:240px; margin: auto;"">
                                <img src=""images/G_D_U_30_lightshift.png"" style= ""width:200px""alt=""img"">
                            </div>
                        </div>","22","","0","images/G_D_U_30_lightshift.png","","","","startling","1","G","D","U","lightshift","",""
"","","","","","html-slider-response","31","162953","0.0-27.0","46xjsdxsl9","4","NaN","<div style=""width:500px;"">
                            <p style=""font-size:50px; font-weight:bold;""
                            >startling</p>
                            <div style=""width:240px; margin: auto;"">
                                <img src=""images/R_D_U_23_darkshift.png"" style= ""width:200px""alt=""img"">
                            </div>
                        </div>","10","","0","images/R_D_U_23_darkshift.png","","","","startling","1","R","D","U","darkshift","",""
"","","","","","html-slider-response","32","164712","0.0-28.0","46xjsdxsl9","4","NaN","<div style=""width:500px;"">
                            <p style=""font-size:50px; font-weight:bold;""
                            >startling</p>
                            <div style=""width:240px; margin: auto;"">
                                <img src=""images/G_L_S_26_darkshift.png"" style= ""width:200px""alt=""img"">
                            </div>
                        </div>","-28","","0","images/G_L_S_26_darkshift.png","","","","startling","2","G","L","S","darkshift","",""
"","","","","","html-slider-response","33","167383","0.0-29.0","46xjsdxsl9","4","NaN","<div style=""width:500px;"">
                            <p style=""font-size:50px; font-weight:bold;""
                            >startling</p>
                            <div style=""width:240px; margin: auto;"">
                                <img src=""images/Y_L_U_5_lightshift.png"" style= ""width:200px""alt=""img"">
                            </div>
                        </div>","46","","0","images/Y_L_U_5_lightshift.png","","","","startling","1","Y","L","U","lightshift","",""
"","","","","","html-slider-response","34","169593","0.0-30.0","46xjsdxsl9","4","NaN","<div style=""width:500px;"">
                            <p style=""font-size:50px; font-weight:bold;""
                            >startling</p>
                            <div style=""width:240px; margin: auto;"">
                                <img src=""images/G_D_U_30_darkshift.png"" style= ""width:200px""alt=""img"">
                            </div>
                        </div>","26","","0","images/G_D_U_30_darkshift.png","","","","startling","2","G","D","U","darkshift","",""
"","","","","","html-slider-response","35","171336","0.0-31.0","46xjsdxsl9","4","NaN","<div style=""width:500px;"">
                            <p style=""font-size:50px; font-weight:bold;""
                            >startling</p>
                            <div style=""width:240px; margin: auto;"">
                                <img src=""images/R_L_U_13_lightshift.png"" style= ""width:200px""alt=""img"">
                            </div>
                        </div>","-49","","0","images/R_L_U_13_lightshift.png","","","","startling","1","R","L","U","lightshift","",""
"","","","","","html-slider-response","36","172871","0.0-32.0","46xjsdxsl9","4","NaN","<div style=""width:500px;"">
                            <p style=""font-size:50px; font-weight:bold;""
                            >startling</p>
                            <div style=""width:240px; margin: auto;"">
                                <img src=""images/G_D_U_30_lightshift.png"" style= ""width:200px""alt=""img"">
                            </div>
                        </div>","-30","","0","images/G_D_U_30_lightshift.png","","","","startling","2","G","D","U","lightshift","",""
"","","","","","html-slider-response","37","174606","0.0-33.0","46xjsdxsl9","4","NaN","<div style=""width:500px;"">
                            <p style=""font-size:50px; font-weight:bold;""
                            >startling</p>
                            <div style=""width:240px; margin: auto;"">
                                <img src=""images/Y_D_S_7_darkshift.png"" style= ""width:200px""alt=""img"">
                            </div>
                        </div>","43","","0","images/Y_D_S_7_darkshift.png","","","","startling","2","Y","D","S","darkshift","",""
"","","","","","html-slider-response","38","176613","0.0-34.0","46xjsdxsl9","4","NaN","<div style=""width:500px;"">
                            <p style=""font-size:50px; font-weight:bold;""
                            >startling</p>
                            <div style=""width:240px; margin: auto;"">
                                <img src=""images/B_L_S_33_darkshift.png"" style= ""width:200px""alt=""img"">
                            </div>
                        </div>","16","","0","images/B_L_S_33_darkshift.png","","","","startling","2","B","L","S","darkshift","",""
"","","","","","html-slider-response","39","178108","0.0-35.0","46xjsdxsl9","4","NaN","<div style=""width:500px;"">
                            <p style=""font-size:50px; font-weight:bold;""
                            >startling</p>
                            <div style=""width:240px; margin: auto;"">
                                <img src=""images/Y_D_U_10_lightshift.png"" style= ""width:200px""alt=""img"">
                            </div>
                        </div>","30","","0","images/Y_D_U_10_lightshift.png","","","","startling","1","Y","D","U","lightshift","",""
"","","","","","html-slider-response","40","179631","0.0-36.0","46xjsdxsl9","4","NaN","<div style=""width:500px;"">
                            <p style=""font-size:50px; font-weight:bold;""
                            >startling</p>
                            <div style=""width:240px; margin: auto;"">
                                <img src=""images/Y_L_S_2_lightshift.png"" style= ""width:200px""alt=""img"">
                            </div>
                        </div>","51","","0","images/Y_L_S_2_lightshift.png","","","","startling","1","Y","L","S","lightshift","",""
"","","","","","html-slider-response","41","181445","0.0-37.0","46xjsdxsl9","4","NaN","<div style=""width:500px;"">
                            <p style=""font-size:50px; font-weight:bold;""
                            >startling</p>
                            <div style=""width:240px; margin: auto;"">
                                <img src=""images/Y_L_U_5_darkshift.png"" style= ""width:200px""alt=""img"">
                            </div>
                        </div>","46","","0","images/Y_L_U_5_darkshift.png","","","","startling","1","Y","L","U","darkshift","",""
"","","","","","html-slider-response","42","184781","0.0-38.0","46xjsdxsl9","4","NaN","<div style=""width:500px;"">
                            <p style=""font-size:50px; font-weight:bold;""
                            >startling</p>
                            <div style=""width:240px; margin: auto;"">
                                <img src=""images/G_L_U_27_darkshift.png"" style= ""width:200px""alt=""img"">
                            </div>
                        </div>","14","","0","images/G_L_U_27_darkshift.png","","","","startling","2","G","L","U","darkshift","",""
"","","","","","html-slider-response","43","186752","0.0-39.0","46xjsdxsl9","4","NaN","<div style=""width:500px;"">
                            <p style=""font-size:50px; font-weight:bold;""
                            >startling</p>
                            <div style=""width:240px; margin: auto;"">
                                <img src=""images/Y_D_U_10_lightshift.png"" style= ""width:200px""alt=""img"">
                            </div>
                        </div>","54","","0","images/Y_D_U_10_lightshift.png","","","","startling","2","Y","D","U","lightshift","",""
"","","","","","html-slider-response","44","188241","0.0-40.0","46xjsdxsl9","4","NaN","<div style=""width:500px;"">
                            <p style=""font-size:50px; font-weight:bold;""
                            >startling</p>
                            <div style=""width:240px; margin: auto;"">
                                <img src=""images/Y_D_U_10_darkshift.png"" style= ""width:200px""alt=""img"">
                            </div>
                        </div>","102","","0","images/Y_D_U_10_darkshift.png","","","","startling","2","Y","D","U","darkshift","",""
"","","","","","html-slider-response","45","190642","0.0-41.0","46xjsdxsl9","4","NaN","<div style=""width:500px;"">
                            <p style=""font-size:50px; font-weight:bold;""
                            >startling</p>
                            <div style=""width:240px; margin: auto;"">
                                <img src=""images/R_L_S_12_darkshift.png"" style= ""width:200px""alt=""img"">
                            </div>
                        </div>","-198","","0","images/R_L_S_12_darkshift.png","","","","startling","2","R","L","S","darkshift","",""
"","","","","","html-slider-response","46","192570","0.0-42.0","46xjsdxsl9","4","NaN","<div style=""width:500px;"">
                            <p style=""font-size:50px; font-weight:bold;""
                            >startling</p>
                            <div style=""width:240px; margin: auto;"">
                                <img src=""images/B_D_U_44_darkshift.png"" style= ""width:200px""alt=""img"">
                            </div>
                        </div>","-9","","0","images/B_D_U_44_darkshift.png","","","","startling","1","B","D","U","darkshift","",""
"","","","","","html-slider-response","47","194519","0.0-43.0","46xjsdxsl9","4","NaN","<div style=""width:500px;"">
                            <p style=""font-size:50px; font-weight:bold;""
                            >startling</p>
                            <div style=""width:240px; margin: auto;"">
                                <img src=""images/G_L_S_26_lightshift.png"" style= ""width:200px""alt=""img"">
                            </div>
                        </div>","-13","","0","images/G_L_S_26_lightshift.png","","","","startling","1","G","L","S","lightshift","",""
"","","","","","html-slider-response","48","195973","0.0-44.0","46xjsdxsl9","4","NaN","<div style=""width:500px;"">
                            <p style=""font-size:50px; font-weight:bold;""
                            >startling</p>
                            <div style=""width:240px; margin: auto;"">
                                <img src=""images/B_D_S_41_lightshift.png"" style= ""width:200px""alt=""img"">
                            </div>
                        </div>","-17","","0","images/B_D_S_41_lightshift.png","","","","startling","2","B","D","S","lightshift","",""
"","","","","","html-slider-response","49","197392","0.0-45.0","46xjsdxsl9","4","NaN","<div style=""width:500px;"">
                            <p style=""font-size:50px; font-weight:bold;""
                            >startling</p>
                            <div style=""width:240px; margin: auto;"">
                                <img src=""images/B_L_U_37_darkshift.png"" style= ""width:200px""alt=""img"">
                            </div>
                        </div>","-32","","0","images/B_L_U_37_darkshift.png","","","","startling","2","B","L","U","darkshift","",""
"","","","","","html-slider-response","50","199001","0.0-46.0","46xjsdxsl9","4","NaN","<div style=""width:500px;"">
                            <p style=""font-size:50px; font-weight:bold;""
                            >startling</p>
                            <div style=""width:240px; margin: auto;"">
                                <img src=""images/B_L_S_33_darkshift.png"" style= ""width:200px""alt=""img"">
                            </div>
                        </div>","-40","","0","images/B_L_S_33_darkshift.png","","","","startling","1","B","L","S","darkshift","",""
"","","","","","html-slider-response","51","200617","0.0-47.0","46xjsdxsl9","4","NaN","<div style=""width:500px;"">
                            <p style=""font-size:50px; font-weight:bold;""
                            >startling</p>
                            <div style=""width:240px; margin: auto;"">
                                <img src=""images/Y_L_U_5_darkshift.png"" style= ""width:200px""alt=""img"">
                            </div>
                        </div>","38","","0","images/Y_L_U_5_darkshift.png","","","","startling","2","Y","L","U","darkshift","",""
"","","","","","html-slider-response","52","203010","0.0-48.0","46xjsdxsl9","4","NaN","<div style=""width:500px;"">
                            <p style=""font-size:50px; font-weight:bold;""
                            >startling</p>
                            <div style=""width:240px; margin: auto;"">
                                <img src=""images/R_L_S_12_lightshift.png"" style= ""width:200px""alt=""img"">
                            </div>
                        </div>","-49","","0","images/R_L_S_12_lightshift.png","","","","startling","2","R","L","S","lightshift","",""
"","","","","","html-slider-response","53","204857","0.0-49.0","46xjsdxsl9","4","NaN","<div style=""width:500px;"">
                            <p style=""font-size:50px; font-weight:bold;""
                            >startling</p>
                            <div style=""width:240px; margin: auto;"">
                                <img src=""images/R_D_S_15_darkshift.png"" style= ""width:200px""alt=""img"">
                            </div>
                        </div>","9","","0","images/R_D_S_15_darkshift.png","","","","startling","2","R","D","S","darkshift","",""
"","","","","","html-slider-response","54","206488","0.0-50.0","46xjsdxsl9","4","NaN","<div style=""width:500px;"">
                            <p style=""font-size:50px; font-weight:bold;""
                            >startling</p>
                            <div style=""width:240px; margin: auto;"">
                                <img src=""images/B_L_S_33_lightshift.png"" style= ""width:200px""alt=""img"">
                            </div>
                        </div>","-26","","0","images/B_L_S_33_lightshift.png","","","","startling","1","B","L","S","lightshift","",""
"","","","","","html-slider-response","55","207938","0.0-51.0","46xjsdxsl9","4","NaN","<div style=""width:500px;"">
                            <p style=""font-size:50px; font-weight:bold;""
                            >startling</p>
                            <div style=""width:240px; margin: auto;"">
                                <img src=""images/G_D_S_28_lightshift.png"" style= ""width:200px""alt=""img"">
                            </div>
                        </div>","-18","","0","images/G_D_S_28_lightshift.png","","","","startling","2","G","D","S","lightshift","",""
"","","","","","html-slider-response","56","209316","0.0-52.0","46xjsdxsl9","4","NaN","<div style=""width:500px;"">
                            <p style=""font-size:50px; font-weight:bold;""
                            >startling</p>
                            <div style=""width:240px; margin: auto;"">
                                <img src=""images/B_D_U_44_lightshift.png"" style= ""width:200px""alt=""img"">
                            </div>
                        </div>","-27","","0","images/B_D_U_44_lightshift.png","","","","startling","2","B","D","U","lightshift","",""
"","","","","","html-slider-response","57","210997","0.0-53.0","46xjsdxsl9","4","NaN","<div style=""width:500px;"">
                            <p style=""font-size:50px; font-weight:bold;""
                            >startling</p>
                            <div style=""width:240px; margin: auto;"">
                                <img src=""images/B_D_S_41_darkshift.png"" style= ""width:200px""alt=""img"">
                            </div>
                        </div>","-19","","0","images/B_D_S_41_darkshift.png","","","","startling","2","B","D","S","darkshift","",""
"","","","","","html-slider-response","58","212668","0.0-54.0","46xjsdxsl9","4","NaN","<div style=""width:500px;"">
                            <p style=""font-size:50px; font-weight:bold;""
                            >startling</p>
                            <div style=""width:240px; margin: auto;"">
                                <img src=""images/G_L_U_27_lightshift.png"" style= ""width:200px""alt=""img"">
                            </div>
                        </div>","-34","","0","images/G_L_U_27_lightshift.png","","","","startling","2","G","L","U","lightshift","",""
"","","","","","html-slider-response","59","214268","0.0-55.0","46xjsdxsl9","4","NaN","<div style=""width:500px;"">
                            <p style=""font-size:50px; font-weight:bold;""
                            >startling</p>
                            <div style=""width:240px; margin: auto;"">
                                <img src=""images/R_D_U_23_darkshift.png"" style= ""width:200px""alt=""img"">
                            </div>
                        </div>","18","","0","images/R_D_U_23_darkshift.png","","","","startling","2","R","D","U","darkshift","",""
"","","","","","html-slider-response","60","215971","0.0-56.0","46xjsdxsl9","4","NaN","<div style=""width:500px;"">
                            <p style=""font-size:50px; font-weight:bold;""
                            >startling</p>
                            <div style=""width:240px; margin: auto;"">
                                <img src=""images/G_D_S_28_lightshift.png"" style= ""width:200px""alt=""img"">
                            </div>
                        </div>","-39","","0","images/G_D_S_28_lightshift.png","","","","startling","1","G","D","S","lightshift","",""
"","","","","","html-slider-response","61","217913","0.0-57.0","46xjsdxsl9","4","NaN","<div style=""width:500px;"">
                            <p style=""font-size:50px; font-weight:bold;""
                            >startling</p>
                            <div style=""width:240px; margin: auto;"">
                                <img src=""images/Y_D_S_7_darkshift.png"" style= ""width:200px""alt=""img"">
                            </div>
                        </div>","75","","0","images/Y_D_S_7_darkshift.png","","","","startling","1","Y","D","S","darkshift","",""
"","","","","","html-slider-response","62","219947","0.0-58.0","46xjsdxsl9","4","NaN","<div style=""width:500px;"">
                            <p style=""font-size:50px; font-weight:bold;""
                            >startling</p>
                            <div style=""width:240px; margin: auto;"">
                                <img src=""images/R_D_U_23_lightshift.png"" style= ""width:200px""alt=""img"">
                            </div>
                        </div>","-27","","0","images/R_D_U_23_lightshift.png","","","","startling","2","R","D","U","lightshift","",""
"","","","","","html-slider-response","63","221912","0.0-59.0","46xjsdxsl9","4","NaN","<div style=""width:500px;"">
                            <p style=""font-size:50px; font-weight:bold;""
                            >startling</p>
                            <div style=""width:240px; margin: auto;"">
                                <img src=""images/G_D_S_28_darkshift.png"" style= ""width:200px""alt=""img"">
                            </div>
                        </div>","70","","0","images/G_D_S_28_darkshift.png","","","","startling","2","G","D","S","darkshift","",""
"","","","","","html-slider-response","64","224196","0.0-60.0","46xjsdxsl9","4","NaN","<div style=""width:500px;"">
                            <p style=""font-size:50px; font-weight:bold;""
                            >startling</p>
                            <div style=""width:240px; margin: auto;"">
                                <img src=""images/Y_L_U_5_lightshift.png"" style= ""width:200px""alt=""img"">
                            </div>
                        </div>","67","","0","images/Y_L_U_5_lightshift.png","","","","startling","2","Y","L","U","lightshift","",""
"","","","","","html-slider-response","65","225622","0.0-61.0","46xjsdxsl9","4","NaN","<div style=""width:500px;"">
                            <p style=""font-size:50px; font-weight:bold;""
                            >startling</p>
                            <div style=""width:240px; margin: auto;"">
                                <img src=""images/G_L_U_27_darkshift.png"" style= ""width:200px""alt=""img"">
                            </div>
                        </div>","-78","","0","images/G_L_U_27_darkshift.png","","","","startling","1","G","L","U","darkshift","",""
"","","","","","html-slider-response","66","227782","0.0-62.0","46xjsdxsl9","4","NaN","<div style=""width:500px;"">
                            <p style=""font-size:50px; font-weight:bold;""
                            >startling</p>
                            <div style=""width:240px; margin: auto;"">
                                <img src=""images/G_D_U_30_darkshift.png"" style= ""width:200px""alt=""img"">
                            </div>
                        </div>","34","","0","images/G_D_U_30_darkshift.png","","","","startling","1","G","D","U","darkshift","",""
"","","","","","html-slider-response","67","229812","0.0-63.0","46xjsdxsl9","4","NaN","<div style=""width:500px;"">
                            <p style=""font-size:50px; font-weight:bold;""
                            >startling</p>
                            <div style=""width:240px; margin: auto;"">
                                <img src=""images/R_L_S_12_lightshift.png"" style= ""width:200px""alt=""img"">
                            </div>
                        </div>","-140","","0","images/R_L_S_12_lightshift.png","","","","startling","1","R","L","S","lightshift","",""
"","","","","","html-slider-response","68","231768","0.0-64.0","46xjsdxsl9","4","NaN","<div style=""width:500px;"">
                            <p style=""font-size:50px; font-weight:bold;""
                            >startling</p>
                            <div style=""width:240px; margin: auto;"">
                                <img src=""images/B_D_S_41_lightshift.png"" style= ""width:200px""alt=""img"">
                            </div>
                        </div>","-78","","0","images/B_D_S_41_lightshift.png","","","","startling","1","B","D","S","lightshift","",""
"","","","","","html-slider-response","69","233780","0.0-65.0","46xjsdxsl9","4","NaN","<div style=""width:500px;"">
                            <p style=""font-size:50px; font-weight:bold;""
                            >startling</p>
                            <div style=""width:240px; margin: auto;"">
                                <img src=""images/Y_L_S_2_darkshift.png"" style= ""width:200px""alt=""img"">
                            </div>
                        </div>","94","","0","images/Y_L_S_2_darkshift.png","","","","startling","1","Y","L","S","darkshift","",""
"","","","","","html-slider-response","70","235199","0.0-66.0","46xjsdxsl9","4","NaN","<div style=""width:500px;"">
                            <p style=""font-size:50px; font-weight:bold;""
                            >startling</p>
                            <div style=""width:240px; margin: auto;"">
                                <img src=""images/R_D_S_15_lightshift.png"" style= ""width:200px""alt=""img"">
                            </div>
                        </div>","-38","","0","images/R_D_S_15_lightshift.png","","","","startling","2","R","D","S","lightshift","",""
"","","","","","html-slider-response","71","236894","0.0-67.0","46xjsdxsl9","4","NaN","<div style=""width:500px;"">
                            <p style=""font-size:50px; font-weight:bold;""
                            >startling</p>
                            <div style=""width:240px; margin: auto;"">
                                <img src=""images/B_D_U_44_lightshift.png"" style= ""width:200px""alt=""img"">
                            </div>
                        </div>","38","","0","images/B_D_U_44_lightshift.png","","","","startling","1","B","D","U","lightshift","",""
"","","","","","html-slider-response","72","238708","0.0-68.0","46xjsdxsl9","4","NaN","<div style=""width:500px;"">
                            <p style=""font-size:50px; font-weight:bold;""
                            >startling</p>
                            <div style=""width:240px; margin: auto;"">
                                <img src=""images/R_L_U_13_lightshift.png"" style= ""width:200px""alt=""img"">
                            </div>
                        </div>","-87","","0","images/R_L_U_13_lightshift.png","","","","startling","2","R","L","U","lightshift","",""
"","","","","","html-slider-response","73","239849","0.0-69.0","46xjsdxsl9","4","NaN","<div style=""width:500px;"">
                            <p style=""font-size:50px; font-weight:bold;""
                            >startling</p>
                            <div style=""width:240px; margin: auto;"">
                                <img src=""images/B_L_U_37_lightshift.png"" style= ""width:200px""alt=""img"">
                            </div>
                        </div>","-87","","0","images/B_L_U_37_lightshift.png","","","","startling","1","B","L","U","lightshift","",""
"","","","","","html-slider-response","74","241106","0.0-70.0","46xjsdxsl9","4","NaN","<div style=""width:500px;"">
                            <p style=""font-size:50px; font-weight:bold;""
                            >startling</p>
                            <div style=""width:240px; margin: auto;"">
                                <img src=""images/R_L_U_13_darkshift.png"" style= ""width:200px""alt=""img"">
                            </div>
                        </div>","-86","","0","images/R_L_U_13_darkshift.png","","","","startling","2","R","L","U","darkshift","",""
"","","","","","html-slider-response","75","242314","0.0-71.0","46xjsdxsl9","4","NaN","<div style=""width:500px;"">
                            <p style=""font-size:50px; font-weight:bold;""
                            >startling</p>
                            <div style=""width:240px; margin: auto;"">
                                <img src=""images/G_L_U_27_lightshift.png"" style= ""width:200px""alt=""img"">
                            </div>
                        </div>","-86","","0","images/G_L_U_27_lightshift.png","","","","startling","1","G","L","U","lightshift","",""
"","","","","","html-slider-response","76","244935","0.0-72.0","46xjsdxsl9","4","NaN","<div style=""width:500px;"">
                            <p style=""font-size:50px; font-weight:bold;""
                            >startling</p>
                            <div style=""width:240px; margin: auto;"">
                                <img src=""images/G_D_S_28_darkshift.png"" style= ""width:200px""alt=""img"">
                            </div>
                        </div>","-16","","0","images/G_D_S_28_darkshift.png","","","","startling","1","G","D","S","darkshift","",""
"","","","","","html-slider-response","77","246498","0.0-73.0","46xjsdxsl9","4","NaN","<div style=""width:500px;"">
                            <p style=""font-size:50px; font-weight:bold;""
                            >startling</p>
                            <div style=""width:240px; margin: auto;"">
                                <img src=""images/G_L_S_26_darkshift.png"" style= ""width:200px""alt=""img"">
                            </div>
                        </div>","12","","0","images/G_L_S_26_darkshift.png","","","","startling","1","G","L","S","darkshift","",""
"","","","","","html-slider-response","78","248264","0.0-74.0","46xjsdxsl9","4","NaN","<div style=""width:500px;"">
                            <p style=""font-size:50px; font-weight:bold;""
                            >startling</p>
                            <div style=""width:240px; margin: auto;"">
                                <img src=""images/R_D_S_15_lightshift.png"" style= ""width:200px""alt=""img"">
                            </div>
                        </div>","-44","","0","images/R_D_S_15_lightshift.png","","","","startling","1","R","D","S","lightshift","",""
"","","","","","html-slider-response","79","249894","0.0-75.0","46xjsdxsl9","4","NaN","<div style=""width:500px;"">
                            <p style=""font-size:50px; font-weight:bold;""
                            >startling</p>
                            <div style=""width:240px; margin: auto;"">
                                <img src=""images/Y_D_S_7_lightshift.png"" style= ""width:200px""alt=""img"">
                            </div>
                        </div>","74","","0","images/Y_D_S_7_lightshift.png","","","","startling","2","Y","D","S","lightshift","",""
"","","","","","html-slider-response","80","251690","0.0-76.0","46xjsdxsl9","4","NaN","<div style=""width:500px;"">
                            <p style=""font-size:50px; font-weight:bold;""
                            >startling</p>
                            <div style=""width:240px; margin: auto;"">
                                <img src=""images/B_L_U_37_darkshift.png"" style= ""width:200px""alt=""img"">
                            </div>
                        </div>","-52","","0","images/B_L_U_37_darkshift.png","","","","startling","1","B","L","U","darkshift","",""
"","","","","","html-slider-response","81","253412","0.0-77.0","46xjsdxsl9","4","NaN","<div style=""width:500px;"">
                            <p style=""font-size:50px; font-weight:bold;""
                            >startling</p>
                            <div style=""width:240px; margin: auto;"">
                                <img src=""images/R_L_S_12_darkshift.png"" style= ""width:200px""alt=""img"">
                            </div>
                        </div>","-96","","0","images/R_L_S_12_darkshift.png","","","","startling","1","R","L","S","darkshift","",""
"","","","","","html-button-response","82","255825","0.0-78.0","46xjsdxsl9","4","1911","<p>Great Job! You've finished block 1.<br></br> You have 3 block(s) left to go.<br></br></p>","0","","","","","","","","","","","","","",""
"","","","","","html-button-response","83","257552","0.0-79.0","46xjsdxsl9","4","1726","<p>In this block of trials, you will be asked to rate how much you associate each map with:</p > <p style = 'font-size:150%; font-weight: bold'>negative</p><br></br>","0","","","","","","","","","","","","","",""
"","","","","","html-slider-response","84","259282","0.0-80.0","46xjsdxsl9","4","NaN","<div style=""width:500px;"">
                            <p style=""font-size:50px; font-weight:bold;""
                            >negative</p>
                            <div style=""width:240px; margin: auto;"">
                                <img src=""images/R_L_S_12_lightshift.png"" style= ""width:200px""alt=""img"">
                            </div>
                        </div>","-190","","0","images/R_L_S_12_lightshift.png","","","","negative","2","R","L","S","lightshift","",""
"","","","","","html-slider-response","85","261413","0.0-81.0","46xjsdxsl9","4","NaN","<div style=""width:500px;"">
                            <p style=""font-size:50px; font-weight:bold;""
                            >negative</p>
                            <div style=""width:240px; margin: auto;"">
                                <img src=""images/Y_L_U_5_darkshift.png"" style= ""width:200px""alt=""img"">
                            </div>
                        </div>","130","","0","images/Y_L_U_5_darkshift.png","","","","negative","1","Y","L","U","darkshift","",""
"","","","","","html-slider-response","86","263091","0.0-82.0","46xjsdxsl9","4","NaN","<div style=""width:500px;"">
                            <p style=""font-size:50px; font-weight:bold;""
                            >negative</p>
                            <div style=""width:240px; margin: auto;"">
                                <img src=""images/R_D_U_23_lightshift.png"" style= ""width:200px""alt=""img"">
                            </div>
                        </div>","-76","","0","images/R_D_U_23_lightshift.png","","","","negative","2","R","D","U","lightshift","",""
"","","","","","html-slider-response","87","264890","0.0-83.0","46xjsdxsl9","4","NaN","<div style=""width:500px;"">
                            <p style=""font-size:50px; font-weight:bold;""
                            >negative</p>
                            <div style=""width:240px; margin: auto;"">
                                <img src=""images/G_D_S_28_lightshift.png"" style= ""width:200px""alt=""img"">
                            </div>
                        </div>","-31","","0","images/G_D_S_28_lightshift.png","","","","negative","1","G","D","S","lightshift","",""
"","","","","","html-slider-response","88","267362","0.0-84.0","46xjsdxsl9","4","NaN","<div style=""width:500px;"">
                            <p style=""font-size:50px; font-weight:bold;""
                            >negative</p>
                            <div style=""width:240px; margin: auto;"">
                                <img src=""images/B_L_U_37_lightshift.png"" style= ""width:200px""alt=""img"">
                            </div>
                        </div>","-146","","0","images/B_L_U_37_lightshift.png","","","","negative","2","B","L","U","lightshift","",""
"","","","","","html-slider-response","89","269960","0.0-85.0","46xjsdxsl9","4","NaN","<div style=""width:500px;"">
                            <p style=""font-size:50px; font-weight:bold;""
                            >negative</p>
                            <div style=""width:240px; margin: auto;"">
                                <img src=""images/G_D_U_30_darkshift.png"" style= ""width:200px""alt=""img"">
                            </div>
                        </div>","161","","0","images/G_D_U_30_darkshift.png","","","","negative","2","G","D","U","darkshift","",""
"","","","","","html-slider-response","90","271672","0.0-86.0","46xjsdxsl9","4","NaN","<div style=""width:500px;"">
                            <p style=""font-size:50px; font-weight:bold;""
                            >negative</p>
                            <div style=""width:240px; margin: auto;"">
                                <img src=""images/B_L_U_37_darkshift.png"" style= ""width:200px""alt=""img"">
                            </div>
                        </div>","-29","","0","images/B_L_U_37_darkshift.png","","","","negative","1","B","L","U","darkshift","",""
"","","","","","html-slider-response","91","273462","0.0-87.0","46xjsdxsl9","4","NaN","<div style=""width:500px;"">
                            <p style=""font-size:50px; font-weight:bold;""
                            >negative</p>
                            <div style=""width:240px; margin: auto;"">
                                <img src=""images/B_L_U_37_lightshift.png"" style= ""width:200px""alt=""img"">
                            </div>
                        </div>","-111","","0","images/B_L_U_37_lightshift.png","","","","negative","1","B","L","U","lightshift","",""
"","","","","","html-slider-response","92","274839","0.0-88.0","46xjsdxsl9","4","NaN","<div style=""width:500px;"">
                            <p style=""font-size:50px; font-weight:bold;""
                            >negative</p>
                            <div style=""width:240px; margin: auto;"">
                                <img src=""images/B_D_S_41_darkshift.png"" style= ""width:200px""alt=""img"">
                            </div>
                        </div>","-106","","0","images/B_D_S_41_darkshift.png","","","","negative","2","B","D","S","darkshift","",""
"","","","","","html-slider-response","93","276702","0.0-89.0","46xjsdxsl9","4","NaN","<div style=""width:500px;"">
                            <p style=""font-size:50px; font-weight:bold;""
                            >negative</p>
                            <div style=""width:240px; margin: auto;"">
                                <img src=""images/Y_L_S_2_lightshift.png"" style= ""width:200px""alt=""img"">
                            </div>
                        </div>","134","","0","images/Y_L_S_2_lightshift.png","","","","negative","2","Y","L","S","lightshift","",""
"","","","","","html-slider-response","94","278770","0.0-90.0","46xjsdxsl9","4","NaN","<div style=""width:500px;"">
                            <p style=""font-size:50px; font-weight:bold;""
                            >negative</p>
                            <div style=""width:240px; margin: auto;"">
                                <img src=""images/G_D_S_28_darkshift.png"" style= ""width:200px""alt=""img"">
                            </div>
                        </div>","98","","0","images/G_D_S_28_darkshift.png","","","","negative","1","G","D","S","darkshift","",""
"","","","","","html-slider-response","95","280528","0.0-91.0","46xjsdxsl9","4","NaN","<div style=""width:500px;"">
                            <p style=""font-size:50px; font-weight:bold;""
                            >negative</p>
                            <div style=""width:240px; margin: auto;"">
                                <img src=""images/Y_D_S_7_darkshift.png"" style= ""width:200px""alt=""img"">
                            </div>
                        </div>","176","","0","images/Y_D_S_7_darkshift.png","","","","negative","2","Y","D","S","darkshift","",""
"","","","","","html-slider-response","96","282674","0.0-92.0","46xjsdxsl9","4","NaN","<div style=""width:500px;"">
                            <p style=""font-size:50px; font-weight:bold;""
                            >negative</p>
                            <div style=""width:240px; margin: auto;"">
                                <img src=""images/Y_L_U_5_lightshift.png"" style= ""width:200px""alt=""img"">
                            </div>
                        </div>","47","","0","images/Y_L_U_5_lightshift.png","","","","negative","1","Y","L","U","lightshift","",""
"","","","","","html-slider-response","97","284315","0.0-93.0","46xjsdxsl9","4","NaN","<div style=""width:500px;"">
                            <p style=""font-size:50px; font-weight:bold;""
                            >negative</p>
                            <div style=""width:240px; margin: auto;"">
                                <img src=""images/Y_D_S_7_lightshift.png"" style= ""width:200px""alt=""img"">
                            </div>
                        </div>","163","","0","images/Y_D_S_7_lightshift.png","","","","negative","2","Y","D","S","lightshift","",""
"","","","","","html-slider-response","98","286541","0.0-94.0","46xjsdxsl9","4","NaN","<div style=""width:500px;"">
                            <p style=""font-size:50px; font-weight:bold;""
                            >negative</p>
                            <div style=""width:240px; margin: auto;"">
                                <img src=""images/R_L_S_12_darkshift.png"" style= ""width:200px""alt=""img"">
                            </div>
                        </div>","-181","","0","images/R_L_S_12_darkshift.png","","","","negative","2","R","L","S","darkshift","",""
"","","","","","html-slider-response","99","288313","0.0-95.0","46xjsdxsl9","4","NaN","<div style=""width:500px;"">
                            <p style=""font-size:50px; font-weight:bold;""
                            >negative</p>
                            <div style=""width:240px; margin: auto;"">
                                <img src=""images/B_D_S_41_darkshift.png"" style= ""width:200px""alt=""img"">
                            </div>
                        </div>","-170","","0","images/B_D_S_41_darkshift.png","","","","negative","1","B","D","S","darkshift","",""
"","","","","","html-slider-response","100","290207","0.0-96.0","46xjsdxsl9","4","NaN","<div style=""width:500px;"">
                            <p style=""font-size:50px; font-weight:bold;""
                            >negative</p>
                            <div style=""width:240px; margin: auto;"">
                                <img src=""images/R_D_S_15_darkshift.png"" style= ""width:200px""alt=""img"">
                            </div>
                        </div>","-177","","0","images/R_D_S_15_darkshift.png","","","","negative","1","R","D","S","darkshift","",""
"","","","","","html-slider-response","101","291697","0.0-97.0","46xjsdxsl9","4","NaN","<div style=""width:500px;"">
                            <p style=""font-size:50px; font-weight:bold;""
                            >negative</p>
                            <div style=""width:240px; margin: auto;"">
                                <img src=""images/G_L_S_26_darkshift.png"" style= ""width:200px""alt=""img"">
                            </div>
                        </div>","-171","","0","images/G_L_S_26_darkshift.png","","","","negative","2","G","L","S","darkshift","",""
"","","","","","html-slider-response","102","293511","0.0-98.0","46xjsdxsl9","4","NaN","<div style=""width:500px;"">
                            <p style=""font-size:50px; font-weight:bold;""
                            >negative</p>
                            <div style=""width:240px; margin: auto;"">
                                <img src=""images/Y_L_U_5_darkshift.png"" style= ""width:200px""alt=""img"">
                            </div>
                        </div>","174","","0","images/Y_L_U_5_darkshift.png","","","","negative","2","Y","L","U","darkshift","",""
"","","","","","html-slider-response","103","296102","0.0-99.0","46xjsdxsl9","4","NaN","<div style=""width:500px;"">
                            <p style=""font-size:50px; font-weight:bold;""
                            >negative</p>
                            <div style=""width:240px; margin: auto;"">
                                <img src=""images/Y_D_U_10_darkshift.png"" style= ""width:200px""alt=""img"">
                            </div>
                        </div>","190","","0","images/Y_D_U_10_darkshift.png","","","","negative","1","Y","D","U","darkshift","",""
"","","","","","html-slider-response","104","297861","0.0-100.0","46xjsdxsl9","4","NaN","<div style=""width:500px;"">
                            <p style=""font-size:50px; font-weight:bold;""
                            >negative</p>
                            <div style=""width:240px; margin: auto;"">
                                <img src=""images/G_L_U_27_lightshift.png"" style= ""width:200px""alt=""img"">
                            </div>
                        </div>","-126","","0","images/G_L_U_27_lightshift.png","","","","negative","1","G","L","U","lightshift","",""
"","","","","","html-slider-response","105","300039","0.0-101.0","46xjsdxsl9","4","NaN","<div style=""width:500px;"">
                            <p style=""font-size:50px; font-weight:bold;""
                            >negative</p>
                            <div style=""width:240px; margin: auto;"">
                                <img src=""images/Y_D_U_10_darkshift.png"" style= ""width:200px""alt=""img"">
                            </div>
                        </div>","197","","0","images/Y_D_U_10_darkshift.png","","","","negative","2","Y","D","U","darkshift","",""
"","","","","","html-slider-response","106","302169","0.0-102.0","46xjsdxsl9","4","NaN","<div style=""width:500px;"">
                            <p style=""font-size:50px; font-weight:bold;""
                            >negative</p>
                            <div style=""width:240px; margin: auto;"">
                                <img src=""images/B_D_S_41_lightshift.png"" style= ""width:200px""alt=""img"">
                            </div>
                        </div>","-118","","0","images/B_D_S_41_lightshift.png","","","","negative","1","B","D","S","lightshift","",""
"","","","","","html-slider-response","107","303507","0.0-103.0","46xjsdxsl9","4","NaN","<div style=""width:500px;"">
                            <p style=""font-size:50px; font-weight:bold;""
                            >negative</p>
                            <div style=""width:240px; margin: auto;"">
                                <img src=""images/B_D_U_44_lightshift.png"" style= ""width:200px""alt=""img"">
                            </div>
                        </div>","-106","","0","images/B_D_U_44_lightshift.png","","","","negative","1","B","D","U","lightshift","",""
"","","","","","html-slider-response","108","305918","0.0-104.0","46xjsdxsl9","4","NaN","<div style=""width:500px;"">
                            <p style=""font-size:50px; font-weight:bold;""
                            >negative</p>
                            <div style=""width:240px; margin: auto;"">
                                <img src=""images/Y_L_S_2_darkshift.png"" style= ""width:200px""alt=""img"">
                            </div>
                        </div>","107","","0","images/Y_L_S_2_darkshift.png","","","","negative","2","Y","L","S","darkshift","",""
"","","","","","html-slider-response","109","307707","0.0-105.0","46xjsdxsl9","4","NaN","<div style=""width:500px;"">
                            <p style=""font-size:50px; font-weight:bold;""
                            >negative</p>
                            <div style=""width:240px; margin: auto;"">
                                <img src=""images/G_D_U_30_lightshift.png"" style= ""width:200px""alt=""img"">
                            </div>
                        </div>","-117","","0","images/G_D_U_30_lightshift.png","","","","negative","2","G","D","U","lightshift","",""
"","","","","","html-slider-response","110","309703","0.0-106.0","46xjsdxsl9","4","NaN","<div style=""width:500px;"">
                            <p style=""font-size:50px; font-weight:bold;""
                            >negative</p>
                            <div style=""width:240px; margin: auto;"">
                                <img src=""images/B_D_U_44_darkshift.png"" style= ""width:200px""alt=""img"">
                            </div>
                        </div>","-83","","0","images/B_D_U_44_darkshift.png","","","","negative","2","B","D","U","darkshift","",""
"","","","","","html-slider-response","111","311430","0.0-107.0","46xjsdxsl9","4","NaN","<div style=""width:500px;"">
                            <p style=""font-size:50px; font-weight:bold;""
                            >negative</p>
                            <div style=""width:240px; margin: auto;"">
                                <img src=""images/R_L_U_13_lightshift.png"" style= ""width:200px""alt=""img"">
                            </div>
                        </div>","-180","","0","images/R_L_U_13_lightshift.png","","","","negative","2","R","L","U","lightshift","",""
"","","","","","html-slider-response","112","313093","0.0-108.0","46xjsdxsl9","4","NaN","<div style=""width:500px;"">
                            <p style=""font-size:50px; font-weight:bold;""
                            >negative</p>
                            <div style=""width:240px; margin: auto;"">
                                <img src=""images/R_L_U_13_darkshift.png"" style= ""width:200px""alt=""img"">
                            </div>
                        </div>","-190","","0","images/R_L_U_13_darkshift.png","","","","negative","1","R","L","U","darkshift","",""
"","","","","","html-slider-response","113","314797","0.0-109.0","46xjsdxsl9","4","NaN","<div style=""width:500px;"">
                            <p style=""font-size:50px; font-weight:bold;""
                            >negative</p>
                            <div style=""width:240px; margin: auto;"">
                                <img src=""images/G_L_S_26_lightshift.png"" style= ""width:200px""alt=""img"">
                            </div>
                        </div>","100","","0","images/G_L_S_26_lightshift.png","","","","negative","2","G","L","S","lightshift","",""
"","","","","","html-slider-response","114","317387","0.0-110.0","46xjsdxsl9","4","NaN","<div style=""width:500px;"">
                            <p style=""font-size:50px; font-weight:bold;""
                            >negative</p>
                            <div style=""width:240px; margin: auto;"">
                                <img src=""images/R_L_S_12_darkshift.png"" style= ""width:200px""alt=""img"">
                            </div>
                        </div>","-194","","0","images/R_L_S_12_darkshift.png","","","","negative","1","R","L","S","darkshift","",""
"","","","","","html-slider-response","115","319216","0.0-111.0","46xjsdxsl9","4","NaN","<div style=""width:500px;"">
                            <p style=""font-size:50px; font-weight:bold;""
                            >negative</p>
                            <div style=""width:240px; margin: auto;"">
                                <img src=""images/G_D_U_30_lightshift.png"" style= ""width:200px""alt=""img"">
                            </div>
                        </div>","-102","","0","images/G_D_U_30_lightshift.png","","","","negative","1","G","D","U","lightshift","",""
"","","","","","html-slider-response","116","321323","0.0-112.0","46xjsdxsl9","4","NaN","<div style=""width:500px;"">
                            <p style=""font-size:50px; font-weight:bold;""
                            >negative</p>
                            <div style=""width:240px; margin: auto;"">
                                <img src=""images/R_D_U_23_darkshift.png"" style= ""width:200px""alt=""img"">
                            </div>
                        </div>","26","","0","images/R_D_U_23_darkshift.png","","","","negative","1","R","D","U","darkshift","",""
"","","","","","html-slider-response","117","323359","0.0-113.0","46xjsdxsl9","4","NaN","<div style=""width:500px;"">
                            <p style=""font-size:50px; font-weight:bold;""
                            >negative</p>
                            <div style=""width:240px; margin: auto;"">
                                <img src=""images/B_L_S_33_darkshift.png"" style= ""width:200px""alt=""img"">
                            </div>
                        </div>","-105","","0","images/B_L_S_33_darkshift.png","","","","negative","2","B","L","S","darkshift","",""
"","","","","","html-slider-response","118","324905","0.0-114.0","46xjsdxsl9","4","NaN","<div style=""width:500px;"">
                            <p style=""font-size:50px; font-weight:bold;""
                            >negative</p>
                            <div style=""width:240px; margin: auto;"">
                                <img src=""images/R_L_U_13_lightshift.png"" style= ""width:200px""alt=""img"">
                            </div>
                        </div>","-109","","0","images/R_L_U_13_lightshift.png","","","","negative","1","R","L","U","lightshift","",""
"","","","","","html-slider-response","119","327152","0.0-115.0","46xjsdxsl9","4","NaN","<div style=""width:500px;"">
                            <p style=""font-size:50px; font-weight:bold;""
                            >negative</p>
                            <div style=""width:240px; margin: auto;"">
                                <img src=""images/R_D_S_15_darkshift.png"" style= ""width:200px""alt=""img"">
                            </div>
                        </div>","-175","","0","images/R_D_S_15_darkshift.png","","","","negative","2","R","D","S","darkshift","",""
"","","","","","html-slider-response","120","328881","0.0-116.0","46xjsdxsl9","4","NaN","<div style=""width:500px;"">
                            <p style=""font-size:50px; font-weight:bold;""
                            >negative</p>
                            <div style=""width:240px; margin: auto;"">
                                <img src=""images/G_L_U_27_darkshift.png"" style= ""width:200px""alt=""img"">
                            </div>
                        </div>","-79","","0","images/G_L_U_27_darkshift.png","","","","negative","2","G","L","U","darkshift","",""
"","","","","","html-slider-response","121","330425","0.0-117.0","46xjsdxsl9","4","NaN","<div style=""width:500px;"">
                            <p style=""font-size:50px; font-weight:bold;""
                            >negative</p>
                            <div style=""width:240px; margin: auto;"">
                                <img src=""images/R_D_U_23_darkshift.png"" style= ""width:200px""alt=""img"">
                            </div>
                        </div>","-80","","0","images/R_D_U_23_darkshift.png","","","","negative","2","R","D","U","darkshift","",""
"","","","","","html-slider-response","122","332619","0.0-118.0","46xjsdxsl9","4","NaN","<div style=""width:500px;"">
                            <p style=""font-size:50px; font-weight:bold;""
                            >negative</p>
                            <div style=""width:240px; margin: auto;"">
                                <img src=""images/Y_D_U_10_lightshift.png"" style= ""width:200px""alt=""img"">
                            </div>
                        </div>","178","","0","images/Y_D_U_10_lightshift.png","","","","negative","1","Y","D","U","lightshift","",""
"","","","","","html-slider-response","123","334409","0.0-119.0","46xjsdxsl9","4","NaN","<div style=""width:500px;"">
                            <p style=""font-size:50px; font-weight:bold;""
                            >negative</p>
                            <div style=""width:240px; margin: auto;"">
                                <img src=""images/G_D_S_28_lightshift.png"" style= ""width:200px""alt=""img"">
                            </div>
                        </div>","-79","","0","images/G_D_S_28_lightshift.png","","","","negative","2","G","D","S","lightshift","",""
"","","","","","html-slider-response","124","336517","0.0-120.0","46xjsdxsl9","4","NaN","<div style=""width:500px;"">
                            <p style=""font-size:50px; font-weight:bold;""
                            >negative</p>
                            <div style=""width:240px; margin: auto;"">
                                <img src=""images/R_D_S_15_lightshift.png"" style= ""width:200px""alt=""img"">
                            </div>
                        </div>","-175","","0","images/R_D_S_15_lightshift.png","","","","negative","1","R","D","S","lightshift","",""
"","","","","","html-slider-response","125","339193","0.0-121.0","46xjsdxsl9","4","NaN","<div style=""width:500px;"">
                            <p style=""font-size:50px; font-weight:bold;""
                            >negative</p>
                            <div style=""width:240px; margin: auto;"">
                                <img src=""images/G_D_U_30_darkshift.png"" style= ""width:200px""alt=""img"">
                            </div>
                        </div>","-14","","0","images/G_D_U_30_darkshift.png","","","","negative","1","G","D","U","darkshift","",""
"","","","","","html-slider-response","126","341167","0.0-122.0","46xjsdxsl9","4","NaN","<div style=""width:500px;"">
                            <p style=""font-size:50px; font-weight:bold;""
                            >negative</p>
                            <div style=""width:240px; margin: auto;"">
                                <img src=""images/Y_L_U_5_lightshift.png"" style= ""width:200px""alt=""img"">
                            </div>
                        </div>","128","","0","images/Y_L_U_5_lightshift.png","","","","negative","2","Y","L","U","lightshift","",""
"","","","","","html-slider-response","127","343639","0.0-123.0","46xjsdxsl9","4","NaN","<div style=""width:500px;"">
                            <p style=""font-size:50px; font-weight:bold;""
                            >negative</p>
                            <div style=""width:240px; margin: auto;"">
                                <img src=""images/Y_D_S_7_darkshift.png"" style= ""width:200px""alt=""img"">
                            </div>
                        </div>","193","","0","images/Y_D_S_7_darkshift.png","","","","negative","1","Y","D","S","darkshift","",""
"","","","","","html-slider-response","128","345801","0.0-124.0","46xjsdxsl9","4","NaN","<div style=""width:500px;"">
                            <p style=""font-size:50px; font-weight:bold;""
                            >negative</p>
                            <div style=""width:240px; margin: auto;"">
                                <img src=""images/B_D_S_41_lightshift.png"" style= ""width:200px""alt=""img"">
                            </div>
                        </div>","-132","","0","images/B_D_S_41_lightshift.png","","","","negative","2","B","D","S","lightshift","",""
"","","","","","html-slider-response","129","347749","0.0-125.0","46xjsdxsl9","4","NaN","<div style=""width:500px;"">
                            <p style=""font-size:50px; font-weight:bold;""
                            >negative</p>
                            <div style=""width:240px; margin: auto;"">
                                <img src=""images/Y_L_S_2_lightshift.png"" style= ""width:200px""alt=""img"">
                            </div>
                        </div>","154","","0","images/Y_L_S_2_lightshift.png","","","","negative","1","Y","L","S","lightshift","",""
"","","","","","html-slider-response","130","349477","0.0-126.0","46xjsdxsl9","4","NaN","<div style=""width:500px;"">
                            <p style=""font-size:50px; font-weight:bold;""
                            >negative</p>
                            <div style=""width:240px; margin: auto;"">
                                <img src=""images/B_L_S_33_lightshift.png"" style= ""width:200px""alt=""img"">
                            </div>
                        </div>","-84","","0","images/B_L_S_33_lightshift.png","","","","negative","2","B","L","S","lightshift","",""
"","","","","","html-slider-response","131","351186","0.0-127.0","46xjsdxsl9","4","NaN","<div style=""width:500px;"">
                            <p style=""font-size:50px; font-weight:bold;""
                            >negative</p>
                            <div style=""width:240px; margin: auto;"">
                                <img src=""images/B_L_S_33_darkshift.png"" style= ""width:200px""alt=""img"">
                            </div>
                        </div>","-98","","0","images/B_L_S_33_darkshift.png","","","","negative","1","B","L","S","darkshift","",""
"","","","","","html-slider-response","132","352678","0.0-128.0","46xjsdxsl9","4","NaN","<div style=""width:500px;"">
                            <p style=""font-size:50px; font-weight:bold;""
                            >negative</p>
                            <div style=""width:240px; margin: auto;"">
                                <img src=""images/G_L_U_27_lightshift.png"" style= ""width:200px""alt=""img"">
                            </div>
                        </div>","-122","","0","images/G_L_U_27_lightshift.png","","","","negative","2","G","L","U","lightshift","",""
"","","","","","html-slider-response","133","354784","0.0-129.0","46xjsdxsl9","4","NaN","<div style=""width:500px;"">
                            <p style=""font-size:50px; font-weight:bold;""
                            >negative</p>
                            <div style=""width:240px; margin: auto;"">
                                <img src=""images/Y_D_S_7_lightshift.png"" style= ""width:200px""alt=""img"">
                            </div>
                        </div>","189","","0","images/Y_D_S_7_lightshift.png","","","","negative","1","Y","D","S","lightshift","",""
"","","","","","html-slider-response","134","356494","0.0-130.0","46xjsdxsl9","4","NaN","<div style=""width:500px;"">
                            <p style=""font-size:50px; font-weight:bold;""
                            >negative</p>
                            <div style=""width:240px; margin: auto;"">
                                <img src=""images/Y_D_U_10_lightshift.png"" style= ""width:200px""alt=""img"">
                            </div>
                        </div>","166","","0","images/Y_D_U_10_lightshift.png","","","","negative","2","Y","D","U","lightshift","",""
"","","","","","html-slider-response","135","358142","0.0-131.0","46xjsdxsl9","4","NaN","<div style=""width:500px;"">
                            <p style=""font-size:50px; font-weight:bold;""
                            >negative</p>
                            <div style=""width:240px; margin: auto;"">
                                <img src=""images/Y_L_S_2_darkshift.png"" style= ""width:200px""alt=""img"">
                            </div>
                        </div>","193","","0","images/Y_L_S_2_darkshift.png","","","","negative","1","Y","L","S","darkshift","",""
"","","","","","html-slider-response","136","359937","0.0-132.0","46xjsdxsl9","4","NaN","<div style=""width:500px;"">
                            <p style=""font-size:50px; font-weight:bold;""
                            >negative</p>
                            <div style=""width:240px; margin: auto;"">
                                <img src=""images/B_D_U_44_darkshift.png"" style= ""width:200px""alt=""img"">
                            </div>
                        </div>","-86","","0","images/B_D_U_44_darkshift.png","","","","negative","1","B","D","U","darkshift","",""
"","","","","","html-slider-response","137","361517","0.0-133.0","46xjsdxsl9","4","NaN","<div style=""width:500px;"">
                            <p style=""font-size:50px; font-weight:bold;""
                            >negative</p>
                            <div style=""width:240px; margin: auto;"">
                                <img src=""images/R_L_U_13_darkshift.png"" style= ""width:200px""alt=""img"">
                            </div>
                        </div>","-175","","0","images/R_L_U_13_darkshift.png","","","","negative","2","R","L","U","darkshift","",""
"","","","","","html-slider-response","138","363236","0.0-134.0","46xjsdxsl9","4","NaN","<div style=""width:500px;"">
                            <p style=""font-size:50px; font-weight:bold;""
                            >negative</p>
                            <div style=""width:240px; margin: auto;"">
                                <img src=""images/R_D_S_15_lightshift.png"" style= ""width:200px""alt=""img"">
                            </div>
                        </div>","-171","","0","images/R_D_S_15_lightshift.png","","","","negative","2","R","D","S","lightshift","",""
"","","","","","html-slider-response","139","364519","0.0-135.0","46xjsdxsl9","4","NaN","<div style=""width:500px;"">
                            <p style=""font-size:50px; font-weight:bold;""
                            >negative</p>
                            <div style=""width:240px; margin: auto;"">
                                <img src=""images/R_L_S_12_lightshift.png"" style= ""width:200px""alt=""img"">
                            </div>
                        </div>","-186","","0","images/R_L_S_12_lightshift.png","","","","negative","1","R","L","S","lightshift","",""
"","","","","","html-slider-response","140","366205","0.0-136.0","46xjsdxsl9","4","NaN","<div style=""width:500px;"">
                            <p style=""font-size:50px; font-weight:bold;""
                            >negative</p>
                            <div style=""width:240px; margin: auto;"">
                                <img src=""images/G_D_S_28_darkshift.png"" style= ""width:200px""alt=""img"">
                            </div>
                        </div>","-61","","0","images/G_D_S_28_darkshift.png","","","","negative","2","G","D","S","darkshift","",""
"","","","","","html-slider-response","141","367608","0.0-137.0","46xjsdxsl9","4","NaN","<div style=""width:500px;"">
                            <p style=""font-size:50px; font-weight:bold;""
                            >negative</p>
                            <div style=""width:240px; margin: auto;"">
                                <img src=""images/G_L_S_26_darkshift.png"" style= ""width:200px""alt=""img"">
                            </div>
                        </div>","-67","","0","images/G_L_S_26_darkshift.png","","","","negative","1","G","L","S","darkshift","",""
"","","","","","html-slider-response","142","368646","0.0-138.0","46xjsdxsl9","4","NaN","<div style=""width:500px;"">
                            <p style=""font-size:50px; font-weight:bold;""
                            >negative</p>
                            <div style=""width:240px; margin: auto;"">
                                <img src=""images/G_L_S_26_lightshift.png"" style= ""width:200px""alt=""img"">
                            </div>
                        </div>","-67","","0","images/G_L_S_26_lightshift.png","","","","negative","1","G","L","S","lightshift","",""
"","","","","","html-slider-response","143","369706","0.0-139.0","46xjsdxsl9","4","NaN","<div style=""width:500px;"">
                            <p style=""font-size:50px; font-weight:bold;""
                            >negative</p>
                            <div style=""width:240px; margin: auto;"">
                                <img src=""images/G_L_U_27_darkshift.png"" style= ""width:200px""alt=""img"">
                            </div>
                        </div>","-67","","0","images/G_L_U_27_darkshift.png","","","","negative","1","G","L","U","darkshift","",""
"","","","","","html-slider-response","144","370791","0.0-140.0","46xjsdxsl9","4","NaN","<div style=""width:500px;"">
                            <p style=""font-size:50px; font-weight:bold;""
                            >negative</p>
                            <div style=""width:240px; margin: auto;"">
                                <img src=""images/B_L_S_33_lightshift.png"" style= ""width:200px""alt=""img"">
                            </div>
                        </div>","-67","","0","images/B_L_S_33_lightshift.png","","","","negative","1","B","L","S","lightshift","",""
"","","","","","html-slider-response","145","371798","0.0-141.0","46xjsdxsl9","4","NaN","<div style=""width:500px;"">
                            <p style=""font-size:50px; font-weight:bold;""
                            >negative</p>
                            <div style=""width:240px; margin: auto;"">
                                <img src=""images/B_D_U_44_lightshift.png"" style= ""width:200px""alt=""img"">
                            </div>
                        </div>","-78","","0","images/B_D_U_44_lightshift.png","","","","negative","2","B","D","U","lightshift","",""
"","","","","","html-slider-response","146","373026","0.0-142.0","46xjsdxsl9","4","NaN","<div style=""width:500px;"">
                            <p style=""font-size:50px; font-weight:bold;""
                            >negative</p>
                            <div style=""width:240px; margin: auto;"">
                                <img src=""images/B_L_U_37_darkshift.png"" style= ""width:200px""alt=""img"">
                            </div>
                        </div>","-80","","0","images/B_L_U_37_darkshift.png","","","","negative","2","B","L","U","darkshift","",""
"","","","","","html-slider-response","147","374229","0.0-143.0","46xjsdxsl9","4","NaN","<div style=""width:500px;"">
                            <p style=""font-size:50px; font-weight:bold;""
                            >negative</p>
                            <div style=""width:240px; margin: auto;"">
                                <img src=""images/R_D_U_23_lightshift.png"" style= ""width:200px""alt=""img"">
                            </div>
                        </div>","-99","","0","images/R_D_U_23_lightshift.png","","","","negative","1","R","D","U","lightshift","",""
"","","","","","html-button-response","148","376086","0.0-144.0","46xjsdxsl9","4","1355","<p>Great Job! You've finished block 2.<br></br> You have 2 block(s) left to go.<br></br></p>","0","","","","","","","","","","","","","",""
"","","","","","html-button-response","149","376952","0.0-145.0","46xjsdxsl9","4","865","<p>In this block of trials, you will be asked to rate how much you associate each map with:</p > <p style = 'font-size:150%; font-weight: bold'>calm</p><br></br>","0","","","","","","","","","","","","","",""
"","","","","","html-slider-response","150","380987","0.0-146.0","46xjsdxsl9","4","NaN","<div style=""width:500px;"">
                            <p style=""font-size:50px; font-weight:bold;""
                            >calm</p>
                            <div style=""width:240px; margin: auto;"">
                                <img src=""images/R_L_S_12_lightshift.png"" style= ""width:200px""alt=""img"">
                            </div>
                        </div>","-34","","0","images/R_L_S_12_lightshift.png","","","","calm","1","R","L","S","lightshift","",""
"","","","","","html-slider-response","151","382722","0.0-147.0","46xjsdxsl9","4","NaN","<div style=""width:500px;"">
                            <p style=""font-size:50px; font-weight:bold;""
                            >calm</p>
                            <div style=""width:240px; margin: auto;"">
                                <img src=""images/G_L_U_27_lightshift.png"" style= ""width:200px""alt=""img"">
                            </div>
                        </div>","47","","0","images/G_L_U_27_lightshift.png","","","","calm","1","G","L","U","lightshift","",""
"","","","","","html-slider-response","152","384986","0.0-148.0","46xjsdxsl9","4","NaN","<div style=""width:500px;"">
                            <p style=""font-size:50px; font-weight:bold;""
                            >calm</p>
                            <div style=""width:240px; margin: auto;"">
                                <img src=""images/Y_D_U_10_darkshift.png"" style= ""width:200px""alt=""img"">
                            </div>
                        </div>","-94","","0","images/Y_D_U_10_darkshift.png","","","","calm","1","Y","D","U","darkshift","",""
"","","","","","html-slider-response","153","387261","0.0-149.0","46xjsdxsl9","4","NaN","<div style=""width:500px;"">
                            <p style=""font-size:50px; font-weight:bold;""
                            >calm</p>
                            <div style=""width:240px; margin: auto;"">
                                <img src=""images/R_D_S_15_darkshift.png"" style= ""width:200px""alt=""img"">
                            </div>
                        </div>","-23","","0","images/R_D_S_15_darkshift.png","","","","calm","1","R","D","S","darkshift","",""
"","","","","","html-slider-response","154","389162","0.0-150.0","46xjsdxsl9","4","NaN","<div style=""width:500px;"">
                            <p style=""font-size:50px; font-weight:bold;""
                            >calm</p>
                            <div style=""width:240px; margin: auto;"">
                                <img src=""images/R_L_U_13_lightshift.png"" style= ""width:200px""alt=""img"">
                            </div>
                        </div>","72","","0","images/R_L_U_13_lightshift.png","","","","calm","1","R","L","U","lightshift","",""
"","","","","","html-slider-response","155","390699","0.0-151.0","46xjsdxsl9","4","NaN","<div style=""width:500px;"">
                            <p style=""font-size:50px; font-weight:bold;""
                            >calm</p>
                            <div style=""width:240px; margin: auto;"">
                                <img src=""images/B_D_S_41_lightshift.png"" style= ""width:200px""alt=""img"">
                            </div>
                        </div>","147","","0","images/B_D_S_41_lightshift.png","","","","calm","1","B","D","S","lightshift","",""
"","","","","","html-slider-response","156","392473","0.0-152.0","46xjsdxsl9","4","NaN","<div style=""width:500px;"">
                            <p style=""font-size:50px; font-weight:bold;""
                            >calm</p>
                            <div style=""width:240px; margin: auto;"">
                                <img src=""images/G_D_S_28_lightshift.png"" style= ""width:200px""alt=""img"">
                            </div>
                        </div>","176","","0","images/G_D_S_28_lightshift.png","","","","calm","2","G","D","S","lightshift","",""
"","","","","","html-slider-response","157","393715","0.0-153.0","46xjsdxsl9","4","NaN","<div style=""width:500px;"">
                            <p style=""font-size:50px; font-weight:bold;""
                            >calm</p>
                            <div style=""width:240px; margin: auto;"">
                                <img src=""images/G_D_S_28_darkshift.png"" style= ""width:200px""alt=""img"">
                            </div>
                        </div>","167","","0","images/G_D_S_28_darkshift.png","","","","calm","1","G","D","S","darkshift","",""
"","","","","","html-slider-response","158","394819","0.0-154.0","46xjsdxsl9","4","NaN","<div style=""width:500px;"">
                            <p style=""font-size:50px; font-weight:bold;""
                            >calm</p>
                            <div style=""width:240px; margin: auto;"">
                                <img src=""images/B_D_U_44_darkshift.png"" style= ""width:200px""alt=""img"">
                            </div>
                        </div>","166","","0","images/B_D_U_44_darkshift.png","","","","calm","1","B","D","U","darkshift","",""
"","","","","","html-slider-response","159","396876","0.0-155.0","46xjsdxsl9","4","NaN","<div style=""width:500px;"">
                            <p style=""font-size:50px; font-weight:bold;""
                            >calm</p>
                            <div style=""width:240px; margin: auto;"">
                                <img src=""images/R_L_U_13_lightshift.png"" style= ""width:200px""alt=""img"">
                            </div>
                        </div>","23","","0","images/R_L_U_13_lightshift.png","","","","calm","2","R","L","U","lightshift","",""
"","","","","","html-slider-response","160","398912","0.0-156.0","46xjsdxsl9","4","NaN","<div style=""width:500px;"">
                            <p style=""font-size:50px; font-weight:bold;""
                            >calm</p>
                            <div style=""width:240px; margin: auto;"">
                                <img src=""images/Y_L_U_5_darkshift.png"" style= ""width:200px""alt=""img"">
                            </div>
                        </div>","-133","","0","images/Y_L_U_5_darkshift.png","","","","calm","1","Y","L","U","darkshift","",""
"","","","","","html-slider-response","161","400718","0.0-157.0","46xjsdxsl9","4","NaN","<div style=""width:500px;"">
                            <p style=""font-size:50px; font-weight:bold;""
                            >calm</p>
                            <div style=""width:240px; margin: auto;"">
                                <img src=""images/Y_D_S_7_lightshift.png"" style= ""width:200px""alt=""img"">
                            </div>
                        </div>","-181","","0","images/Y_D_S_7_lightshift.png","","","","calm","2","Y","D","S","lightshift","",""
"","","","","","html-slider-response","162","402412","0.0-158.0","46xjsdxsl9","4","NaN","<div style=""width:500px;"">
                            <p style=""font-size:50px; font-weight:bold;""
                            >calm</p>
                            <div style=""width:240px; margin: auto;"">
                                <img src=""images/B_D_U_44_lightshift.png"" style= ""width:200px""alt=""img"">
                            </div>
                        </div>","66","","0","images/B_D_U_44_lightshift.png","","","","calm","1","B","D","U","lightshift","",""
"","","","","","html-slider-response","163","404932","0.0-159.0","46xjsdxsl9","4","NaN","<div style=""width:500px;"">
                            <p style=""font-size:50px; font-weight:bold;""
                            >calm</p>
                            <div style=""width:240px; margin: auto;"">
                                <img src=""images/G_D_U_30_darkshift.png"" style= ""width:200px""alt=""img"">
                            </div>
                        </div>","-2","","0","images/G_D_U_30_darkshift.png","","","","calm","1","G","D","U","darkshift","",""
"","","","","","html-slider-response","164","406834","0.0-160.0","46xjsdxsl9","4","NaN","<div style=""width:500px;"">
                            <p style=""font-size:50px; font-weight:bold;""
                            >calm</p>
                            <div style=""width:240px; margin: auto;"">
                                <img src=""images/B_L_S_33_lightshift.png"" style= ""width:200px""alt=""img"">
                            </div>
                        </div>","110","","0","images/B_L_S_33_lightshift.png","","","","calm","2","B","L","S","lightshift","",""
"","","","","","html-slider-response","165","409147","0.0-161.0","46xjsdxsl9","4","NaN","<div style=""width:500px;"">
                            <p style=""font-size:50px; font-weight:bold;""
                            >calm</p>
                            <div style=""width:240px; margin: auto;"">
                                <img src=""images/R_L_S_12_lightshift.png"" style= ""width:200px""alt=""img"">
                            </div>
                        </div>","-19","","0","images/R_L_S_12_lightshift.png","","","","calm","2","R","L","S","lightshift","",""
"","","","","","html-slider-response","166","411008","0.0-162.0","46xjsdxsl9","4","NaN","<div style=""width:500px;"">
                            <p style=""font-size:50px; font-weight:bold;""
                            >calm</p>
                            <div style=""width:240px; margin: auto;"">
                                <img src=""images/G_L_U_27_darkshift.png"" style= ""width:200px""alt=""img"">
                            </div>
                        </div>","165","","0","images/G_L_U_27_darkshift.png","","","","calm","2","G","L","U","darkshift","",""
"","","","","","html-slider-response","167","412813","0.0-163.0","46xjsdxsl9","4","NaN","<div style=""width:500px;"">
                            <p style=""font-size:50px; font-weight:bold;""
                            >calm</p>
                            <div style=""width:240px; margin: auto;"">
                                <img src=""images/Y_L_U_5_lightshift.png"" style= ""width:200px""alt=""img"">
                            </div>
                        </div>","-110","","0","images/Y_L_U_5_lightshift.png","","","","calm","2","Y","L","U","lightshift","",""
"","","","","","html-slider-response","168","414523","0.0-164.0","46xjsdxsl9","4","NaN","<div style=""width:500px;"">
                            <p style=""font-size:50px; font-weight:bold;""
                            >calm</p>
                            <div style=""width:240px; margin: auto;"">
                                <img src=""images/B_D_S_41_darkshift.png"" style= ""width:200px""alt=""img"">
                            </div>
                        </div>","48","","0","images/B_D_S_41_darkshift.png","","","","calm","1","B","D","S","darkshift","",""
"","","","","","html-slider-response","169","416536","0.0-165.0","46xjsdxsl9","4","NaN","<div style=""width:500px;"">
                            <p style=""font-size:50px; font-weight:bold;""
                            >calm</p>
                            <div style=""width:240px; margin: auto;"">
                                <img src=""images/Y_L_S_2_darkshift.png"" style= ""width:200px""alt=""img"">
                            </div>
                        </div>","-178","","0","images/Y_L_S_2_darkshift.png","","","","calm","1","Y","L","S","darkshift","",""
"","","","","","html-slider-response","170","418452","0.0-166.0","46xjsdxsl9","4","NaN","<div style=""width:500px;"">
                            <p style=""font-size:50px; font-weight:bold;""
                            >calm</p>
                            <div style=""width:240px; margin: auto;"">
                                <img src=""images/R_D_S_15_lightshift.png"" style= ""width:200px""alt=""img"">
                            </div>
                        </div>","-42","","0","images/R_D_S_15_lightshift.png","","","","calm","2","R","D","S","lightshift","",""
"","","","","","html-slider-response","171","420876","0.0-167.0","46xjsdxsl9","4","NaN","<div style=""width:500px;"">
                            <p style=""font-size:50px; font-weight:bold;""
                            >calm</p>
                            <div style=""width:240px; margin: auto;"">
                                <img src=""images/B_L_S_33_darkshift.png"" style= ""width:200px""alt=""img"">
                            </div>
                        </div>","88","","0","images/B_L_S_33_darkshift.png","","","","calm","1","B","L","S","darkshift","",""
"","","","","","html-slider-response","172","422240","0.0-168.0","46xjsdxsl9","4","NaN","<div style=""width:500px;"">
                            <p style=""font-size:50px; font-weight:bold;""
                            >calm</p>
                            <div style=""width:240px; margin: auto;"">
                                <img src=""images/B_L_U_37_darkshift.png"" style= ""width:200px""alt=""img"">
                            </div>
                        </div>","80","","0","images/B_L_U_37_darkshift.png","","","","calm","1","B","L","U","darkshift","",""
