"success","timeout","failed_images","failed_audio","failed_video","trial_type","trial_index","time_elapsed","internal_node_id","subject_id","condition_num","rt","stimulus","response","question_order","slider_start","image_path","practiceTrial","practiceTrialNum","correct","concept","repetition","hue","lightness","saturation","shift","ishihara_plate","correct_response"
"true","false","[]","[]","[]","preload","0","296","0.0-0.0","5cxjcgvzdx","6","","","","","","","","","","","","","","","","",""
"","","","","","html-button-response","1","4702","0.0-1.0","5cxjcgvzdx","6","4403","Welcome to our experiment!<p>At the bottom of this screen, you will see a button that says ""Begin Experiment"".<br>Please only click that button when you are ready to complete the 25 minute experiment in one sitting.</p><p> Once you click that button, it will not be possible to restart the experiment.","0","","","","","","","","","","","","","",""
"true","","","","","fullscreen","2","6868","0.0-2.0","5cxjcgvzdx","6","1159","","","","","","","","","","","","","","","",""
"","","","","","survey-multi-select","3","32950","0.0-3.0","5cxjcgvzdx","6","26077","","{""Consent"":[""<strong>I consent</strong>""]}","[0]","","","","","","","","","","","","",""
"","","","","","html-button-response","4","36213","0.0-4.0","5cxjcgvzdx","6","3262","Welcome! <p> This experiment involves two parts: demographic information, followed by the experimental task.<p> It will take about 25 minutes to complete both parts.","0","","","","","","","","","","","","","",""
"","","","","","survey-text","5","57765","0.0-5.0","5cxjcgvzdx","6","21533","","{""Age"":""18"",""Gender"":""Female"",""Race/ethnicity"":""White"",""Languages"":""English, a bit of Spanish""}","","","","","","","","","","","","","",""
"","","","","","html-slider-response","6","98211","0.0-6.0","5cxjcgvzdx","6","40443","
                            <div style='text-align:left; font-size:20px; line-height:25px; width: 1400px;'>
                                During this experiment you will be asked to rate how much you associate maps with                    different concepts.<br> Below, you can see some examples of the maps you will be asked to rate. Next to the maps
                    is the list of concepts.<br>You will be asked                    to rate how much you associate each map with each concept on a scale from 'not at all' to 'very much' like the
                    one below. <br><br>
                    Now, please look at the list of concepts and maps. For each concept, think about the map you associate 'very
                    much' with the concept.<br>                     When you see that map during the experiment, please rate it near the 'very much' endpoint of the
                    scale.<br>Now, please think about which map you associate 'not at all'                     with each concept. When you see that map during the experiment, please rate it near the 'not at all' endpoint
                    of the scale.<br>
                    Please use the full range of the scale. That is, if a map is somewhat associated with the concept, you would
                    click partway between the middle point and right side of the scale.                    You will be asked to rate each map for a given concept before moving on to the next concept.<br><br>Press the
                    'Continue' button for instructions on how to use the slider.                    <br><br>
                </div>

                <div style=""width: 500px; margin: 0 auto;"">
                    <!-- Centered text paragraphs -->
                    <div style=""text-align: center; width: 500px;"">
                        <p style=""font-size:25px; line-height:18px;"">calm</p>
                        <p style=""font-size:25px; line-height:18px;"">positive</p>
                        <p style=""font-size:25px;line-height:18px;"">negative</p>
                        <p style=""font-size:25px;line-height:18px;"">startling</p>
                    </div>

                    <!-- Grid section -->
                   <div style=""display: flex; justify-content: center; padding-top: 15px;"">
                    <div style=""display: grid; grid-template-columns: repeat(8, 80px); grid-gap: 5px; width: auto;"">
                        <img src=""images/Y_L_U_10_darkshift.png"" alt=""map"" style=""width: 100%;""><img src=""images/R_L_S_15_darkshift.png"" alt=""map"" style=""width: 100%;""><img src=""images/R_D_U_27_darkshift.png"" alt=""map"" style=""width: 100%;""><img src=""images/B_L_S_41_lightshift.png"" alt=""map"" style=""width: 100%;""><img src=""images/B_D_S_2_lightshift.png"" alt=""map"" style=""width: 100%;""><img src=""images/G_L_S_28_darkshift.png"" alt=""map"" style=""width: 100%;""><img src=""images/G_L_S_28_lightshift.png"" alt=""map"" style=""width: 100%;""><img src=""images/Y_D_S_12_lightshift.png"" alt=""map"" style=""width: 100%;""><img src=""images/B_D_U_5_darkshift.png"" alt=""map"" style=""width: 100%;""><img src=""images/R_D_U_27_lightshift.png"" alt=""map"" style=""width: 100%;""><img src=""images/B_L_S_41_darkshift.png"" alt=""map"" style=""width: 100%;""><img src=""images/Y_L_S_7_lightshift.png"" alt=""map"" style=""width: 100%;""><img src=""images/G_L_U_30_darkshift.png"" alt=""map"" style=""width: 100%;""><img src=""images/B_L_U_44_lightshift.png"" alt=""map"" style=""width: 100%;""><img src=""images/G_D_U_37_darkshift.png"" alt=""map"" style=""width: 100%;""><img src=""images/R_L_U_23_lightshift.png"" alt=""map"" style=""width: 100%;""><img src=""images/G_D_S_33_darkshift.png"" alt=""map"" style=""width: 100%;""><img src=""images/G_D_U_37_lightshift.png"" alt=""map"" style=""width: 100%;""><img src=""images/R_L_U_23_darkshift.png"" alt=""map"" style=""width: 100%;""><img src=""images/G_D_S_33_lightshift.png"" alt=""map"" style=""width: 100%;""><img src=""images/B_L_U_44_darkshift.png"" alt=""map"" style=""width: 100%;""><img src=""images/Y_L_S_7_darkshift.png"" alt=""map"" style=""width: 100%;""><img src=""images/G_L_U_30_lightshift.png"" alt=""map"" style=""width: 100%;""><img src=""images/Y_D_U_13_lightshift.png"" alt=""map"" style=""width: 100%;""><img src=""images/Y_D_U_13_darkshift.png"" alt=""map"" style=""width: 100%;""><img src=""images/R_L_S_15_lightshift.png"" alt=""map"" style=""width: 100%;""><img src=""images/R_D_S_26_darkshift.png"" alt=""map"" style=""width: 100%;""><img src=""images/B_D_S_2_darkshift.png"" alt=""map"" style=""width: 100%;""><img src=""images/R_D_S_26_lightshift.png"" alt=""map"" style=""width: 100%;""><img src=""images/B_D_U_5_lightshift.png"" alt=""map"" style=""width: 100%;""><img src=""images/Y_L_U_10_lightshift.png"" alt=""map"" style=""width: 100%;""><img src=""images/Y_D_S_12_darkshift.png"" alt=""map"" style=""width: 100%;"">
                    </div>
                </div>

                    <!-- Clear floats -->
                    <div style=""clear: both;""></div>
                </div>
                            ","30","","0","maps_anchoring.png","true","","","","","","","","","",""
"","","","","","html-button-response","7","100696","0.0-7.0","5cxjcgvzdx","6","2483","<div style=""width:800px;""><p style=""text-align:left"">To move the slider, click and drag your cursor to the location of the scale where you would like to make your rating and then let go. When you let go of the slider, your response will be recorded and the next trial will begin. <br>
                    We are interested in your initial impressions of each map for the given concept, so please go with your first intuition. <br>
                    Before you begin the experiment, there will be four training trials for you to practice using the scale. <br>
                     When you are ready to start the training trials, please click ""Continue"".</p><br></div>","0","","","","","","","","","","","","","",""
"","","","","","html-slider-response","8","103090","0.0-8.0-0.0","5cxjcgvzdx","6","NaN","<div style=""width:500px;"">
                                    <p style=""font-size:25px;"">Please move the slider all the way to the <br> right endpoint of the scale</p>

                                    </div>
                                </div>","200","","0","","true","0","true","","","","","","","",""
"","","","","","html-button-response","9","104361","0.0-8.0-1.0","5cxjcgvzdx","6","768","<p align='center'><b>Good job!</b> Click on 'Continue' to proceed.</p>","0","","","","","","","","","","","","","",""
"","","","","","html-slider-response","10","106539","0.0-9.0-0.0","5cxjcgvzdx","6","NaN","<div style=""width:500px;"">
                                    <p style=""font-size:25px;"">Please move the slider all the way to the <br> left endpoint of the scale</p>

                                    </div>
                                </div>","-200","","0","","true","1","true","","","","","","","",""
"","","","","","html-button-response","11","107730","0.0-9.0-1.0","5cxjcgvzdx","6","689","<p align='center'><b>Good job!</b> Click on 'Continue' to proceed.</p>","0","","","","","","","","","","","","","",""
"","","","","","html-slider-response","12","110672","0.0-10.0-0.0","5cxjcgvzdx","6","NaN","<div style=""width:500px;"">
                                    <p style=""font-size:25px;"">Please move the slider halfway between the center and right endpoint of the scale</p>

                                    </div>
                                </div>","106","","0","","true","2","true","","","","","","","",""
"","","","","","html-button-response","13","112512","0.0-10.0-1.0","5cxjcgvzdx","6","1339","<p align='center'><b>Good job!</b> Click on 'Continue' to proceed.</p>","0","","","","","","","","","","","","","",""
"","","","","","html-slider-response","14","114772","0.0-11.0-0.0","5cxjcgvzdx","6","NaN","<div style=""width:500px;"">
                                    <p style=""font-size:25px;"">Please move the slider halfway between the center and left endpoint of the scale</p>

                                    </div>
                                </div>","-108","","0","","true","3","true","","","","","","","",""
"","","","","","html-button-response","15","115910","0.0-11.0-1.0","5cxjcgvzdx","6","636","<p align='center'><b>Good job!</b> Click on 'Continue' to proceed.</p>","0","","","","","","","","","","","","","",""
"","","","","","html-button-response","16","117296","0.0-12.0","5cxjcgvzdx","6","1384","<p>Great job! You've completed the practice trials. Now you will begin the main task.</p>","0","","","","","","","","","","","","","",""
"","","","","","html-button-response","17","119445","0.0-13.0","5cxjcgvzdx","6","2149","<p>In this block of trials, you will be asked to rate how much you associate each map with:</p > <p style = 'font-size:150%; font-weight: bold'>positive</p><br></br>","0","","","","","","","","","","","","","",""
"","","","","","html-slider-response","18","122022","0.0-14.0","5cxjcgvzdx","6","NaN","<div style=""width:500px;"">
                            <p style=""font-size:50px; font-weight:bold;""
                            >positive</p>
                            <div style=""width:240px; margin: auto;"">
                                <img src=""images/R_L_U_23_darkshift.png"" style= ""width:200px""alt=""img"">
                            </div>
                        </div>","200","","0","images/R_L_U_23_darkshift.png","","","","positive","2","R","L","U","darkshift","",""
"","","","","","html-slider-response","19","124738","0.0-15.0","5cxjcgvzdx","6","NaN","<div style=""width:500px;"">
                            <p style=""font-size:50px; font-weight:bold;""
                            >positive</p>
                            <div style=""width:240px; margin: auto;"">
                                <img src=""images/B_D_S_2_lightshift.png"" style= ""width:200px""alt=""img"">
                            </div>
                        </div>","155","","0","images/B_D_S_2_lightshift.png","","","","positive","1","B","D","S","lightshift","",""
"","","","","","html-slider-response","20","127123","0.0-16.0","5cxjcgvzdx","6","NaN","<div style=""width:500px;"">
                            <p style=""font-size:50px; font-weight:bold;""
                            >positive</p>
                            <div style=""width:240px; margin: auto;"">
                                <img src=""images/Y_L_S_7_lightshift.png"" style= ""width:200px""alt=""img"">
                            </div>
                        </div>","187","","0","images/Y_L_S_7_lightshift.png","","","","positive","2","Y","L","S","lightshift","",""
"","","","","","html-slider-response","21","129955","0.0-17.0","5cxjcgvzdx","6","NaN","<div style=""width:500px;"">
                            <p style=""font-size:50px; font-weight:bold;""
                            >positive</p>
                            <div style=""width:240px; margin: auto;"">
                                <img src=""images/G_L_S_28_darkshift.png"" style= ""width:200px""alt=""img"">
                            </div>
                        </div>","178","","0","images/G_L_S_28_darkshift.png","","","","positive","2","G","L","S","darkshift","",""
"","","","","","html-slider-response","22","132188","0.0-18.0","5cxjcgvzdx","6","NaN","<div style=""width:500px;"">
                            <p style=""font-size:50px; font-weight:bold;""
                            >positive</p>
                            <div style=""width:240px; margin: auto;"">
                                <img src=""images/G_D_U_37_darkshift.png"" style= ""width:200px""alt=""img"">
                            </div>
                        </div>","-45","","0","images/G_D_U_37_darkshift.png","","","","positive","2","G","D","U","darkshift","",""
"","","","","","html-slider-response","23","134255","0.0-19.0","5cxjcgvzdx","6","NaN","<div style=""width:500px;"">
                            <p style=""font-size:50px; font-weight:bold;""
                            >positive</p>
                            <div style=""width:240px; margin: auto;"">
                                <img src=""images/G_L_U_30_darkshift.png"" style= ""width:200px""alt=""img"">
                            </div>
                        </div>","176","","0","images/G_L_U_30_darkshift.png","","","","positive","1","G","L","U","darkshift","",""
"","","","","","html-slider-response","24","137055","0.0-20.0","5cxjcgvzdx","6","NaN","<div style=""width:500px;"">
                            <p style=""font-size:50px; font-weight:bold;""
                            >positive</p>
                            <div style=""width:240px; margin: auto;"">
                                <img src=""images/Y_D_U_13_darkshift.png"" style= ""width:200px""alt=""img"">
                            </div>
                        </div>","-124","","0","images/Y_D_U_13_darkshift.png","","","","positive","1","Y","D","U","darkshift","",""
"","","","","","html-slider-response","25","139540","0.0-21.0","5cxjcgvzdx","6","NaN","<div style=""width:500px;"">
                            <p style=""font-size:50px; font-weight:bold;""
                            >positive</p>
                            <div style=""width:240px; margin: auto;"">
                                <img src=""images/B_L_U_44_darkshift.png"" style= ""width:200px""alt=""img"">
                            </div>
                        </div>","187","","0","images/B_L_U_44_darkshift.png","","","","positive","2","B","L","U","darkshift","",""
"","","","","","html-slider-response","26","141688","0.0-22.0","5cxjcgvzdx","6","NaN","<div style=""width:500px;"">
                            <p style=""font-size:50px; font-weight:bold;""
                            >positive</p>
                            <div style=""width:240px; margin: auto;"">
                                <img src=""images/Y_L_S_7_darkshift.png"" style= ""width:200px""alt=""img"">
                            </div>
                        </div>","104","","0","images/Y_L_S_7_darkshift.png","","","","positive","1","Y","L","S","darkshift","",""
"","","","","","html-slider-response","27","143806","0.0-23.0","5cxjcgvzdx","6","NaN","<div style=""width:500px;"">
                            <p style=""font-size:50px; font-weight:bold;""
                            >positive</p>
                            <div style=""width:240px; margin: auto;"">
                                <img src=""images/G_L_U_30_lightshift.png"" style= ""width:200px""alt=""img"">
                            </div>
                        </div>","141","","0","images/G_L_U_30_lightshift.png","","","","positive","1","G","L","U","lightshift","",""
"","","","","","html-slider-response","28","145821","0.0-24.0","5cxjcgvzdx","6","NaN","<div style=""width:500px;"">
                            <p style=""font-size:50px; font-weight:bold;""
                            >positive</p>
                            <div style=""width:240px; margin: auto;"">
                                <img src=""images/Y_D_U_13_lightshift.png"" style= ""width:200px""alt=""img"">
                            </div>
                        </div>","-124","","0","images/Y_D_U_13_lightshift.png","","","","positive","2","Y","D","U","lightshift","",""
"","","","","","html-slider-response","29","148405","0.0-25.0","5cxjcgvzdx","6","NaN","<div style=""width:500px;"">
                            <p style=""font-size:50px; font-weight:bold;""
                            >positive</p>
                            <div style=""width:240px; margin: auto;"">
                                <img src=""images/G_D_S_33_darkshift.png"" style= ""width:200px""alt=""img"">
                            </div>
                        </div>","-20","","0","images/G_D_S_33_darkshift.png","","","","positive","2","G","D","S","darkshift","",""
"","","","","","html-slider-response","30","150405","0.0-26.0","5cxjcgvzdx","6","NaN","<div style=""width:500px;"">
                            <p style=""font-size:50px; font-weight:bold;""
                            >positive</p>
                            <div style=""width:240px; margin: auto;"">
                                <img src=""images/R_D_U_27_darkshift.png"" style= ""width:200px""alt=""img"">
                            </div>
                        </div>","-26","","0","images/R_D_U_27_darkshift.png","","","","positive","1","R","D","U","darkshift","",""
"","","","","","html-slider-response","31","152423","0.0-27.0","5cxjcgvzdx","6","NaN","<div style=""width:500px;"">
                            <p style=""font-size:50px; font-weight:bold;""
                            >positive</p>
                            <div style=""width:240px; margin: auto;"">
                                <img src=""images/B_D_S_2_lightshift.png"" style= ""width:200px""alt=""img"">
                            </div>
                        </div>","34","","0","images/B_D_S_2_lightshift.png","","","","positive","2","B","D","S","lightshift","",""
"","","","","","html-slider-response","32","155021","0.0-28.0","5cxjcgvzdx","6","NaN","<div style=""width:500px;"">
                            <p style=""font-size:50px; font-weight:bold;""
                            >positive</p>
                            <div style=""width:240px; margin: auto;"">
                                <img src=""images/B_D_U_5_darkshift.png"" style= ""width:200px""alt=""img"">
                            </div>
                        </div>","-44","","0","images/B_D_U_5_darkshift.png","","","","positive","2","B","D","U","darkshift","",""
"","","","","","html-slider-response","33","157139","0.0-29.0","5cxjcgvzdx","6","NaN","<div style=""width:500px;"">
                            <p style=""font-size:50px; font-weight:bold;""
                            >positive</p>
                            <div style=""width:240px; margin: auto;"">
                                <img src=""images/B_D_U_5_darkshift.png"" style= ""width:200px""alt=""img"">
                            </div>
                        </div>","-46","","0","images/B_D_U_5_darkshift.png","","","","positive","1","B","D","U","darkshift","",""
"","","","","","html-slider-response","34","159188","0.0-30.0","5cxjcgvzdx","6","NaN","<div style=""width:500px;"">
                            <p style=""font-size:50px; font-weight:bold;""
                            >positive</p>
                            <div style=""width:240px; margin: auto;"">
                                <img src=""images/G_D_U_37_lightshift.png"" style= ""width:200px""alt=""img"">
                            </div>
                        </div>","-25","","0","images/G_D_U_37_lightshift.png","","","","positive","2","G","D","U","lightshift","",""
"","","","","","html-slider-response","35","162688","0.0-31.0","5cxjcgvzdx","6","NaN","<div style=""width:500px;"">
                            <p style=""font-size:50px; font-weight:bold;""
                            >positive</p>
                            <div style=""width:240px; margin: auto;"">
                                <img src=""images/B_D_S_2_darkshift.png"" style= ""width:200px""alt=""img"">
                            </div>
                        </div>","13","","0","images/B_D_S_2_darkshift.png","","","","positive","2","B","D","S","darkshift","",""
"","","","","","html-slider-response","36","164640","0.0-32.0","5cxjcgvzdx","6","NaN","<div style=""width:500px;"">
                            <p style=""font-size:50px; font-weight:bold;""
                            >positive</p>
                            <div style=""width:240px; margin: auto;"">
                                <img src=""images/Y_L_U_10_darkshift.png"" style= ""width:200px""alt=""img"">
                            </div>
                        </div>","26","","0","images/Y_L_U_10_darkshift.png","","","","positive","2","Y","L","U","darkshift","",""
"","","","","","html-slider-response","37","166955","0.0-33.0","5cxjcgvzdx","6","NaN","<div style=""width:500px;"">
                            <p style=""font-size:50px; font-weight:bold;""
                            >positive</p>
                            <div style=""width:240px; margin: auto;"">
                                <img src=""images/B_D_U_5_lightshift.png"" style= ""width:200px""alt=""img"">
                            </div>
                        </div>","8","","0","images/B_D_U_5_lightshift.png","","","","positive","1","B","D","U","lightshift","",""
"","","","","","html-slider-response","38","169055","0.0-34.0","5cxjcgvzdx","6","NaN","<div style=""width:500px;"">
                            <p style=""font-size:50px; font-weight:bold;""
                            >positive</p>
                            <div style=""width:240px; margin: auto;"">
                                <img src=""images/Y_D_S_12_darkshift.png"" style= ""width:200px""alt=""img"">
                            </div>
                        </div>","-77","","0","images/Y_D_S_12_darkshift.png","","","","positive","1","Y","D","S","darkshift","",""
"","","","","","html-slider-response","39","170888","0.0-35.0","5cxjcgvzdx","6","NaN","<div style=""width:500px;"">
                            <p style=""font-size:50px; font-weight:bold;""
                            >positive</p>
                            <div style=""width:240px; margin: auto;"">
                                <img src=""images/G_L_S_28_darkshift.png"" style= ""width:200px""alt=""img"">
                            </div>
                        </div>","102","","0","images/G_L_S_28_darkshift.png","","","","positive","1","G","L","S","darkshift","",""
"","","","","","html-slider-response","40","172638","0.0-36.0","5cxjcgvzdx","6","NaN","<div style=""width:500px;"">
                            <p style=""font-size:50px; font-weight:bold;""
                            >positive</p>
                            <div style=""width:240px; margin: auto;"">
                                <img src=""images/R_D_U_27_darkshift.png"" style= ""width:200px""alt=""img"">
                            </div>
                        </div>","-31","","0","images/R_D_U_27_darkshift.png","","","","positive","2","R","D","U","darkshift","",""
"","","","","","html-slider-response","41","174573","0.0-37.0","5cxjcgvzdx","6","NaN","<div style=""width:500px;"">
                            <p style=""font-size:50px; font-weight:bold;""
                            >positive</p>
                            <div style=""width:240px; margin: auto;"">
                                <img src=""images/R_D_S_26_lightshift.png"" style= ""width:200px""alt=""img"">
                            </div>
                        </div>","200","","0","images/R_D_S_26_lightshift.png","","","","positive","1","R","D","S","lightshift","",""
"","","","","","html-slider-response","42","176656","0.0-38.0","5cxjcgvzdx","6","NaN","<div style=""width:500px;"">
                            <p style=""font-size:50px; font-weight:bold;""
                            >positive</p>
                            <div style=""width:240px; margin: auto;"">
                                <img src=""images/Y_L_S_7_darkshift.png"" style= ""width:200px""alt=""img"">
                            </div>
                        </div>","157","","0","images/Y_L_S_7_darkshift.png","","","","positive","2","Y","L","S","darkshift","",""
"","","","","","html-slider-response","43","179054","0.0-39.0","5cxjcgvzdx","6","NaN","<div style=""width:500px;"">
                            <p style=""font-size:50px; font-weight:bold;""
                            >positive</p>
                            <div style=""width:240px; margin: auto;"">
                                <img src=""images/R_D_U_27_lightshift.png"" style= ""width:200px""alt=""img"">
                            </div>
                        </div>","-21","","0","images/R_D_U_27_lightshift.png","","","","positive","2","R","D","U","lightshift","",""
"","","","","","html-slider-response","44","180940","0.0-40.0","5cxjcgvzdx","6","NaN","<div style=""width:500px;"">
                            <p style=""font-size:50px; font-weight:bold;""
                            >positive</p>
                            <div style=""width:240px; margin: auto;"">
                                <img src=""images/B_L_S_41_darkshift.png"" style= ""width:200px""alt=""img"">
                            </div>
                        </div>","170","","0","images/B_L_S_41_darkshift.png","","","","positive","2","B","L","S","darkshift","",""
"","","","","","html-slider-response","45","183388","0.0-41.0","5cxjcgvzdx","6","NaN","<div style=""width:500px;"">
                            <p style=""font-size:50px; font-weight:bold;""
                            >positive</p>
                            <div style=""width:240px; margin: auto;"">
                                <img src=""images/B_L_U_44_lightshift.png"" style= ""width:200px""alt=""img"">
                            </div>
                        </div>","14","","0","images/B_L_U_44_lightshift.png","","","","positive","2","B","L","U","lightshift","",""
"","","","","","html-slider-response","46","185505","0.0-42.0","5cxjcgvzdx","6","NaN","<div style=""width:500px;"">
                            <p style=""font-size:50px; font-weight:bold;""
                            >positive</p>
                            <div style=""width:240px; margin: auto;"">
                                <img src=""images/Y_D_S_12_darkshift.png"" style= ""width:200px""alt=""img"">
                            </div>
                        </div>","-110","","0","images/Y_D_S_12_darkshift.png","","","","positive","2","Y","D","S","darkshift","",""
"","","","","","html-slider-response","47","187422","0.0-43.0","5cxjcgvzdx","6","NaN","<div style=""width:500px;"">
                            <p style=""font-size:50px; font-weight:bold;""
                            >positive</p>
                            <div style=""width:240px; margin: auto;"">
                                <img src=""images/G_D_S_33_darkshift.png"" style= ""width:200px""alt=""img"">
                            </div>
                        </div>","-30","","0","images/G_D_S_33_darkshift.png","","","","positive","1","G","D","S","darkshift","",""
"","","","","","html-slider-response","48","189405","0.0-44.0","5cxjcgvzdx","6","NaN","<div style=""width:500px;"">
                            <p style=""font-size:50px; font-weight:bold;""
                            >positive</p>
                            <div style=""width:240px; margin: auto;"">
                                <img src=""images/G_D_S_33_lightshift.png"" style= ""width:200px""alt=""img"">
                            </div>
                        </div>","-6","","0","images/G_D_S_33_lightshift.png","","","","positive","2","G","D","S","lightshift","",""
"","","","","","html-slider-response","49","191373","0.0-45.0","5cxjcgvzdx","6","NaN","<div style=""width:500px;"">
                            <p style=""font-size:50px; font-weight:bold;""
                            >positive</p>
                            <div style=""width:240px; margin: auto;"">
                                <img src=""images/R_D_U_27_lightshift.png"" style= ""width:200px""alt=""img"">
                            </div>
                        </div>","-20","","0","images/R_D_U_27_lightshift.png","","","","positive","1","R","D","U","lightshift","",""
"","","","","","html-slider-response","50","193238","0.0-46.0","5cxjcgvzdx","6","NaN","<div style=""width:500px;"">
                            <p style=""font-size:50px; font-weight:bold;""
                            >positive</p>
                            <div style=""width:240px; margin: auto;"">
                                <img src=""images/B_L_U_44_darkshift.png"" style= ""width:200px""alt=""img"">
                            </div>
                        </div>","26","","0","images/B_L_U_44_darkshift.png","","","","positive","1","B","L","U","darkshift","",""
"","","","","","html-slider-response","51","194955","0.0-47.0","5cxjcgvzdx","6","NaN","<div style=""width:500px;"">
                            <p style=""font-size:50px; font-weight:bold;""
                            >positive</p>
                            <div style=""width:240px; margin: auto;"">
                                <img src=""images/Y_L_U_10_lightshift.png"" style= ""width:200px""alt=""img"">
                            </div>
                        </div>","-10","","0","images/Y_L_U_10_lightshift.png","","","","positive","2","Y","L","U","lightshift","",""
"","","","","","html-slider-response","52","196573","0.0-48.0","5cxjcgvzdx","6","NaN","<div style=""width:500px;"">
                            <p style=""font-size:50px; font-weight:bold;""
                            >positive</p>
                            <div style=""width:240px; margin: auto;"">
                                <img src=""images/R_L_S_15_lightshift.png"" style= ""width:200px""alt=""img"">
                            </div>
                        </div>","186","","0","images/R_L_S_15_lightshift.png","","","","positive","1","R","L","S","lightshift","",""
"","","","","","html-slider-response","53","198190","0.0-49.0","5cxjcgvzdx","6","NaN","<div style=""width:500px;"">
                            <p style=""font-size:50px; font-weight:bold;""
                            >positive</p>
                            <div style=""width:240px; margin: auto;"">
                                <img src=""images/G_L_U_30_darkshift.png"" style= ""width:200px""alt=""img"">
                            </div>
                        </div>","34","","0","images/G_L_U_30_darkshift.png","","","","positive","2","G","L","U","darkshift","",""
"","","","","","html-slider-response","54","200389","0.0-50.0","5cxjcgvzdx","6","NaN","<div style=""width:500px;"">
                            <p style=""font-size:50px; font-weight:bold;""
                            >positive</p>
                            <div style=""width:240px; margin: auto;"">
                                <img src=""images/Y_L_S_7_lightshift.png"" style= ""width:200px""alt=""img"">
                            </div>
                        </div>","151","","0","images/Y_L_S_7_lightshift.png","","","","positive","1","Y","L","S","lightshift","",""
"","","","","","html-slider-response","55","203590","0.0-51.0","5cxjcgvzdx","6","NaN","<div style=""width:500px;"">
                            <p style=""font-size:50px; font-weight:bold;""
                            >positive</p>
                            <div style=""width:240px; margin: auto;"">
                                <img src=""images/G_D_U_37_darkshift.png"" style= ""width:200px""alt=""img"">
                            </div>
                        </div>","-130","","0","images/G_D_U_37_darkshift.png","","","","positive","1","G","D","U","darkshift","",""
"","","","","","html-slider-response","56","205621","0.0-52.0","5cxjcgvzdx","6","NaN","<div style=""width:500px;"">
                            <p style=""font-size:50px; font-weight:bold;""
                            >positive</p>
                            <div style=""width:240px; margin: auto;"">
                                <img src=""images/Y_D_S_12_lightshift.png"" style= ""width:200px""alt=""img"">
                            </div>
                        </div>","-86","","0","images/Y_D_S_12_lightshift.png","","","","positive","1","Y","D","S","lightshift","",""
"","","","","","html-slider-response","57","207821","0.0-53.0","5cxjcgvzdx","6","NaN","<div style=""width:500px;"">
                            <p style=""font-size:50px; font-weight:bold;""
                            >positive</p>
                            <div style=""width:240px; margin: auto;"">
                                <img src=""images/B_L_S_41_darkshift.png"" style= ""width:200px""alt=""img"">
                            </div>
                        </div>","96","","0","images/B_L_S_41_darkshift.png","","","","positive","1","B","L","S","darkshift","",""
"","","","","","html-slider-response","58","210304","0.0-54.0","5cxjcgvzdx","6","NaN","<div style=""width:500px;"">
                            <p style=""font-size:50px; font-weight:bold;""
                            >positive</p>
                            <div style=""width:240px; margin: auto;"">
                                <img src=""images/R_L_U_23_lightshift.png"" style= ""width:200px""alt=""img"">
                            </div>
                        </div>","6","","0","images/R_L_U_23_lightshift.png","","","","positive","2","R","L","U","lightshift","",""
"","","","","","html-slider-response","59","212105","0.0-55.0","5cxjcgvzdx","6","NaN","<div style=""width:500px;"">
                            <p style=""font-size:50px; font-weight:bold;""
                            >positive</p>
                            <div style=""width:240px; margin: auto;"">
                                <img src=""images/G_L_S_28_lightshift.png"" style= ""width:200px""alt=""img"">
                            </div>
                        </div>","98","","0","images/G_L_S_28_lightshift.png","","","","positive","1","G","L","S","lightshift","",""
"","","","","","html-slider-response","60","214071","0.0-56.0","5cxjcgvzdx","6","NaN","<div style=""width:500px;"">
                            <p style=""font-size:50px; font-weight:bold;""
                            >positive</p>
                            <div style=""width:240px; margin: auto;"">
                                <img src=""images/Y_L_U_10_lightshift.png"" style= ""width:200px""alt=""img"">
                            </div>
                        </div>","-9","","0","images/Y_L_U_10_lightshift.png","","","","positive","1","Y","L","U","lightshift","",""
"","","","","","html-slider-response","61","216054","0.0-57.0","5cxjcgvzdx","6","NaN","<div style=""width:500px;"">
                            <p style=""font-size:50px; font-weight:bold;""
                            >positive</p>
                            <div style=""width:240px; margin: auto;"">
                                <img src=""images/R_L_S_15_darkshift.png"" style= ""width:200px""alt=""img"">
                            </div>
                        </div>","142","","0","images/R_L_S_15_darkshift.png","","","","positive","1","R","L","S","darkshift","",""
"","","","","","html-slider-response","62","217907","0.0-58.0","5cxjcgvzdx","6","NaN","<div style=""width:500px;"">
                            <p style=""font-size:50px; font-weight:bold;""
                            >positive</p>
                            <div style=""width:240px; margin: auto;"">
                                <img src=""images/Y_L_U_10_darkshift.png"" style= ""width:200px""alt=""img"">
                            </div>
                        </div>","-9","","0","images/Y_L_U_10_darkshift.png","","","","positive","1","Y","L","U","darkshift","",""
"","","","","","html-slider-response","63","219638","0.0-59.0","5cxjcgvzdx","6","NaN","<div style=""width:500px;"">
                            <p style=""font-size:50px; font-weight:bold;""
                            >positive</p>
                            <div style=""width:240px; margin: auto;"">
                                <img src=""images/R_L_U_23_lightshift.png"" style= ""width:200px""alt=""img"">
                            </div>
                        </div>","-17","","0","images/R_L_U_23_lightshift.png","","","","positive","1","R","L","U","lightshift","",""
"","","","","","html-slider-response","64","221556","0.0-60.0","5cxjcgvzdx","6","NaN","<div style=""width:500px;"">
                            <p style=""font-size:50px; font-weight:bold;""
                            >positive</p>
                            <div style=""width:240px; margin: auto;"">
                                <img src=""images/Y_D_S_12_lightshift.png"" style= ""width:200px""alt=""img"">
                            </div>
                        </div>","-85","","0","images/Y_D_S_12_lightshift.png","","","","positive","2","Y","D","S","lightshift","",""
"","","","","","html-slider-response","65","224154","0.0-61.0","5cxjcgvzdx","6","NaN","<div style=""width:500px;"">
                            <p style=""font-size:50px; font-weight:bold;""
                            >positive</p>
                            <div style=""width:240px; margin: auto;"">
                                <img src=""images/R_L_S_15_lightshift.png"" style= ""width:200px""alt=""img"">
                            </div>
                        </div>","200","","0","images/R_L_S_15_lightshift.png","","","","positive","2","R","L","S","lightshift","",""
"","","","","","html-slider-response","66","225871","0.0-62.0","5cxjcgvzdx","6","NaN","<div style=""width:500px;"">
                            <p style=""font-size:50px; font-weight:bold;""
                            >positive</p>
                            <div style=""width:240px; margin: auto;"">
                                <img src=""images/B_L_U_44_lightshift.png"" style= ""width:200px""alt=""img"">
                            </div>
                        </div>","11","","0","images/B_L_U_44_lightshift.png","","","","positive","1","B","L","U","lightshift","",""
"","","","","","html-slider-response","67","227673","0.0-63.0","5cxjcgvzdx","6","NaN","<div style=""width:500px;"">
                            <p style=""font-size:50px; font-weight:bold;""
                            >positive</p>
                            <div style=""width:240px; margin: auto;"">
                                <img src=""images/B_L_S_41_lightshift.png"" style= ""width:200px""alt=""img"">
                            </div>
                        </div>","10","","0","images/B_L_S_41_lightshift.png","","","","positive","1","B","L","S","lightshift","",""
"","","","","","html-slider-response","68","230454","0.0-64.0","5cxjcgvzdx","6","NaN","<div style=""width:500px;"">
                            <p style=""font-size:50px; font-weight:bold;""
                            >positive</p>
                            <div style=""width:240px; margin: auto;"">
                                <img src=""images/R_L_U_23_darkshift.png"" style= ""width:200px""alt=""img"">
                            </div>
                        </div>","9","","0","images/R_L_U_23_darkshift.png","","","","positive","1","R","L","U","darkshift","",""
"","","","","","html-slider-response","69","232504","0.0-65.0","5cxjcgvzdx","6","NaN","<div style=""width:500px;"">
                            <p style=""font-size:50px; font-weight:bold;""
                            >positive</p>
                            <div style=""width:240px; margin: auto;"">
                                <img src=""images/G_L_U_30_lightshift.png"" style= ""width:200px""alt=""img"">
                            </div>
                        </div>","-1","","0","images/G_L_U_30_lightshift.png","","","","positive","2","G","L","U","lightshift","",""
"","","","","","html-slider-response","70","234438","0.0-66.0","5cxjcgvzdx","6","NaN","<div style=""width:500px;"">
                            <p style=""font-size:50px; font-weight:bold;""
                            >positive</p>
                            <div style=""width:240px; margin: auto;"">
                                <img src=""images/Y_D_U_13_darkshift.png"" style= ""width:200px""alt=""img"">
                            </div>
                        </div>","-138","","0","images/Y_D_U_13_darkshift.png","","","","positive","2","Y","D","U","darkshift","",""
"","","","","","html-slider-response","71","236956","0.0-67.0","5cxjcgvzdx","6","NaN","<div style=""width:500px;"">
                            <p style=""font-size:50px; font-weight:bold;""
                            >positive</p>
                            <div style=""width:240px; margin: auto;"">
                                <img src=""images/B_D_U_5_lightshift.png"" style= ""width:200px""alt=""img"">
                            </div>
                        </div>","-8","","0","images/B_D_U_5_lightshift.png","","","","positive","2","B","D","U","lightshift","",""
"","","","","","html-slider-response","72","239004","0.0-68.0","5cxjcgvzdx","6","NaN","<div style=""width:500px;"">
                            <p style=""font-size:50px; font-weight:bold;""
                            >positive</p>
                            <div style=""width:240px; margin: auto;"">
                                <img src=""images/B_D_S_2_darkshift.png"" style= ""width:200px""alt=""img"">
                            </div>
                        </div>","10","","0","images/B_D_S_2_darkshift.png","","","","positive","1","B","D","S","darkshift","",""
"","","","","","html-slider-response","73","240537","0.0-69.0","5cxjcgvzdx","6","NaN","<div style=""width:500px;"">
                            <p style=""font-size:50px; font-weight:bold;""
                            >positive</p>
                            <div style=""width:240px; margin: auto;"">
                                <img src=""images/G_D_S_33_lightshift.png"" style= ""width:200px""alt=""img"">
                            </div>
                        </div>","5","","0","images/G_D_S_33_lightshift.png","","","","positive","1","G","D","S","lightshift","",""
"","","","","","html-slider-response","74","242505","0.0-70.0","5cxjcgvzdx","6","NaN","<div style=""width:500px;"">
                            <p style=""font-size:50px; font-weight:bold;""
                            >positive</p>
                            <div style=""width:240px; margin: auto;"">
                                <img src=""images/B_L_S_41_lightshift.png"" style= ""width:200px""alt=""img"">
                            </div>
                        </div>","22","","0","images/B_L_S_41_lightshift.png","","","","positive","2","B","L","S","lightshift","",""
"","","","","","html-slider-response","75","244337","0.0-71.0","5cxjcgvzdx","6","NaN","<div style=""width:500px;"">
                            <p style=""font-size:50px; font-weight:bold;""
                            >positive</p>
                            <div style=""width:240px; margin: auto;"">
                                <img src=""images/Y_D_U_13_lightshift.png"" style= ""width:200px""alt=""img"">
                            </div>
                        </div>","-122","","0","images/Y_D_U_13_lightshift.png","","","","positive","1","Y","D","U","lightshift","",""
"","","","","","html-slider-response","76","246071","0.0-72.0","5cxjcgvzdx","6","NaN","<div style=""width:500px;"">
                            <p style=""font-size:50px; font-weight:bold;""
                            >positive</p>
                            <div style=""width:240px; margin: auto;"">
                                <img src=""images/R_D_S_26_darkshift.png"" style= ""width:200px""alt=""img"">
                            </div>
                        </div>","-31","","0","images/R_D_S_26_darkshift.png","","","","positive","2","R","D","S","darkshift","",""
"","","","","","html-slider-response","77","247906","0.0-73.0","5cxjcgvzdx","6","NaN","<div style=""width:500px;"">
                            <p style=""font-size:50px; font-weight:bold;""
                            >positive</p>
                            <div style=""width:240px; margin: auto;"">
                                <img src=""images/G_D_U_37_lightshift.png"" style= ""width:200px""alt=""img"">
                            </div>
                        </div>","-39","","0","images/G_D_U_37_lightshift.png","","","","positive","1","G","D","U","lightshift","",""
"","","","","","html-slider-response","78","250121","0.0-74.0","5cxjcgvzdx","6","NaN","<div style=""width:500px;"">
                            <p style=""font-size:50px; font-weight:bold;""
                            >positive</p>
                            <div style=""width:240px; margin: auto;"">
                                <img src=""images/R_D_S_26_lightshift.png"" style= ""width:200px""alt=""img"">
                            </div>
                        </div>","-8","","0","images/R_D_S_26_lightshift.png","","","","positive","2","R","D","S","lightshift","",""
"","","","","","html-slider-response","79","252138","0.0-75.0","5cxjcgvzdx","6","NaN","<div style=""width:500px;"">
                            <p style=""font-size:50px; font-weight:bold;""
                            >positive</p>
                            <div style=""width:240px; margin: auto;"">
                                <img src=""images/R_L_S_15_darkshift.png"" style= ""width:200px""alt=""img"">
                            </div>
                        </div>","119","","0","images/R_L_S_15_darkshift.png","","","","positive","2","R","L","S","darkshift","",""
"","","","","","html-slider-response","80","254254","0.0-76.0","5cxjcgvzdx","6","NaN","<div style=""width:500px;"">
                            <p style=""font-size:50px; font-weight:bold;""
                            >positive</p>
                            <div style=""width:240px; margin: auto;"">
                                <img src=""images/R_D_S_26_darkshift.png"" style= ""width:200px""alt=""img"">
                            </div>
                        </div>","-13","","0","images/R_D_S_26_darkshift.png","","","","positive","1","R","D","S","darkshift","",""
"","","","","","html-slider-response","81","256071","0.0-77.0","5cxjcgvzdx","6","NaN","<div style=""width:500px;"">
                            <p style=""font-size:50px; font-weight:bold;""
                            >positive</p>
                            <div style=""width:240px; margin: auto;"">
                                <img src=""images/G_L_S_28_lightshift.png"" style= ""width:200px""alt=""img"">
                            </div>
                        </div>","9","","0","images/G_L_S_28_lightshift.png","","","","positive","2","G","L","S","lightshift","",""
"","","","","","html-button-response","82","258643","0.0-78.0","5cxjcgvzdx","6","2070","<p>Great Job! You've finished block 1.<br></br> You have 3 block(s) left to go.<br></br></p>","0","","","","","","","","","","","","","",""
"","","","","","html-button-response","83","259561","0.0-79.0","5cxjcgvzdx","6","917","<p>In this block of trials, you will be asked to rate how much you associate each map with:</p > <p style = 'font-size:150%; font-weight: bold'>calm</p><br></br>","0","","","","","","","","","","","","","",""
"","","","","","html-slider-response","84","260870","0.0-80.0","5cxjcgvzdx","6","NaN","<div style=""width:500px;"">
                            <p style=""font-size:50px; font-weight:bold;""
                            >calm</p>
                            <div style=""width:240px; margin: auto;"">
                                <img src=""images/G_D_S_33_lightshift.png"" style= ""width:200px""alt=""img"">
                            </div>
                        </div>","-66","","0","images/G_D_S_33_lightshift.png","","","","calm","1","G","D","S","lightshift","",""
"","","","","","html-slider-response","85","262754","0.0-81.0","5cxjcgvzdx","6","NaN","<div style=""width:500px;"">
                            <p style=""font-size:50px; font-weight:bold;""
                            >calm</p>
                            <div style=""width:240px; margin: auto;"">
                                <img src=""images/Y_L_S_7_darkshift.png"" style= ""width:200px""alt=""img"">
                            </div>
                        </div>","82","","0","images/Y_L_S_7_darkshift.png","","","","calm","2","Y","L","S","darkshift","",""
"","","","","","html-slider-response","86","264837","0.0-82.0","5cxjcgvzdx","6","NaN","<div style=""width:500px;"">
                            <p style=""font-size:50px; font-weight:bold;""
                            >calm</p>
                            <div style=""width:240px; margin: auto;"">
                                <img src=""images/B_D_S_2_lightshift.png"" style= ""width:200px""alt=""img"">
                            </div>
                        </div>","192","","0","images/B_D_S_2_lightshift.png","","","","calm","2","B","D","S","lightshift","",""
"","","","","","html-slider-response","87","266787","0.0-83.0","5cxjcgvzdx","6","NaN","<div style=""width:500px;"">
                            <p style=""font-size:50px; font-weight:bold;""
                            >calm</p>
                            <div style=""width:240px; margin: auto;"">
                                <img src=""images/B_D_S_2_darkshift.png"" style= ""width:200px""alt=""img"">
                            </div>
                        </div>","200","","0","images/B_D_S_2_darkshift.png","","","","calm","2","B","D","S","darkshift","",""
"","","","","","html-slider-response","88","268989","0.0-84.0","5cxjcgvzdx","6","NaN","<div style=""width:500px;"">
                            <p style=""font-size:50px; font-weight:bold;""
                            >calm</p>
                            <div style=""width:240px; margin: auto;"">
                                <img src=""images/G_D_S_33_lightshift.png"" style= ""width:200px""alt=""img"">
                            </div>
                        </div>","-10","","0","images/G_D_S_33_lightshift.png","","","","calm","2","G","D","S","lightshift","",""
"","","","","","html-slider-response","89","270688","0.0-85.0","5cxjcgvzdx","6","NaN","<div style=""width:500px;"">
                            <p style=""font-size:50px; font-weight:bold;""
                            >calm</p>
                            <div style=""width:240px; margin: auto;"">
                                <img src=""images/Y_L_U_10_lightshift.png"" style= ""width:200px""alt=""img"">
                            </div>
                        </div>","32","","0","images/Y_L_U_10_lightshift.png","","","","calm","2","Y","L","U","lightshift","",""
"","","","","","html-slider-response","90","272554","0.0-86.0","5cxjcgvzdx","6","NaN","<div style=""width:500px;"">
                            <p style=""font-size:50px; font-weight:bold;""
                            >calm</p>
                            <div style=""width:240px; margin: auto;"">
                                <img src=""images/Y_D_S_12_darkshift.png"" style= ""width:200px""alt=""img"">
                            </div>
                        </div>","28","","0","images/Y_D_S_12_darkshift.png","","","","calm","2","Y","D","S","darkshift","",""
"","","","","","html-slider-response","91","274771","0.0-87.0","5cxjcgvzdx","6","NaN","<div style=""width:500px;"">
                            <p style=""font-size:50px; font-weight:bold;""
                            >calm</p>
                            <div style=""width:240px; margin: auto;"">
                                <img src=""images/G_L_U_30_darkshift.png"" style= ""width:200px""alt=""img"">
                            </div>
                        </div>","14","","0","images/G_L_U_30_darkshift.png","","","","calm","2","G","L","U","darkshift","",""
"","","","","","html-slider-response","92","276737","0.0-88.0","5cxjcgvzdx","6","NaN","<div style=""width:500px;"">
                            <p style=""font-size:50px; font-weight:bold;""
                            >calm</p>
                            <div style=""width:240px; margin: auto;"">
                                <img src=""images/B_L_S_41_lightshift.png"" style= ""width:200px""alt=""img"">
                            </div>
                        </div>","-17","","0","images/B_L_S_41_lightshift.png","","","","calm","1","B","L","S","lightshift","",""
"","","","","","html-slider-response","93","278655","0.0-89.0","5cxjcgvzdx","6","NaN","<div style=""width:500px;"">
                            <p style=""font-size:50px; font-weight:bold;""
                            >calm</p>
                            <div style=""width:240px; margin: auto;"">
                                <img src=""images/R_D_S_26_lightshift.png"" style= ""width:200px""alt=""img"">
                            </div>
                        </div>","-61","","0","images/R_D_S_26_lightshift.png","","","","calm","1","R","D","S","lightshift","",""
"","","","","","html-slider-response","94","280706","0.0-90.0","5cxjcgvzdx","6","NaN","<div style=""width:500px;"">
                            <p style=""font-size:50px; font-weight:bold;""
                            >calm</p>
                            <div style=""width:240px; margin: auto;"">
                                <img src=""images/Y_D_U_13_lightshift.png"" style= ""width:200px""alt=""img"">
                            </div>
                        </div>","-145","","0","images/Y_D_U_13_lightshift.png","","","","calm","1","Y","D","U","lightshift","",""
"","","","","","html-slider-response","95","282521","0.0-91.0","5cxjcgvzdx","6","NaN","<div style=""width:500px;"">
                            <p style=""font-size:50px; font-weight:bold;""
                            >calm</p>
                            <div style=""width:240px; margin: auto;"">
                                <img src=""images/B_D_U_5_darkshift.png"" style= ""width:200px""alt=""img"">
                            </div>
                        </div>","46","","0","images/B_D_U_5_darkshift.png","","","","calm","1","B","D","U","darkshift","",""
"","","","","","html-slider-response","96","284254","0.0-92.0","5cxjcgvzdx","6","NaN","<div style=""width:500px;"">
                            <p style=""font-size:50px; font-weight:bold;""
                            >calm</p>
                            <div style=""width:240px; margin: auto;"">
                                <img src=""images/Y_L_S_7_lightshift.png"" style= ""width:200px""alt=""img"">
                            </div>
                        </div>","69","","0","images/Y_L_S_7_lightshift.png","","","","calm","1","Y","L","S","lightshift","",""
"","","","","","html-slider-response","97","285854","0.0-93.0","5cxjcgvzdx","6","NaN","<div style=""width:500px;"">
                            <p style=""font-size:50px; font-weight:bold;""
                            >calm</p>
                            <div style=""width:240px; margin: auto;"">
                                <img src=""images/R_D_U_27_lightshift.png"" style= ""width:200px""alt=""img"">
                            </div>
                        </div>","-142","","0","images/R_D_U_27_lightshift.png","","","","calm","1","R","D","U","lightshift","",""
"","","","","","html-slider-response","98","287704","0.0-94.0","5cxjcgvzdx","6","NaN","<div style=""width:500px;"">
                            <p style=""font-size:50px; font-weight:bold;""
                            >calm</p>
                            <div style=""width:240px; margin: auto;"">
                                <img src=""images/G_L_S_28_lightshift.png"" style= ""width:200px""alt=""img"">
                            </div>
                        </div>","38","","0","images/G_L_S_28_lightshift.png","","","","calm","2","G","L","S","lightshift","",""
"","","","","","html-slider-response","99","289254","0.0-95.0","5cxjcgvzdx","6","NaN","<div style=""width:500px;"">
                            <p style=""font-size:50px; font-weight:bold;""
                            >calm</p>
                            <div style=""width:240px; margin: auto;"">
                                <img src=""images/G_L_U_30_lightshift.png"" style= ""width:200px""alt=""img"">
                            </div>
                        </div>","23","","0","images/G_L_U_30_lightshift.png","","","","calm","1","G","L","U","lightshift","",""
"","","","","","html-slider-response","100","290621","0.0-96.0","5cxjcgvzdx","6","NaN","<div style=""width:500px;"">
                            <p style=""font-size:50px; font-weight:bold;""
                            >calm</p>
                            <div style=""width:240px; margin: auto;"">
                                <img src=""images/R_L_S_15_darkshift.png"" style= ""width:200px""alt=""img"">
                            </div>
                        </div>","28","","0","images/R_L_S_15_darkshift.png","","","","calm","2","R","L","S","darkshift","",""
"","","","","","html-slider-response","101","292404","0.0-97.0","5cxjcgvzdx","6","NaN","<div style=""width:500px;"">
                            <p style=""font-size:50px; font-weight:bold;""
                            >calm</p>
                            <div style=""width:240px; margin: auto;"">
                                <img src=""images/B_D_U_5_lightshift.png"" style= ""width:200px""alt=""img"">
                            </div>
                        </div>","61","","0","images/B_D_U_5_lightshift.png","","","","calm","2","B","D","U","lightshift","",""
"","","","","","html-slider-response","102","294887","0.0-98.0","5cxjcgvzdx","6","NaN","<div style=""width:500px;"">
                            <p style=""font-size:50px; font-weight:bold;""
                            >calm</p>
                            <div style=""width:240px; margin: auto;"">
                                <img src=""images/G_D_U_37_darkshift.png"" style= ""width:200px""alt=""img"">
                            </div>
                        </div>","18","","0","images/G_D_U_37_darkshift.png","","","","calm","2","G","D","U","darkshift","",""
"","","","","","html-slider-response","103","297254","0.0-99.0","5cxjcgvzdx","6","NaN","<div style=""width:500px;"">
                            <p style=""font-size:50px; font-weight:bold;""
                            >calm</p>
                            <div style=""width:240px; margin: auto;"">
                                <img src=""images/G_D_U_37_darkshift.png"" style= ""width:200px""alt=""img"">
                            </div>
                        </div>","17","","0","images/G_D_U_37_darkshift.png","","","","calm","1","G","D","U","darkshift","",""
"","","","","","html-slider-response","104","302471","0.0-100.0","5cxjcgvzdx","6","NaN","<div style=""width:500px;"">
                            <p style=""font-size:50px; font-weight:bold;""
                            >calm</p>
                            <div style=""width:240px; margin: auto;"">
                                <img src=""images/G_L_S_28_darkshift.png"" style= ""width:200px""alt=""img"">
                            </div>
                        </div>","-16","","0","images/G_L_S_28_darkshift.png","","","","calm","1","G","L","S","darkshift","",""
"","","","","","html-slider-response","105","304905","0.0-101.0","5cxjcgvzdx","6","NaN","<div style=""width:500px;"">
                            <p style=""font-size:50px; font-weight:bold;""
                            >calm</p>
                            <div style=""width:240px; margin: auto;"">
                                <img src=""images/R_D_U_27_lightshift.png"" style= ""width:200px""alt=""img"">
                            </div>
                        </div>","-19","","0","images/R_D_U_27_lightshift.png","","","","calm","2","R","D","U","lightshift","",""
"","","","","","html-slider-response","106","307371","0.0-102.0","5cxjcgvzdx","6","NaN","<div style=""width:500px;"">
                            <p style=""font-size:50px; font-weight:bold;""
                            >calm</p>
                            <div style=""width:240px; margin: auto;"">
                                <img src=""images/Y_D_S_12_darkshift.png"" style= ""width:200px""alt=""img"">
                            </div>
                        </div>","-22","","0","images/Y_D_S_12_darkshift.png","","","","calm","1","Y","D","S","darkshift","",""
"","","","","","html-slider-response","107","310204","0.0-103.0","5cxjcgvzdx","6","NaN","<div style=""width:500px;"">
                            <p style=""font-size:50px; font-weight:bold;""
                            >calm</p>
                            <div style=""width:240px; margin: auto;"">
                                <img src=""images/G_L_S_28_darkshift.png"" style= ""width:200px""alt=""img"">
                            </div>
                        </div>","13","","0","images/G_L_S_28_darkshift.png","","","","calm","2","G","L","S","darkshift","",""
"","","","","","html-slider-response","108","312137","0.0-104.0","5cxjcgvzdx","6","NaN","<div style=""width:500px;"">
                            <p style=""font-size:50px; font-weight:bold;""
                            >calm</p>
                            <div style=""width:240px; margin: auto;"">
                                <img src=""images/R_D_S_26_darkshift.png"" style= ""width:200px""alt=""img"">
                            </div>
                        </div>","-60","","0","images/R_D_S_26_darkshift.png","","","","calm","2","R","D","S","darkshift","",""
"","","","","","html-slider-response","109","314053","0.0-105.0","5cxjcgvzdx","6","NaN","<div style=""width:500px;"">
                            <p style=""font-size:50px; font-weight:bold;""
                            >calm</p>
                            <div style=""width:240px; margin: auto;"">
                                <img src=""images/G_D_S_33_darkshift.png"" style= ""width:200px""alt=""img"">
                            </div>
                        </div>","22","","0","images/G_D_S_33_darkshift.png","","","","calm","2","G","D","S","darkshift","",""
"","","","","","html-slider-response","110","315737","0.0-106.0","5cxjcgvzdx","6","NaN","<div style=""width:500px;"">
                            <p style=""font-size:50px; font-weight:bold;""
                            >calm</p>
                            <div style=""width:240px; margin: auto;"">
                                <img src=""images/G_L_U_30_darkshift.png"" style= ""width:200px""alt=""img"">
                            </div>
                        </div>","38","","0","images/G_L_U_30_darkshift.png","","","","calm","1","G","L","U","darkshift","",""
"","","","","","html-slider-response","111","317437","0.0-107.0","5cxjcgvzdx","6","NaN","<div style=""width:500px;"">
                            <p style=""font-size:50px; font-weight:bold;""
                            >calm</p>
                            <div style=""width:240px; margin: auto;"">
                                <img src=""images/R_D_U_27_darkshift.png"" style= ""width:200px""alt=""img"">
                            </div>
                        </div>","-31","","0","images/R_D_U_27_darkshift.png","","","","calm","2","R","D","U","darkshift","",""
"","","","","","html-slider-response","112","319337","0.0-108.0","5cxjcgvzdx","6","NaN","<div style=""width:500px;"">
                            <p style=""font-size:50px; font-weight:bold;""
                            >calm</p>
                            <div style=""width:240px; margin: auto;"">
                                <img src=""images/R_L_U_23_darkshift.png"" style= ""width:200px""alt=""img"">
                            </div>
                        </div>","-74","","0","images/R_L_U_23_darkshift.png","","","","calm","2","R","L","U","darkshift","",""
"","","","","","html-slider-response","113","321505","0.0-109.0","5cxjcgvzdx","6","NaN","<div style=""width:500px;"">
                            <p style=""font-size:50px; font-weight:bold;""
                            >calm</p>
                            <div style=""width:240px; margin: auto;"">
                                <img src=""images/G_D_U_37_lightshift.png"" style= ""width:200px""alt=""img"">
                            </div>
                        </div>","-56","","0","images/G_D_U_37_lightshift.png","","","","calm","1","G","D","U","lightshift","",""
"","","","","","html-slider-response","114","323088","0.0-110.0","5cxjcgvzdx","6","NaN","<div style=""width:500px;"">
                            <p style=""font-size:50px; font-weight:bold;""
                            >calm</p>
                            <div style=""width:240px; margin: auto;"">
                                <img src=""images/R_D_S_26_lightshift.png"" style= ""width:200px""alt=""img"">
                            </div>
                        </div>","22","","0","images/R_D_S_26_lightshift.png","","","","calm","2","R","D","S","lightshift","",""
"","","","","","html-slider-response","115","325255","0.0-111.0","5cxjcgvzdx","6","NaN","<div style=""width:500px;"">
                            <p style=""font-size:50px; font-weight:bold;""
                            >calm</p>
                            <div style=""width:240px; margin: auto;"">
                                <img src=""images/G_D_S_33_darkshift.png"" style= ""width:200px""alt=""img"">
                            </div>
                        </div>","-27","","0","images/G_D_S_33_darkshift.png","","","","calm","1","G","D","S","darkshift","",""
"","","","","","html-slider-response","116","327170","0.0-112.0","5cxjcgvzdx","6","NaN","<div style=""width:500px;"">
                            <p style=""font-size:50px; font-weight:bold;""
                            >calm</p>
                            <div style=""width:240px; margin: auto;"">
                                <img src=""images/Y_D_S_12_lightshift.png"" style= ""width:200px""alt=""img"">
                            </div>
                        </div>","-65","","0","images/Y_D_S_12_lightshift.png","","","","calm","1","Y","D","S","lightshift","",""
"","","","","","html-slider-response","117","329437","0.0-113.0","5cxjcgvzdx","6","NaN","<div style=""width:500px;"">
                            <p style=""font-size:50px; font-weight:bold;""
                            >calm</p>
                            <div style=""width:240px; margin: auto;"">
                                <img src=""images/R_D_U_27_darkshift.png"" style= ""width:200px""alt=""img"">
                            </div>
                        </div>","-17","","0","images/R_D_U_27_darkshift.png","","","","calm","1","R","D","U","darkshift","",""
"","","","","","html-slider-response","118","331454","0.0-114.0","5cxjcgvzdx","6","NaN","<div style=""width:500px;"">
                            <p style=""font-size:50px; font-weight:bold;""
                            >calm</p>
                            <div style=""width:240px; margin: auto;"">
                                <img src=""images/Y_L_U_10_darkshift.png"" style= ""width:200px""alt=""img"">
                            </div>
                        </div>","-16","","0","images/Y_L_U_10_darkshift.png","","","","calm","1","Y","L","U","darkshift","",""
"","","","","","html-slider-response","119","333737","0.0-115.0","5cxjcgvzdx","6","NaN","<div style=""width:500px;"">
                            <p style=""font-size:50px; font-weight:bold;""
                            >calm</p>
                            <div style=""width:240px; margin: auto;"">
                                <img src=""images/R_L_S_15_lightshift.png"" style= ""width:200px""alt=""img"">
                            </div>
                        </div>","62","","0","images/R_L_S_15_lightshift.png","","","","calm","2","R","L","S","lightshift","",""
"","","","","","html-slider-response","120","337403","0.0-116.0","5cxjcgvzdx","6","NaN","<div style=""width:500px;"">
                            <p style=""font-size:50px; font-weight:bold;""
                            >calm</p>
                            <div style=""width:240px; margin: auto;"">
                                <img src=""images/Y_D_U_13_darkshift.png"" style= ""width:200px""alt=""img"">
                            </div>
                        </div>","-41","","0","images/Y_D_U_13_darkshift.png","","","","calm","2","Y","D","U","darkshift","",""
"","","","","","html-slider-response","121","352839","0.0-117.0","5cxjcgvzdx","6","NaN","<div style=""width:500px;"">
                            <p style=""font-size:50px; font-weight:bold;""
                            >calm</p>
                            <div style=""width:240px; margin: auto;"">
                                <img src=""images/G_D_U_37_lightshift.png"" style= ""width:200px""alt=""img"">
                            </div>
                        </div>","16","","0","images/G_D_U_37_lightshift.png","","","","calm","2","G","D","U","lightshift","",""
"","","","","","html-slider-response","122","355170","0.0-118.0","5cxjcgvzdx","6","NaN","<div style=""width:500px;"">
                            <p style=""font-size:50px; font-weight:bold;""
                            >calm</p>
                            <div style=""width:240px; margin: auto;"">
                                <img src=""images/Y_D_U_13_darkshift.png"" style= ""width:200px""alt=""img"">
                            </div>
                        </div>","-33","","0","images/Y_D_U_13_darkshift.png","","","","calm","1","Y","D","U","darkshift","",""
"","","","","","html-slider-response","123","358936","0.0-119.0","5cxjcgvzdx","6","NaN","<div style=""width:500px;"">
                            <p style=""font-size:50px; font-weight:bold;""
                            >calm</p>
                            <div style=""width:240px; margin: auto;"">
                                <img src=""images/B_L_U_44_lightshift.png"" style= ""width:200px""alt=""img"">
                            </div>
                        </div>","35","","0","images/B_L_U_44_lightshift.png","","","","calm","2","B","L","U","lightshift","",""
"","","","","","html-slider-response","124","360905","0.0-120.0","5cxjcgvzdx","6","NaN","<div style=""width:500px;"">
                            <p style=""font-size:50px; font-weight:bold;""
                            >calm</p>
                            <div style=""width:240px; margin: auto;"">
                                <img src=""images/Y_L_S_7_darkshift.png"" style= ""width:200px""alt=""img"">
                            </div>
                        </div>","185","","0","images/Y_L_S_7_darkshift.png","","","","calm","1","Y","L","S","darkshift","",""
"","","","","","html-slider-response","125","363287","0.0-121.0","5cxjcgvzdx","6","NaN","<div style=""width:500px;"">
                            <p style=""font-size:50px; font-weight:bold;""
                            >calm</p>
                            <div style=""width:240px; margin: auto;"">
                                <img src=""images/G_L_U_30_lightshift.png"" style= ""width:200px""alt=""img"">
                            </div>
                        </div>","63","","0","images/G_L_U_30_lightshift.png","","","","calm","2","G","L","U","lightshift","",""
"","","","","","html-slider-response","126","365553","0.0-122.0","5cxjcgvzdx","6","NaN","<div style=""width:500px;"">
                            <p style=""font-size:50px; font-weight:bold;""
                            >calm</p>
                            <div style=""width:240px; margin: auto;"">
                                <img src=""images/R_L_U_23_darkshift.png"" style= ""width:200px""alt=""img"">
                            </div>
                        </div>","52","","0","images/R_L_U_23_darkshift.png","","","","calm","1","R","L","U","darkshift","",""
"","","","","","html-slider-response","127","367236","0.0-123.0","5cxjcgvzdx","6","NaN","<div style=""width:500px;"">
                            <p style=""font-size:50px; font-weight:bold;""
                            >calm</p>
                            <div style=""width:240px; margin: auto;"">
                                <img src=""images/R_L_U_23_lightshift.png"" style= ""width:200px""alt=""img"">
                            </div>
                        </div>","21","","0","images/R_L_U_23_lightshift.png","","","","calm","2","R","L","U","lightshift","",""
"","","","","","html-slider-response","128","369020","0.0-124.0","5cxjcgvzdx","6","NaN","<div style=""width:500px;"">
                            <p style=""font-size:50px; font-weight:bold;""
                            >calm</p>
                            <div style=""width:240px; margin: auto;"">
                                <img src=""images/B_D_U_5_lightshift.png"" style= ""width:200px""alt=""img"">
                            </div>
                        </div>","54","","0","images/B_D_U_5_lightshift.png","","","","calm","1","B","D","U","lightshift","",""
"","","","","","html-slider-response","129","371453","0.0-125.0","5cxjcgvzdx","6","NaN","<div style=""width:500px;"">
                            <p style=""font-size:50px; font-weight:bold;""
                            >calm</p>
                            <div style=""width:240px; margin: auto;"">
                                <img src=""images/B_L_U_44_darkshift.png"" style= ""width:200px""alt=""img"">
                            </div>
                        </div>","197","","0","images/B_L_U_44_darkshift.png","","","","calm","2","B","L","U","darkshift","",""
"","","","","","html-slider-response","130","373153","0.0-126.0","5cxjcgvzdx","6","NaN","<div style=""width:500px;"">
                            <p style=""font-size:50px; font-weight:bold;""
                            >calm</p>
                            <div style=""width:240px; margin: auto;"">
                                <img src=""images/B_D_S_2_darkshift.png"" style= ""width:200px""alt=""img"">
                            </div>
                        </div>","186","","0","images/B_D_S_2_darkshift.png","","","","calm","1","B","D","S","darkshift","",""
"","","","","","html-slider-response","131","375420","0.0-127.0","5cxjcgvzdx","6","NaN","<div style=""width:500px;"">
                            <p style=""font-size:50px; font-weight:bold;""
                            >calm</p>
                            <div style=""width:240px; margin: auto;"">
                                <img src=""images/Y_L_U_10_lightshift.png"" style= ""width:200px""alt=""img"">
                            </div>
                        </div>","-65","","0","images/Y_L_U_10_lightshift.png","","","","calm","1","Y","L","U","lightshift","",""
"","","","","","html-slider-response","132","377853","0.0-128.0","5cxjcgvzdx","6","NaN","<div style=""width:500px;"">
                            <p style=""font-size:50px; font-weight:bold;""
                            >calm</p>
                            <div style=""width:240px; margin: auto;"">
                                <img src=""images/R_L_S_15_lightshift.png"" style= ""width:200px""alt=""img"">
                            </div>
                        </div>","62","","0","images/R_L_S_15_lightshift.png","","","","calm","1","R","L","S","lightshift","",""
"","","","","","html-slider-response","133","379903","0.0-129.0","5cxjcgvzdx","6","NaN","<div style=""width:500px;"">
                            <p style=""font-size:50px; font-weight:bold;""
                            >calm</p>
                            <div style=""width:240px; margin: auto;"">
                                <img src=""images/B_L_S_41_darkshift.png"" style= ""width:200px""alt=""img"">
                            </div>
                        </div>","194","","0","images/B_L_S_41_darkshift.png","","","","calm","2","B","L","S","darkshift","",""
"","","","","","html-slider-response","134","381836","0.0-130.0","5cxjcgvzdx","6","NaN","<div style=""width:500px;"">
                            <p style=""font-size:50px; font-weight:bold;""
                            >calm</p>
                            <div style=""width:240px; margin: auto;"">
                                <img src=""images/Y_L_S_7_lightshift.png"" style= ""width:200px""alt=""img"">
                            </div>
                        </div>","176","","0","images/Y_L_S_7_lightshift.png","","","","calm","2","Y","L","S","lightshift","",""
"","","","","","html-slider-response","135","384119","0.0-131.0","5cxjcgvzdx","6","NaN","<div style=""width:500px;"">
                            <p style=""font-size:50px; font-weight:bold;""
                            >calm</p>
                            <div style=""width:240px; margin: auto;"">
                                <img src=""images/R_L_U_23_lightshift.png"" style= ""width:200px""alt=""img"">
                            </div>
                        </div>","-21","","0","images/R_L_U_23_lightshift.png","","","","calm","1","R","L","U","lightshift","",""
"","","","","","html-slider-response","136","386487","0.0-132.0","5cxjcgvzdx","6","NaN","<div style=""width:500px;"">
                            <p style=""font-size:50px; font-weight:bold;""
                            >calm</p>
                            <div style=""width:240px; margin: auto;"">
                                <img src=""images/B_D_S_2_lightshift.png"" style= ""width:200px""alt=""img"">
                            </div>
                        </div>","197","","0","images/B_D_S_2_lightshift.png","","","","calm","1","B","D","S","lightshift","",""
"","","","","","html-slider-response","137","388503","0.0-133.0","5cxjcgvzdx","6","NaN","<div style=""width:500px;"">
                            <p style=""font-size:50px; font-weight:bold;""
                            >calm</p>
                            <div style=""width:240px; margin: auto;"">
                                <img src=""images/B_L_U_44_lightshift.png"" style= ""width:200px""alt=""img"">
                            </div>
                        </div>","125","","0","images/B_L_U_44_lightshift.png","","","","calm","1","B","L","U","lightshift","",""
"","","","","","html-slider-response","138","391036","0.0-134.0","5cxjcgvzdx","6","NaN","<div style=""width:500px;"">
                            <p style=""font-size:50px; font-weight:bold;""
                            >calm</p>
                            <div style=""width:240px; margin: auto;"">
                                <img src=""images/Y_L_U_10_darkshift.png"" style= ""width:200px""alt=""img"">
                            </div>
                        </div>","108","","0","images/Y_L_U_10_darkshift.png","","","","calm","2","Y","L","U","darkshift","",""
"","","","","","html-slider-response","139","393269","0.0-135.0","5cxjcgvzdx","6","NaN","<div style=""width:500px;"">
                            <p style=""font-size:50px; font-weight:bold;""
                            >calm</p>
                            <div style=""width:240px; margin: auto;"">
                                <img src=""images/B_D_U_5_darkshift.png"" style= ""width:200px""alt=""img"">
                            </div>
                        </div>","26","","0","images/B_D_U_5_darkshift.png","","","","calm","2","B","D","U","darkshift","",""
"","","","","","html-slider-response","140","395419","0.0-136.0","5cxjcgvzdx","6","NaN","<div style=""width:500px;"">
                            <p style=""font-size:50px; font-weight:bold;""
                            >calm</p>
                            <div style=""width:240px; margin: auto;"">
                                <img src=""images/B_L_S_41_lightshift.png"" style= ""width:200px""alt=""img"">
                            </div>
                        </div>","-39","","0","images/B_L_S_41_lightshift.png","","","","calm","2","B","L","S","lightshift","",""
"","","","","","html-slider-response","141","399603","0.0-137.0","5cxjcgvzdx","6","NaN","<div style=""width:500px;"">
                            <p style=""font-size:50px; font-weight:bold;""
                            >calm</p>
                            <div style=""width:240px; margin: auto;"">
                                <img src=""images/Y_D_S_12_lightshift.png"" style= ""width:200px""alt=""img"">
                            </div>
                        </div>","-30","","0","images/Y_D_S_12_lightshift.png","","","","calm","2","Y","D","S","lightshift","",""
"","","","","","html-slider-response","142","402103","0.0-138.0","5cxjcgvzdx","6","NaN","<div style=""width:500px;"">
                            <p style=""font-size:50px; font-weight:bold;""
                            >calm</p>
                            <div style=""width:240px; margin: auto;"">
                                <img src=""images/G_L_S_28_lightshift.png"" style= ""width:200px""alt=""img"">
                            </div>
                        </div>","31","","0","images/G_L_S_28_lightshift.png","","","","calm","1","G","L","S","lightshift","",""
"","","","","","html-slider-response","143","404752","0.0-139.0","5cxjcgvzdx","6","NaN","<div style=""width:500px;"">
                            <p style=""font-size:50px; font-weight:bold;""
                            >calm</p>
                            <div style=""width:240px; margin: auto;"">
                                <img src=""images/Y_D_U_13_lightshift.png"" style= ""width:200px""alt=""img"">
                            </div>
                        </div>","-81","","0","images/Y_D_U_13_lightshift.png","","","","calm","2","Y","D","U","lightshift","",""
"","","","","","html-slider-response","144","406636","0.0-140.0","5cxjcgvzdx","6","NaN","<div style=""width:500px;"">
                            <p style=""font-size:50px; font-weight:bold;""
                            >calm</p>
                            <div style=""width:240px; margin: auto;"">
                                <img src=""images/B_L_U_44_darkshift.png"" style= ""width:200px""alt=""img"">
                            </div>
                        </div>","196","","0","images/B_L_U_44_darkshift.png","","","","calm","1","B","L","U","darkshift","",""
"","","","","","html-slider-response","145","407969","0.0-141.0","5cxjcgvzdx","6","NaN","<div style=""width:500px;"">
                            <p style=""font-size:50px; font-weight:bold;""
                            >calm</p>
                            <div style=""width:240px; margin: auto;"">
                                <img src=""images/B_L_S_41_darkshift.png"" style= ""width:200px""alt=""img"">
                            </div>
                        </div>","194","","0","images/B_L_S_41_darkshift.png","","","","calm","1","B","L","S","darkshift","",""
"","","","","","html-slider-response","146","409970","0.0-142.0","5cxjcgvzdx","6","NaN","<div style=""width:500px;"">
                            <p style=""font-size:50px; font-weight:bold;""
                            >calm</p>
                            <div style=""width:240px; margin: auto;"">
                                <img src=""images/R_D_S_26_darkshift.png"" style= ""width:200px""alt=""img"">
                            </div>
                        </div>","-53","","0","images/R_D_S_26_darkshift.png","","","","calm","1","R","D","S","darkshift","",""
"","","","","","html-slider-response","147","412036","0.0-143.0","5cxjcgvzdx","6","NaN","<div style=""width:500px;"">
                            <p style=""font-size:50px; font-weight:bold;""
                            >calm</p>
                            <div style=""width:240px; margin: auto;"">
                                <img src=""images/R_L_S_15_darkshift.png"" style= ""width:200px""alt=""img"">
                            </div>
                        </div>","37","","0","images/R_L_S_15_darkshift.png","","","","calm","1","R","L","S","darkshift","",""
"","","","","","html-button-response","148","415193","0.0-144.0","5cxjcgvzdx","6","2654","<p>Great Job! You've finished block 2.<br></br> You have 2 block(s) left to go.<br></br></p>","0","","","","","","","","","","","","","",""
"","","","","","html-button-response","149","419225","0.0-145.0","5cxjcgvzdx","6","4031","<p>In this block of trials, you will be asked to rate how much you associate each map with:</p > <p style = 'font-size:150%; font-weight: bold'>startling</p><br></br>","0","","","","","","","","","","","","","",""
"","","","","","html-slider-response","150","421936","0.0-146.0","5cxjcgvzdx","6","NaN","<div style=""width:500px;"">
                            <p style=""font-size:50px; font-weight:bold;""
                            >startling</p>
                            <div style=""width:240px; margin: auto;"">
                                <img src=""images/G_L_U_30_lightshift.png"" style= ""width:200px""alt=""img"">
                            </div>
                        </div>","37","","0","images/G_L_U_30_lightshift.png","","","","startling","2","G","L","U","lightshift","",""
"","","","","","html-slider-response","151","424253","0.0-147.0","5cxjcgvzdx","6","NaN","<div style=""width:500px;"">
                            <p style=""font-size:50px; font-weight:bold;""
                            >startling</p>
                            <div style=""width:240px; margin: auto;"">
                                <img src=""images/Y_L_U_10_lightshift.png"" style= ""width:200px""alt=""img"">
                            </div>
                        </div>","20","","0","images/Y_L_U_10_lightshift.png","","","","startling","1","Y","L","U","lightshift","",""
"","","","","","html-slider-response","152","426502","0.0-148.0","5cxjcgvzdx","6","NaN","<div style=""width:500px;"">
                            <p style=""font-size:50px; font-weight:bold;""
                            >startling</p>
                            <div style=""width:240px; margin: auto;"">
                                <img src=""images/R_L_S_15_lightshift.png"" style= ""width:200px""alt=""img"">
                            </div>
                        </div>","44","","0","images/R_L_S_15_lightshift.png","","","","startling","2","R","L","S","lightshift","",""
"","","","","","html-slider-response","153","428219","0.0-149.0","5cxjcgvzdx","6","NaN","<div style=""width:500px;"">
                            <p style=""font-size:50px; font-weight:bold;""
                            >startling</p>
                            <div style=""width:240px; margin: auto;"">
                                <img src=""images/B_L_S_41_darkshift.png"" style= ""width:200px""alt=""img"">
                            </div>
                        </div>","-35","","0","images/B_L_S_41_darkshift.png","","","","startling","2","B","L","S","darkshift","",""
"","","","","","html-slider-response","154","429836","0.0-150.0","5cxjcgvzdx","6","NaN","<div style=""width:500px;"">
                            <p style=""font-size:50px; font-weight:bold;""
                            >startling</p>
                            <div style=""width:240px; margin: auto;"">
                                <img src=""images/G_L_S_28_lightshift.png"" style= ""width:200px""alt=""img"">
                            </div>
                        </div>","-35","","0","images/G_L_S_28_lightshift.png","","","","startling","2","G","L","S","lightshift","",""
"","","","","","html-slider-response","155","433286","0.0-151.0","5cxjcgvzdx","6","NaN","<div style=""width:500px;"">
                            <p style=""font-size:50px; font-weight:bold;""
                            >startling</p>
                            <div style=""width:240px; margin: auto;"">
                                <img src=""images/Y_D_U_13_darkshift.png"" style= ""width:200px""alt=""img"">
                            </div>
                        </div>","84","","0","images/Y_D_U_13_darkshift.png","","","","startling","1","Y","D","U","darkshift","",""
"","","","","","html-slider-response","156","434986","0.0-152.0","5cxjcgvzdx","6","NaN","<div style=""width:500px;"">
                            <p style=""font-size:50px; font-weight:bold;""
                            >startling</p>
                            <div style=""width:240px; margin: auto;"">
                                <img src=""images/R_D_U_27_darkshift.png"" style= ""width:200px""alt=""img"">
                            </div>
                        </div>","54","","0","images/R_D_U_27_darkshift.png","","","","startling","1","R","D","U","darkshift","",""
"","","","","","html-slider-response","157","437003","0.0-153.0","5cxjcgvzdx","6","NaN","<div style=""width:500px;"">
                            <p style=""font-size:50px; font-weight:bold;""
                            >startling</p>
                            <div style=""width:240px; margin: auto;"">
                                <img src=""images/B_L_U_44_darkshift.png"" style= ""width:200px""alt=""img"">
                            </div>
                        </div>","-77","","0","images/B_L_U_44_darkshift.png","","","","startling","2","B","L","U","darkshift","",""
"","","","","","html-slider-response","158","438769","0.0-154.0","5cxjcgvzdx","6","NaN","<div style=""width:500px;"">
                            <p style=""font-size:50px; font-weight:bold;""
                            >startling</p>
                            <div style=""width:240px; margin: auto;"">
                                <img src=""images/G_L_S_28_lightshift.png"" style= ""width:200px""alt=""img"">
                            </div>
                        </div>","-58","","0","images/G_L_S_28_lightshift.png","","","","startling","1","G","L","S","lightshift","",""
"","","","","","html-slider-response","159","441703","0.0-155.0","5cxjcgvzdx","6","NaN","<div style=""width:500px;"">
                            <p style=""font-size:50px; font-weight:bold;""
                            >startling</p>
                            <div style=""width:240px; margin: auto;"">
                                <img src=""images/R_D_S_26_darkshift.png"" style= ""width:200px""alt=""img"">
                            </div>
                        </div>","51","","0","images/R_D_S_26_darkshift.png","","","","startling","1","R","D","S","darkshift","",""
"","","","","","html-slider-response","160","443270","0.0-156.0","5cxjcgvzdx","6","NaN","<div style=""width:500px;"">
                            <p style=""font-size:50px; font-weight:bold;""
                            >startling</p>
                            <div style=""width:240px; margin: auto;"">
                                <img src=""images/G_L_U_30_lightshift.png"" style= ""width:200px""alt=""img"">
                            </div>
                        </div>","23","","0","images/G_L_U_30_lightshift.png","","","","startling","1","G","L","U","lightshift","",""
"","","","","","html-slider-response","161","445153","0.0-157.0","5cxjcgvzdx","6","NaN","<div style=""width:500px;"">
                            <p style=""font-size:50px; font-weight:bold;""
                            >startling</p>
                            <div style=""width:240px; margin: auto;"">
                                <img src=""images/G_L_S_28_darkshift.png"" style= ""width:200px""alt=""img"">
                            </div>
                        </div>","-31","","0","images/G_L_S_28_darkshift.png","","","","startling","1","G","L","S","darkshift","",""
"","","","","","html-slider-response","162","447053","0.0-158.0","5cxjcgvzdx","6","NaN","<div style=""width:500px;"">
                            <p style=""font-size:50px; font-weight:bold;""
                            >startling</p>
                            <div style=""width:240px; margin: auto;"">
                                <img src=""images/B_L_U_44_lightshift.png"" style= ""width:200px""alt=""img"">
                            </div>
                        </div>","-19","","0","images/B_L_U_44_lightshift.png","","","","startling","1","B","L","U","lightshift","",""
"","","","","","html-slider-response","163","449820","0.0-159.0","5cxjcgvzdx","6","NaN","<div style=""width:500px;"">
                            <p style=""font-size:50px; font-weight:bold;""
                            >startling</p>
                            <div style=""width:240px; margin: auto;"">
                                <img src=""images/Y_D_U_13_lightshift.png"" style= ""width:200px""alt=""img"">
                            </div>
                        </div>","30","","0","images/Y_D_U_13_lightshift.png","","","","startling","2","Y","D","U","lightshift","",""
"","","","","","html-slider-response","164","451836","0.0-160.0","5cxjcgvzdx","6","NaN","<div style=""width:500px;"">
                            <p style=""font-size:50px; font-weight:bold;""
                            >startling</p>
                            <div style=""width:240px; margin: auto;"">
                                <img src=""images/B_D_U_5_darkshift.png"" style= ""width:200px""alt=""img"">
                            </div>
                        </div>","-134","","0","images/B_D_U_5_darkshift.png","","","","startling","2","B","D","U","darkshift","",""
"","","","","","html-slider-response","165","453769","0.0-161.0","5cxjcgvzdx","6","NaN","<div style=""width:500px;"">
                            <p style=""font-size:50px; font-weight:bold;""
                            >startling</p>
                            <div style=""width:240px; margin: auto;"">
                                <img src=""images/R_D_S_26_darkshift.png"" style= ""width:200px""alt=""img"">
                            </div>
                        </div>","40","","0","images/R_D_S_26_darkshift.png","","","","startling","2","R","D","S","darkshift","",""
"","","","","","html-slider-response","166","456302","0.0-162.0","5cxjcgvzdx","6","NaN","<div style=""width:500px;"">
                            <p style=""font-size:50px; font-weight:bold;""
                            >startling</p>
                            <div style=""width:240px; margin: auto;"">
                                <img src=""images/R_L_U_23_darkshift.png"" style= ""width:200px""alt=""img"">
                            </div>
                        </div>","-50","","0","images/R_L_U_23_darkshift.png","","","","startling","2","R","L","U","darkshift","",""
"","","","","","html-slider-response","167","459019","0.0-163.0","5cxjcgvzdx","6","NaN","<div style=""width:500px;"">
                            <p style=""font-size:50px; font-weight:bold;""
                            >startling</p>
                            <div style=""width:240px; margin: auto;"">
                                <img src=""images/G_D_U_37_lightshift.png"" style= ""width:200px""alt=""img"">
                            </div>
                        </div>","-30","","0","images/G_D_U_37_lightshift.png","","","","startling","1","G","D","U","lightshift","",""
"","","","","","html-slider-response","168","460936","0.0-164.0","5cxjcgvzdx","6","NaN","<div style=""width:500px;"">
                            <p style=""font-size:50px; font-weight:bold;""
                            >startling</p>
                            <div style=""width:240px; margin: auto;"">
                                <img src=""images/Y_L_U_10_lightshift.png"" style= ""width:200px""alt=""img"">
                            </div>
                        </div>","34","","0","images/Y_L_U_10_lightshift.png","","","","startling","2","Y","L","U","lightshift","",""
"","","","","","html-slider-response","169","469419","0.0-165.0","5cxjcgvzdx","6","NaN","<div style=""width:500px;"">
                            <p style=""font-size:50px; font-weight:bold;""
                            >startling</p>
                            <div style=""width:240px; margin: auto;"">
                                <img src=""images/R_D_S_26_lightshift.png"" style= ""width:200px""alt=""img"">
                            </div>
                        </div>","-42","","0","images/R_D_S_26_lightshift.png","","","","startling","2","R","D","S","lightshift","",""
"","","","","","html-slider-response","170","472052","0.0-166.0","5cxjcgvzdx","6","NaN","<div style=""width:500px;"">
                            <p style=""font-size:50px; font-weight:bold;""
                            >startling</p>
                            <div style=""width:240px; margin: auto;"">
                                <img src=""images/Y_L_S_7_darkshift.png"" style= ""width:200px""alt=""img"">
                            </div>
                        </div>","28","","0","images/Y_L_S_7_darkshift.png","","","","startling","1","Y","L","S","darkshift","",""
"","","","","","html-slider-response","171","474969","0.0-167.0","5cxjcgvzdx","6","NaN","<div style=""width:500px;"">
                            <p style=""font-size:50px; font-weight:bold;""
                            >startling</p>
                            <div style=""width:240px; margin: auto;"">
                                <img src=""images/R_L_U_23_lightshift.png"" style= ""width:200px""alt=""img"">
                            </div>
                        </div>","62","","0","images/R_L_U_23_lightshift.png","","","","startling","2","R","L","U","lightshift","",""
"","","","","","html-slider-response","172","477436","0.0-168.0","5cxjcgvzdx","6","NaN","<div style=""width:500px;"">
                            <p style=""font-size:50px; font-weight:bold;""
                            >startling</p>
                            <div style=""width:240px; margin: auto;"">
                                <img src=""images/B_D_S_2_darkshift.png"" style= ""width:200px""alt=""img"">
                            </div>
                        </div>","-149","","0","images/B_D_S_2_darkshift.png","","","","startling","2","B","D","S","darkshift","",""
"","","","","","html-slider-response","173","479385","0.0-169.0","5cxjcgvzdx","6","NaN","<div style=""width:500px;"">
                            <p style=""font-size:50px; font-weight:bold;""
                            >startling</p>
                            <div style=""width:240px; margin: auto;"">
                                <img src=""images/R_D_U_27_lightshift.png"" style= ""width:200px""alt=""img"">
                            </div>
