"success","timeout","failed_images","failed_audio","failed_video","trial_type","trial_index","time_elapsed","internal_node_id","subject_id","condition_num","rt","stimulus","response","question_order","slider_start","image_path","practiceTrial","practiceTrialNum","correct","concept","repetition","hue","lightness","saturation","shift","ishihara_plate","correct_response"
"true","false","[]","[]","[]","preload","0","541","0.0-0.0","7c1ond1jxo","11","","","","","","","","","","","","","","","","",""
"","","","","","html-button-response","1","5489","0.0-1.0","7c1ond1jxo","11","4945","Welcome to our experiment!<p>At the bottom of this screen, you will see a button that says ""Begin Experiment"".<br>Please only click that button when you are ready to complete the 25 minute experiment in one sitting.</p><p> Once you click that button, it will not be possible to restart the experiment.","0","","","","","","","","","","","","","",""
"true","","","","","fullscreen","2","8590","0.0-2.0","7c1ond1jxo","11","2092","","","","","","","","","","","","","","","",""
"","","","","","survey-multi-select","3","20689","0.0-3.0","7c1ond1jxo","11","12095","","{""Consent"":[""<strong>I consent</strong>""]}","[0]","","","","","","","","","","","","",""
"","","","","","html-button-response","4","34045","0.0-4.0","7c1ond1jxo","11","13353","Welcome! <p> This experiment involves two parts: demographic information, followed by the experimental task.<p> It will take about 25 minutes to complete both parts.","0","","","","","","","","","","","","","",""
"","","","","","survey-text","5","66152","0.0-5.0","7c1ond1jxo","11","32082","","{""Age"":""20"",""Gender"":""Female"",""Race/ethnicity"":""Hispanic/Latino"",""Languages"":""English, Spanish""}","","","","","","","","","","","","","",""
"","","","","","html-slider-response","6","169731","0.0-6.0","7c1ond1jxo","11","103576","
                            <div style='text-align:left; font-size:20px; line-height:25px; width: 1400px;'>
                                During this experiment you will be asked to rate how much you associate maps with                    different concepts.<br> Below, you can see some examples of the maps you will be asked to rate. Next to the maps
                    is the list of concepts.<br>You will be asked                    to rate how much you associate each map with each concept on a scale from 'not at all' to 'very much' like the
                    one below. <br><br>
                    Now, please look at the list of concepts and maps. For each concept, think about the map you associate 'very
                    much' with the concept.<br>                     When you see that map during the experiment, please rate it near the 'very much' endpoint of the
                    scale.<br>Now, please think about which map you associate 'not at all'                     with each concept. When you see that map during the experiment, please rate it near the 'not at all' endpoint
                    of the scale.<br>
                    Please use the full range of the scale. That is, if a map is somewhat associated with the concept, you would
                    click partway between the middle point and right side of the scale.                    You will be asked to rate each map for a given concept before moving on to the next concept.<br><br>Press the
                    'Continue' button for instructions on how to use the slider.                    <br><br>
                </div>

                <div style=""width: 500px; margin: 0 auto;"">
                    <!-- Centered text paragraphs -->
                    <div style=""text-align: center; width: 500px;"">
                        <p style=""font-size:25px; line-height:18px;"">calm</p>
                        <p style=""font-size:25px; line-height:18px;"">positive</p>
                        <p style=""font-size:25px;line-height:18px;"">negative</p>
                        <p style=""font-size:25px;line-height:18px;"">startling</p>
                    </div>

                    <!-- Grid section -->
                   <div style=""display: flex; justify-content: center; padding-top: 15px;"">
                    <div style=""display: grid; grid-template-columns: repeat(8, 80px); grid-gap: 5px; width: auto;"">
                        <img src=""images/B_L_U_12_darkshift.png"" alt=""map"" style=""width: 100%;""><img src=""images/G_L_U_2_darkshift.png"" alt=""map"" style=""width: 100%;""><img src=""images/G_L_S_44_darkshift.png"" alt=""map"" style=""width: 100%;""><img src=""images/R_D_S_37_lightshift.png"" alt=""map"" style=""width: 100%;""><img src=""images/G_D_U_7_darkshift.png"" alt=""map"" style=""width: 100%;""><img src=""images/G_D_S_5_darkshift.png"" alt=""map"" style=""width: 100%;""><img src=""images/Y_L_S_23_darkshift.png"" alt=""map"" style=""width: 100%;""><img src=""images/G_L_S_44_lightshift.png"" alt=""map"" style=""width: 100%;""><img src=""images/B_D_U_15_darkshift.png"" alt=""map"" style=""width: 100%;""><img src=""images/Y_L_U_26_darkshift.png"" alt=""map"" style=""width: 100%;""><img src=""images/B_D_U_15_lightshift.png"" alt=""map"" style=""width: 100%;""><img src=""images/R_D_U_41_lightshift.png"" alt=""map"" style=""width: 100%;""><img src=""images/R_L_U_33_darkshift.png"" alt=""map"" style=""width: 100%;""><img src=""images/G_D_U_7_lightshift.png"" alt=""map"" style=""width: 100%;""><img src=""images/G_L_U_2_lightshift.png"" alt=""map"" style=""width: 100%;""><img src=""images/B_D_S_13_darkshift.png"" alt=""map"" style=""width: 100%;""><img src=""images/B_L_U_12_lightshift.png"" alt=""map"" style=""width: 100%;""><img src=""images/R_L_S_30_lightshift.png"" alt=""map"" style=""width: 100%;""><img src=""images/Y_D_S_27_lightshift.png"" alt=""map"" style=""width: 100%;""><img src=""images/R_L_S_30_darkshift.png"" alt=""map"" style=""width: 100%;""><img src=""images/B_D_S_13_lightshift.png"" alt=""map"" style=""width: 100%;""><img src=""images/Y_D_U_28_darkshift.png"" alt=""map"" style=""width: 100%;""><img src=""images/Y_L_U_26_lightshift.png"" alt=""map"" style=""width: 100%;""><img src=""images/Y_L_S_23_lightshift.png"" alt=""map"" style=""width: 100%;""><img src=""images/G_D_S_5_lightshift.png"" alt=""map"" style=""width: 100%;""><img src=""images/B_L_S_10_lightshift.png"" alt=""map"" style=""width: 100%;""><img src=""images/Y_D_S_27_darkshift.png"" alt=""map"" style=""width: 100%;""><img src=""images/R_L_U_33_lightshift.png"" alt=""map"" style=""width: 100%;""><img src=""images/B_L_S_10_darkshift.png"" alt=""map"" style=""width: 100%;""><img src=""images/R_D_U_41_darkshift.png"" alt=""map"" style=""width: 100%;""><img src=""images/Y_D_U_28_lightshift.png"" alt=""map"" style=""width: 100%;""><img src=""images/R_D_S_37_darkshift.png"" alt=""map"" style=""width: 100%;"">
                    </div>
                </div>

                    <!-- Clear floats -->
                    <div style=""clear: both;""></div>
                </div>
                            ","null","","0","maps_anchoring.png","true","","","","","","","","","",""
"","","","","","html-button-response","7","187148","0.0-7.0","7c1ond1jxo","11","17416","<div style=""width:800px;""><p style=""text-align:left"">To move the slider, click and drag your cursor to the location of the scale where you would like to make your rating and then let go. When you let go of the slider, your response will be recorded and the next trial will begin. <br>
                    We are interested in your initial impressions of each map for the given concept, so please go with your first intuition. <br>
                    Before you begin the experiment, there will be four training trials for you to practice using the scale. <br>
                     When you are ready to start the training trials, please click ""Continue"".</p><br></div>","0","","","","","","","","","","","","","",""
"","","","","","html-slider-response","8","193396","0.0-8.0-0.0","7c1ond1jxo","11","NaN","<div style=""width:500px;"">
                                    <p style=""font-size:25px;"">Please move the slider all the way to the <br> right endpoint of the scale</p>

                                    </div>
                                </div>","200","","0","","true","0","true","","","","","","","",""
"","","","","","html-button-response","9","195515","0.0-8.0-1.0","7c1ond1jxo","11","1615","<p align='center'><b>Good job!</b> Click on 'Continue' to proceed.</p>","0","","","","","","","","","","","","","",""
"","","","","","html-slider-response","10","198336","0.0-9.0-0.0","7c1ond1jxo","11","NaN","<div style=""width:500px;"">
                                    <p style=""font-size:25px;"">Please move the slider all the way to the <br> left endpoint of the scale</p>

                                    </div>
                                </div>","-200","","0","","true","1","true","","","","","","","",""
"","","","","","html-button-response","11","200046","0.0-9.0-1.0","7c1ond1jxo","11","1209","<p align='center'><b>Good job!</b> Click on 'Continue' to proceed.</p>","0","","","","","","","","","","","","","",""
"","","","","","html-slider-response","12","205908","0.0-10.0-0.0","7c1ond1jxo","11","NaN","<div style=""width:500px;"">
                                    <p style=""font-size:25px;"">Please move the slider halfway between the center and right endpoint of the scale</p>

                                    </div>
                                </div>","99","","0","","true","2","true","","","","","","","",""
"","","","","","html-button-response","13","207322","0.0-10.0-1.0","7c1ond1jxo","11","903","<p align='center'><b>Good job!</b> Click on 'Continue' to proceed.</p>","0","","","","","","","","","","","","","",""
"","","","","","html-slider-response","14","210483","0.0-11.0-0.0","7c1ond1jxo","11","NaN","<div style=""width:500px;"">
                                    <p style=""font-size:25px;"">Please move the slider halfway between the center and left endpoint of the scale</p>

                                    </div>
                                </div>","-102","","0","","true","3","true","","","","","","","",""
"","","","","","html-button-response","15","810073","0.0-11.0-1.0","7c1ond1jxo","11","599089","<p align='center'><b>Good job!</b> Click on 'Continue' to proceed.</p>","0","","","","","","","","","","","","","",""
"","","","","","html-button-response","16","812898","0.0-12.0","7c1ond1jxo","11","2824","<p>Great job! You've completed the practice trials. Now you will begin the main task.</p>","0","","","","","","","","","","","","","",""
"","","","","","html-button-response","17","818306","0.0-13.0","7c1ond1jxo","11","5407","<p>In this block of trials, you will be asked to rate how much you associate each map with:</p > <p style = 'font-size:150%; font-weight: bold'>calm</p><br></br>","0","","","","","","","","","","","","","",""
"","","","","","html-slider-response","18","823726","0.0-14.0","7c1ond1jxo","11","NaN","<div style=""width:500px;"">
                            <p style=""font-size:50px; font-weight:bold;""
                            >calm</p>
                            <div style=""width:240px; margin: auto;"">
                                <img src=""images/B_L_U_12_lightshift.png"" style= ""width:200px""alt=""img"">
                            </div>
                        </div>","-37","","0","images/B_L_U_12_lightshift.png","","","","calm","1","B","L","U","lightshift","",""
"","","","","","html-slider-response","19","826580","0.0-15.0","7c1ond1jxo","11","NaN","<div style=""width:500px;"">
                            <p style=""font-size:50px; font-weight:bold;""
                            >calm</p>
                            <div style=""width:240px; margin: auto;"">
                                <img src=""images/G_D_S_5_lightshift.png"" style= ""width:200px""alt=""img"">
                            </div>
                        </div>","27","","0","images/G_D_S_5_lightshift.png","","","","calm","1","G","D","S","lightshift","",""
"","","","","","html-slider-response","20","830112","0.0-16.0","7c1ond1jxo","11","NaN","<div style=""width:500px;"">
                            <p style=""font-size:50px; font-weight:bold;""
                            >calm</p>
                            <div style=""width:240px; margin: auto;"">
                                <img src=""images/R_L_S_30_darkshift.png"" style= ""width:200px""alt=""img"">
                            </div>
                        </div>","-121","","0","images/R_L_S_30_darkshift.png","","","","calm","1","R","L","S","darkshift","",""
"","","","","","html-slider-response","21","833818","0.0-17.0","7c1ond1jxo","11","NaN","<div style=""width:500px;"">
                            <p style=""font-size:50px; font-weight:bold;""
                            >calm</p>
                            <div style=""width:240px; margin: auto;"">
                                <img src=""images/Y_L_S_23_darkshift.png"" style= ""width:200px""alt=""img"">
                            </div>
                        </div>","-97","","0","images/Y_L_S_23_darkshift.png","","","","calm","1","Y","L","S","darkshift","",""
"","","","","","html-slider-response","22","838149","0.0-18.0","7c1ond1jxo","11","NaN","<div style=""width:500px;"">
                            <p style=""font-size:50px; font-weight:bold;""
                            >calm</p>
                            <div style=""width:240px; margin: auto;"">
                                <img src=""images/G_D_U_7_lightshift.png"" style= ""width:200px""alt=""img"">
                            </div>
                        </div>","86","","0","images/G_D_U_7_lightshift.png","","","","calm","2","G","D","U","lightshift","",""
"","","","","","html-slider-response","23","844326","0.0-19.0","7c1ond1jxo","11","NaN","<div style=""width:500px;"">
                            <p style=""font-size:50px; font-weight:bold;""
                            >calm</p>
                            <div style=""width:240px; margin: auto;"">
                                <img src=""images/Y_L_U_26_darkshift.png"" style= ""width:200px""alt=""img"">
                            </div>
                        </div>","34","","0","images/Y_L_U_26_darkshift.png","","","","calm","2","Y","L","U","darkshift","",""
"","","","","","html-slider-response","24","848303","0.0-20.0","7c1ond1jxo","11","NaN","<div style=""width:500px;"">
                            <p style=""font-size:50px; font-weight:bold;""
                            >calm</p>
                            <div style=""width:240px; margin: auto;"">
                                <img src=""images/B_L_S_10_darkshift.png"" style= ""width:200px""alt=""img"">
                            </div>
                        </div>","77","","0","images/B_L_S_10_darkshift.png","","","","calm","2","B","L","S","darkshift","",""
"","","","","","html-slider-response","25","854450","0.0-21.0","7c1ond1jxo","11","NaN","<div style=""width:500px;"">
                            <p style=""font-size:50px; font-weight:bold;""
                            >calm</p>
                            <div style=""width:240px; margin: auto;"">
                                <img src=""images/Y_D_U_28_darkshift.png"" style= ""width:200px""alt=""img"">
                            </div>
                        </div>","131","","0","images/Y_D_U_28_darkshift.png","","","","calm","1","Y","D","U","darkshift","",""
"","","","","","html-slider-response","26","859664","0.0-22.0","7c1ond1jxo","11","NaN","<div style=""width:500px;"">
                            <p style=""font-size:50px; font-weight:bold;""
                            >calm</p>
                            <div style=""width:240px; margin: auto;"">
                                <img src=""images/G_L_S_44_lightshift.png"" style= ""width:200px""alt=""img"">
                            </div>
                        </div>","80","","0","images/G_L_S_44_lightshift.png","","","","calm","2","G","L","S","lightshift","",""
"","","","","","html-slider-response","27","863414","0.0-23.0","7c1ond1jxo","11","NaN","<div style=""width:500px;"">
                            <p style=""font-size:50px; font-weight:bold;""
                            >calm</p>
                            <div style=""width:240px; margin: auto;"">
                                <img src=""images/Y_D_U_28_lightshift.png"" style= ""width:200px""alt=""img"">
                            </div>
                        </div>","-147","","0","images/Y_D_U_28_lightshift.png","","","","calm","1","Y","D","U","lightshift","",""
"","","","","","html-slider-response","28","866299","0.0-24.0","7c1ond1jxo","11","NaN","<div style=""width:500px;"">
                            <p style=""font-size:50px; font-weight:bold;""
                            >calm</p>
                            <div style=""width:240px; margin: auto;"">
                                <img src=""images/G_D_U_7_lightshift.png"" style= ""width:200px""alt=""img"">
                            </div>
                        </div>","124","","0","images/G_D_U_7_lightshift.png","","","","calm","1","G","D","U","lightshift","",""
"","","","","","html-slider-response","29","868495","0.0-25.0","7c1ond1jxo","11","NaN","<div style=""width:500px;"">
                            <p style=""font-size:50px; font-weight:bold;""
                            >calm</p>
                            <div style=""width:240px; margin: auto;"">
                                <img src=""images/B_L_S_10_lightshift.png"" style= ""width:200px""alt=""img"">
                            </div>
                        </div>","65","","0","images/B_L_S_10_lightshift.png","","","","calm","2","B","L","S","lightshift","",""
"","","","","","html-slider-response","30","873080","0.0-26.0","7c1ond1jxo","11","NaN","<div style=""width:500px;"">
                            <p style=""font-size:50px; font-weight:bold;""
                            >calm</p>
                            <div style=""width:240px; margin: auto;"">
                                <img src=""images/B_D_S_13_lightshift.png"" style= ""width:200px""alt=""img"">
                            </div>
                        </div>","-45","","0","images/B_D_S_13_lightshift.png","","","","calm","1","B","D","S","lightshift","",""
"","","","","","html-slider-response","31","876530","0.0-27.0","7c1ond1jxo","11","NaN","<div style=""width:500px;"">
                            <p style=""font-size:50px; font-weight:bold;""
                            >calm</p>
                            <div style=""width:240px; margin: auto;"">
                                <img src=""images/Y_L_S_23_lightshift.png"" style= ""width:200px""alt=""img"">
                            </div>
                        </div>","-142","","0","images/Y_L_S_23_lightshift.png","","","","calm","1","Y","L","S","lightshift","",""
"","","","","","html-slider-response","32","880797","0.0-28.0","7c1ond1jxo","11","NaN","<div style=""width:500px;"">
                            <p style=""font-size:50px; font-weight:bold;""
                            >calm</p>
                            <div style=""width:240px; margin: auto;"">
                                <img src=""images/B_D_S_13_darkshift.png"" style= ""width:200px""alt=""img"">
                            </div>
                        </div>","-168","","0","images/B_D_S_13_darkshift.png","","","","calm","1","B","D","S","darkshift","",""
"","","","","","html-slider-response","33","884285","0.0-29.0","7c1ond1jxo","11","NaN","<div style=""width:500px;"">
                            <p style=""font-size:50px; font-weight:bold;""
                            >calm</p>
                            <div style=""width:240px; margin: auto;"">
                                <img src=""images/G_L_S_44_darkshift.png"" style= ""width:200px""alt=""img"">
                            </div>
                        </div>","141","","0","images/G_L_S_44_darkshift.png","","","","calm","2","G","L","S","darkshift","",""
"","","","","","html-slider-response","34","889109","0.0-30.0","7c1ond1jxo","11","NaN","<div style=""width:500px;"">
                            <p style=""font-size:50px; font-weight:bold;""
                            >calm</p>
                            <div style=""width:240px; margin: auto;"">
                                <img src=""images/R_D_U_41_darkshift.png"" style= ""width:200px""alt=""img"">
                            </div>
                        </div>","-177","","0","images/R_D_U_41_darkshift.png","","","","calm","2","R","D","U","darkshift","",""
"","","","","","html-slider-response","35","892521","0.0-31.0","7c1ond1jxo","11","NaN","<div style=""width:500px;"">
                            <p style=""font-size:50px; font-weight:bold;""
                            >calm</p>
                            <div style=""width:240px; margin: auto;"">
                                <img src=""images/B_L_U_12_darkshift.png"" style= ""width:200px""alt=""img"">
                            </div>
                        </div>","155","","0","images/B_L_U_12_darkshift.png","","","","calm","2","B","L","U","darkshift","",""
"","","","","","html-slider-response","36","895564","0.0-32.0","7c1ond1jxo","11","NaN","<div style=""width:500px;"">
                            <p style=""font-size:50px; font-weight:bold;""
                            >calm</p>
                            <div style=""width:240px; margin: auto;"">
                                <img src=""images/B_L_U_12_darkshift.png"" style= ""width:200px""alt=""img"">
                            </div>
                        </div>","167","","0","images/B_L_U_12_darkshift.png","","","","calm","1","B","L","U","darkshift","",""
"","","","","","html-slider-response","37","898762","0.0-33.0","7c1ond1jxo","11","NaN","<div style=""width:500px;"">
                            <p style=""font-size:50px; font-weight:bold;""
                            >calm</p>
                            <div style=""width:240px; margin: auto;"">
                                <img src=""images/B_D_U_15_darkshift.png"" style= ""width:200px""alt=""img"">
                            </div>
                        </div>","-91","","0","images/B_D_U_15_darkshift.png","","","","calm","1","B","D","U","darkshift","",""
"","","","","","html-slider-response","38","901381","0.0-34.0","7c1ond1jxo","11","NaN","<div style=""width:500px;"">
                            <p style=""font-size:50px; font-weight:bold;""
                            >calm</p>
                            <div style=""width:240px; margin: auto;"">
                                <img src=""images/Y_D_S_27_lightshift.png"" style= ""width:200px""alt=""img"">
                            </div>
                        </div>","-168","","0","images/Y_D_S_27_lightshift.png","","","","calm","2","Y","D","S","lightshift","",""
"","","","","","html-slider-response","39","903415","0.0-35.0","7c1ond1jxo","11","NaN","<div style=""width:500px;"">
                            <p style=""font-size:50px; font-weight:bold;""
                            >calm</p>
                            <div style=""width:240px; margin: auto;"">
                                <img src=""images/R_L_S_30_lightshift.png"" style= ""width:200px""alt=""img"">
                            </div>
                        </div>","-85","","0","images/R_L_S_30_lightshift.png","","","","calm","2","R","L","S","lightshift","",""
"","","","","","html-slider-response","40","906427","0.0-36.0","7c1ond1jxo","11","NaN","<div style=""width:500px;"">
                            <p style=""font-size:50px; font-weight:bold;""
                            >calm</p>
                            <div style=""width:240px; margin: auto;"">
                                <img src=""images/G_D_U_7_darkshift.png"" style= ""width:200px""alt=""img"">
                            </div>
                        </div>","121","","0","images/G_D_U_7_darkshift.png","","","","calm","1","G","D","U","darkshift","",""
"","","","","","html-slider-response","41","908418","0.0-37.0","7c1ond1jxo","11","NaN","<div style=""width:500px;"">
                            <p style=""font-size:50px; font-weight:bold;""
                            >calm</p>
                            <div style=""width:240px; margin: auto;"">
                                <img src=""images/G_D_S_5_lightshift.png"" style= ""width:200px""alt=""img"">
                            </div>
                        </div>","-91","","0","images/G_D_S_5_lightshift.png","","","","calm","2","G","D","S","lightshift","",""
"","","","","","html-slider-response","42","914226","0.0-38.0","7c1ond1jxo","11","NaN","<div style=""width:500px;"">
                            <p style=""font-size:50px; font-weight:bold;""
                            >calm</p>
                            <div style=""width:240px; margin: auto;"">
                                <img src=""images/R_L_U_33_lightshift.png"" style= ""width:200px""alt=""img"">
                            </div>
                        </div>","-192","","0","images/R_L_U_33_lightshift.png","","","","calm","1","R","L","U","lightshift","",""
"","","","","","html-slider-response","43","917950","0.0-39.0","7c1ond1jxo","11","NaN","<div style=""width:500px;"">
                            <p style=""font-size:50px; font-weight:bold;""
                            >calm</p>
                            <div style=""width:240px; margin: auto;"">
                                <img src=""images/B_L_U_12_lightshift.png"" style= ""width:200px""alt=""img"">
                            </div>
                        </div>","-190","","0","images/B_L_U_12_lightshift.png","","","","calm","2","B","L","U","lightshift","",""
"","","","","","html-slider-response","44","922907","0.0-40.0","7c1ond1jxo","11","NaN","<div style=""width:500px;"">
                            <p style=""font-size:50px; font-weight:bold;""
                            >calm</p>
                            <div style=""width:240px; margin: auto;"">
                                <img src=""images/R_D_S_37_darkshift.png"" style= ""width:200px""alt=""img"">
                            </div>
                        </div>","-110","","0","images/R_D_S_37_darkshift.png","","","","calm","2","R","D","S","darkshift","",""
"","","","","","html-slider-response","45","925348","0.0-41.0","7c1ond1jxo","11","NaN","<div style=""width:500px;"">
                            <p style=""font-size:50px; font-weight:bold;""
                            >calm</p>
                            <div style=""width:240px; margin: auto;"">
                                <img src=""images/Y_L_U_26_darkshift.png"" style= ""width:200px""alt=""img"">
                            </div>
                        </div>","-142","","0","images/Y_L_U_26_darkshift.png","","","","calm","1","Y","L","U","darkshift","",""
"","","","","","html-slider-response","46","927936","0.0-42.0","7c1ond1jxo","11","NaN","<div style=""width:500px;"">
                            <p style=""font-size:50px; font-weight:bold;""
                            >calm</p>
                            <div style=""width:240px; margin: auto;"">
                                <img src=""images/G_L_S_44_lightshift.png"" style= ""width:200px""alt=""img"">
                            </div>
                        </div>","107","","0","images/G_L_S_44_lightshift.png","","","","calm","1","G","L","S","lightshift","",""
"","","","","","html-slider-response","47","931077","0.0-43.0","7c1ond1jxo","11","NaN","<div style=""width:500px;"">
                            <p style=""font-size:50px; font-weight:bold;""
                            >calm</p>
                            <div style=""width:240px; margin: auto;"">
                                <img src=""images/G_L_U_2_darkshift.png"" style= ""width:200px""alt=""img"">
                            </div>
                        </div>","-51","","0","images/G_L_U_2_darkshift.png","","","","calm","1","G","L","U","darkshift","",""
"","","","","","html-slider-response","48","933480","0.0-44.0","7c1ond1jxo","11","NaN","<div style=""width:500px;"">
                            <p style=""font-size:50px; font-weight:bold;""
                            >calm</p>
                            <div style=""width:240px; margin: auto;"">
                                <img src=""images/R_D_U_41_lightshift.png"" style= ""width:200px""alt=""img"">
                            </div>
                        </div>","-126","","0","images/R_D_U_41_lightshift.png","","","","calm","1","R","D","U","lightshift","",""
"","","","","","html-slider-response","49","938377","0.0-45.0","7c1ond1jxo","11","NaN","<div style=""width:500px;"">
                            <p style=""font-size:50px; font-weight:bold;""
                            >calm</p>
                            <div style=""width:240px; margin: auto;"">
                                <img src=""images/B_L_S_10_darkshift.png"" style= ""width:200px""alt=""img"">
                            </div>
                        </div>","46","","0","images/B_L_S_10_darkshift.png","","","","calm","1","B","L","S","darkshift","",""
"","","","","","html-slider-response","50","940379","0.0-46.0","7c1ond1jxo","11","NaN","<div style=""width:500px;"">
                            <p style=""font-size:50px; font-weight:bold;""
                            >calm</p>
                            <div style=""width:240px; margin: auto;"">
                                <img src=""images/G_L_U_2_darkshift.png"" style= ""width:200px""alt=""img"">
                            </div>
                        </div>","24","","0","images/G_L_U_2_darkshift.png","","","","calm","2","G","L","U","darkshift","",""
"","","","","","html-slider-response","51","942984","0.0-47.0","7c1ond1jxo","11","NaN","<div style=""width:500px;"">
                            <p style=""font-size:50px; font-weight:bold;""
                            >calm</p>
                            <div style=""width:240px; margin: auto;"">
                                <img src=""images/B_D_U_15_lightshift.png"" style= ""width:200px""alt=""img"">
                            </div>
                        </div>","-73","","0","images/B_D_U_15_lightshift.png","","","","calm","2","B","D","U","lightshift","",""
"","","","","","html-slider-response","52","945588","0.0-48.0","7c1ond1jxo","11","NaN","<div style=""width:500px;"">
                            <p style=""font-size:50px; font-weight:bold;""
                            >calm</p>
                            <div style=""width:240px; margin: auto;"">
                                <img src=""images/Y_L_S_23_darkshift.png"" style= ""width:200px""alt=""img"">
                            </div>
                        </div>","-200","","0","images/Y_L_S_23_darkshift.png","","","","calm","2","Y","L","S","darkshift","",""
"","","","","","html-slider-response","53","948499","0.0-49.0","7c1ond1jxo","11","NaN","<div style=""width:500px;"">
                            <p style=""font-size:50px; font-weight:bold;""
                            >calm</p>
                            <div style=""width:240px; margin: auto;"">
                                <img src=""images/G_L_S_44_darkshift.png"" style= ""width:200px""alt=""img"">
                            </div>
                        </div>","31","","0","images/G_L_S_44_darkshift.png","","","","calm","1","G","L","S","darkshift","",""
"","","","","","html-slider-response","54","950213","0.0-50.0","7c1ond1jxo","11","NaN","<div style=""width:500px;"">
                            <p style=""font-size:50px; font-weight:bold;""
                            >calm</p>
                            <div style=""width:240px; margin: auto;"">
                                <img src=""images/B_D_U_15_darkshift.png"" style= ""width:200px""alt=""img"">
                            </div>
                        </div>","-69","","0","images/B_D_U_15_darkshift.png","","","","calm","2","B","D","U","darkshift","",""
"","","","","","html-slider-response","55","953506","0.0-51.0","7c1ond1jxo","11","NaN","<div style=""width:500px;"">
                            <p style=""font-size:50px; font-weight:bold;""
                            >calm</p>
                            <div style=""width:240px; margin: auto;"">
                                <img src=""images/Y_L_U_26_lightshift.png"" style= ""width:200px""alt=""img"">
                            </div>
                        </div>","-155","","0","images/Y_L_U_26_lightshift.png","","","","calm","2","Y","L","U","lightshift","",""
"","","","","","html-slider-response","56","956828","0.0-52.0","7c1ond1jxo","11","NaN","<div style=""width:500px;"">
                            <p style=""font-size:50px; font-weight:bold;""
                            >calm</p>
                            <div style=""width:240px; margin: auto;"">
                                <img src=""images/R_L_U_33_darkshift.png"" style= ""width:200px""alt=""img"">
                            </div>
                        </div>","-94","","0","images/R_L_U_33_darkshift.png","","","","calm","2","R","L","U","darkshift","",""
"","","","","","html-slider-response","57","959227","0.0-53.0","7c1ond1jxo","11","NaN","<div style=""width:500px;"">
                            <p style=""font-size:50px; font-weight:bold;""
                            >calm</p>
                            <div style=""width:240px; margin: auto;"">
                                <img src=""images/B_D_U_15_lightshift.png"" style= ""width:200px""alt=""img"">
                            </div>
                        </div>","-142","","0","images/B_D_U_15_lightshift.png","","","","calm","1","B","D","U","lightshift","",""
"","","","","","html-slider-response","58","960953","0.0-54.0","7c1ond1jxo","11","NaN","<div style=""width:500px;"">
                            <p style=""font-size:50px; font-weight:bold;""
                            >calm</p>
                            <div style=""width:240px; margin: auto;"">
                                <img src=""images/R_L_U_33_darkshift.png"" style= ""width:200px""alt=""img"">
                            </div>
                        </div>","-58","","0","images/R_L_U_33_darkshift.png","","","","calm","1","R","L","U","darkshift","",""
"","","","","","html-slider-response","59","965888","0.0-55.0","7c1ond1jxo","11","NaN","<div style=""width:500px;"">
                            <p style=""font-size:50px; font-weight:bold;""
                            >calm</p>
                            <div style=""width:240px; margin: auto;"">
                                <img src=""images/B_L_S_10_lightshift.png"" style= ""width:200px""alt=""img"">
                            </div>
                        </div>","74","","0","images/B_L_S_10_lightshift.png","","","","calm","1","B","L","S","lightshift","",""
"","","","","","html-slider-response","60","967816","0.0-56.0","7c1ond1jxo","11","NaN","<div style=""width:500px;"">
                            <p style=""font-size:50px; font-weight:bold;""
                            >calm</p>
                            <div style=""width:240px; margin: auto;"">
                                <img src=""images/R_D_S_37_lightshift.png"" style= ""width:200px""alt=""img"">
                            </div>
                        </div>","-76","","0","images/R_D_S_37_lightshift.png","","","","calm","2","R","D","S","lightshift","",""
"","","","","","html-slider-response","61","970228","0.0-57.0","7c1ond1jxo","11","NaN","<div style=""width:500px;"">
                            <p style=""font-size:50px; font-weight:bold;""
                            >calm</p>
                            <div style=""width:240px; margin: auto;"">
                                <img src=""images/Y_D_S_27_darkshift.png"" style= ""width:200px""alt=""img"">
                            </div>
                        </div>","-184","","0","images/Y_D_S_27_darkshift.png","","","","calm","2","Y","D","S","darkshift","",""
"","","","","","html-slider-response","62","972187","0.0-58.0","7c1ond1jxo","11","NaN","<div style=""width:500px;"">
                            <p style=""font-size:50px; font-weight:bold;""
                            >calm</p>
                            <div style=""width:240px; margin: auto;"">
                                <img src=""images/R_D_U_41_darkshift.png"" style= ""width:200px""alt=""img"">
                            </div>
                        </div>","-190","","0","images/R_D_U_41_darkshift.png","","","","calm","1","R","D","U","darkshift","",""
"","","","","","html-slider-response","63","974746","0.0-59.0","7c1ond1jxo","11","NaN","<div style=""width:500px;"">
                            <p style=""font-size:50px; font-weight:bold;""
                            >calm</p>
                            <div style=""width:240px; margin: auto;"">
                                <img src=""images/Y_D_S_27_lightshift.png"" style= ""width:200px""alt=""img"">
                            </div>
                        </div>","-185","","0","images/Y_D_S_27_lightshift.png","","","","calm","1","Y","D","S","lightshift","",""
"","","","","","html-slider-response","64","976935","0.0-60.0","7c1ond1jxo","11","NaN","<div style=""width:500px;"">
                            <p style=""font-size:50px; font-weight:bold;""
                            >calm</p>
                            <div style=""width:240px; margin: auto;"">
                                <img src=""images/B_D_S_13_lightshift.png"" style= ""width:200px""alt=""img"">
                            </div>
                        </div>","38","","0","images/B_D_S_13_lightshift.png","","","","calm","2","B","D","S","lightshift","",""
"","","","","","html-slider-response","65","979250","0.0-61.0","7c1ond1jxo","11","NaN","<div style=""width:500px;"">
                            <p style=""font-size:50px; font-weight:bold;""
                            >calm</p>
                            <div style=""width:240px; margin: auto;"">
                                <img src=""images/G_D_S_5_darkshift.png"" style= ""width:200px""alt=""img"">
                            </div>
                        </div>","-130","","0","images/G_D_S_5_darkshift.png","","","","calm","2","G","D","S","darkshift","",""
"","","","","","html-slider-response","66","981088","0.0-62.0","7c1ond1jxo","11","NaN","<div style=""width:500px;"">
                            <p style=""font-size:50px; font-weight:bold;""
                            >calm</p>
                            <div style=""width:240px; margin: auto;"">
                                <img src=""images/Y_D_U_28_lightshift.png"" style= ""width:200px""alt=""img"">
                            </div>
                        </div>","-136","","0","images/Y_D_U_28_lightshift.png","","","","calm","2","Y","D","U","lightshift","",""
"","","","","","html-slider-response","67","982607","0.0-63.0","7c1ond1jxo","11","NaN","<div style=""width:500px;"">
                            <p style=""font-size:50px; font-weight:bold;""
                            >calm</p>
                            <div style=""width:240px; margin: auto;"">
                                <img src=""images/R_D_S_37_lightshift.png"" style= ""width:200px""alt=""img"">
                            </div>
                        </div>","-3","","0","images/R_D_S_37_lightshift.png","","","","calm","1","R","D","S","lightshift","",""
"","","","","","html-slider-response","68","986979","0.0-64.0","7c1ond1jxo","11","NaN","<div style=""width:500px;"">
                            <p style=""font-size:50px; font-weight:bold;""
                            >calm</p>
                            <div style=""width:240px; margin: auto;"">
                                <img src=""images/Y_L_S_23_lightshift.png"" style= ""width:200px""alt=""img"">
                            </div>
                        </div>","-119","","0","images/Y_L_S_23_lightshift.png","","","","calm","2","Y","L","S","lightshift","",""
"","","","","","html-slider-response","69","990837","0.0-65.0","7c1ond1jxo","11","NaN","<div style=""width:500px;"">
                            <p style=""font-size:50px; font-weight:bold;""
                            >calm</p>
                            <div style=""width:240px; margin: auto;"">
                                <img src=""images/Y_L_U_26_lightshift.png"" style= ""width:200px""alt=""img"">
                            </div>
                        </div>","-200","","0","images/Y_L_U_26_lightshift.png","","","","calm","1","Y","L","U","lightshift","",""
"","","","","","html-slider-response","70","995606","0.0-66.0","7c1ond1jxo","11","NaN","<div style=""width:500px;"">
                            <p style=""font-size:50px; font-weight:bold;""
                            >calm</p>
                            <div style=""width:240px; margin: auto;"">
                                <img src=""images/G_L_U_2_lightshift.png"" style= ""width:200px""alt=""img"">
                            </div>
                        </div>","125","","0","images/G_L_U_2_lightshift.png","","","","calm","1","G","L","U","lightshift","",""
"","","","","","html-slider-response","71","998137","0.0-67.0","7c1ond1jxo","11","NaN","<div style=""width:500px;"">
                            <p style=""font-size:50px; font-weight:bold;""
                            >calm</p>
                            <div style=""width:240px; margin: auto;"">
                                <img src=""images/Y_D_S_27_darkshift.png"" style= ""width:200px""alt=""img"">
                            </div>
                        </div>","-144","","0","images/Y_D_S_27_darkshift.png","","","","calm","1","Y","D","S","darkshift","",""
"","","","","","html-slider-response","72","1000066","0.0-68.0","7c1ond1jxo","11","NaN","<div style=""width:500px;"">
                            <p style=""font-size:50px; font-weight:bold;""
                            >calm</p>
                            <div style=""width:240px; margin: auto;"">
                                <img src=""images/R_L_S_30_darkshift.png"" style= ""width:200px""alt=""img"">
                            </div>
                        </div>","-104","","0","images/R_L_S_30_darkshift.png","","","","calm","2","R","L","S","darkshift","",""
"","","","","","html-slider-response","73","1001900","0.0-69.0","7c1ond1jxo","11","NaN","<div style=""width:500px;"">
                            <p style=""font-size:50px; font-weight:bold;""
                            >calm</p>
                            <div style=""width:240px; margin: auto;"">
                                <img src=""images/Y_D_U_28_darkshift.png"" style= ""width:200px""alt=""img"">
                            </div>
                        </div>","-151","","0","images/Y_D_U_28_darkshift.png","","","","calm","2","Y","D","U","darkshift","",""
"","","","","","html-slider-response","74","1004822","0.0-70.0","7c1ond1jxo","11","NaN","<div style=""width:500px;"">
                            <p style=""font-size:50px; font-weight:bold;""
                            >calm</p>
                            <div style=""width:240px; margin: auto;"">
                                <img src=""images/B_D_S_13_darkshift.png"" style= ""width:200px""alt=""img"">
                            </div>
                        </div>","83","","0","images/B_D_S_13_darkshift.png","","","","calm","2","B","D","S","darkshift","",""
"","","","","","html-slider-response","75","1007239","0.0-71.0","7c1ond1jxo","11","NaN","<div style=""width:500px;"">
                            <p style=""font-size:50px; font-weight:bold;""
                            >calm</p>
                            <div style=""width:240px; margin: auto;"">
                                <img src=""images/R_L_U_33_lightshift.png"" style= ""width:200px""alt=""img"">
                            </div>
                        </div>","-134","","0","images/R_L_U_33_lightshift.png","","","","calm","2","R","L","U","lightshift","",""
"","","","","","html-slider-response","76","1009369","0.0-72.0","7c1ond1jxo","11","NaN","<div style=""width:500px;"">
                            <p style=""font-size:50px; font-weight:bold;""
                            >calm</p>
                            <div style=""width:240px; margin: auto;"">
                                <img src=""images/R_D_S_37_darkshift.png"" style= ""width:200px""alt=""img"">
                            </div>
                        </div>","-112","","0","images/R_D_S_37_darkshift.png","","","","calm","1","R","D","S","darkshift","",""
"","","","","","html-slider-response","77","1012374","0.0-73.0","7c1ond1jxo","11","NaN","<div style=""width:500px;"">
                            <p style=""font-size:50px; font-weight:bold;""
                            >calm</p>
                            <div style=""width:240px; margin: auto;"">
                                <img src=""images/G_D_U_7_darkshift.png"" style= ""width:200px""alt=""img"">
                            </div>
                        </div>","34","","0","images/G_D_U_7_darkshift.png","","","","calm","2","G","D","U","darkshift","",""
"","","","","","html-slider-response","78","1014933","0.0-74.0","7c1ond1jxo","11","NaN","<div style=""width:500px;"">
                            <p style=""font-size:50px; font-weight:bold;""
                            >calm</p>
                            <div style=""width:240px; margin: auto;"">
                                <img src=""images/R_D_U_41_lightshift.png"" style= ""width:200px""alt=""img"">
                            </div>
                        </div>","-114","","0","images/R_D_U_41_lightshift.png","","","","calm","2","R","D","U","lightshift","",""
"","","","","","html-slider-response","79","1016957","0.0-75.0","7c1ond1jxo","11","NaN","<div style=""width:500px;"">
                            <p style=""font-size:50px; font-weight:bold;""
                            >calm</p>
                            <div style=""width:240px; margin: auto;"">
                                <img src=""images/G_L_U_2_lightshift.png"" style= ""width:200px""alt=""img"">
                            </div>
                        </div>","69","","0","images/G_L_U_2_lightshift.png","","","","calm","2","G","L","U","lightshift","",""
"","","","","","html-slider-response","80","1019243","0.0-76.0","7c1ond1jxo","11","NaN","<div style=""width:500px;"">
                            <p style=""font-size:50px; font-weight:bold;""
                            >calm</p>
                            <div style=""width:240px; margin: auto;"">
                                <img src=""images/R_L_S_30_lightshift.png"" style= ""width:200px""alt=""img"">
                            </div>
                        </div>","-59","","0","images/R_L_S_30_lightshift.png","","","","calm","1","R","L","S","lightshift","",""
"","","","","","html-slider-response","81","1021854","0.0-77.0","7c1ond1jxo","11","NaN","<div style=""width:500px;"">
                            <p style=""font-size:50px; font-weight:bold;""
                            >calm</p>
                            <div style=""width:240px; margin: auto;"">
                                <img src=""images/G_D_S_5_darkshift.png"" style= ""width:200px""alt=""img"">
                            </div>
                        </div>","21","","0","images/G_D_S_5_darkshift.png","","","","calm","1","G","D","S","darkshift","",""
"","","","","","html-button-response","82","1032183","0.0-78.0","7c1ond1jxo","11","9827","<p>Great Job! You've finished block 1.<br></br> You have 3 block(s) left to go.<br></br></p>","0","","","","","","","","","","","","","",""
"","","","","","html-button-response","83","1033405","0.0-79.0","7c1ond1jxo","11","1221","<p>In this block of trials, you will be asked to rate how much you associate each map with:</p > <p style = 'font-size:150%; font-weight: bold'>negative</p><br></br>","0","","","","","","","","","","","","","",""
"","","","","","html-slider-response","84","1035710","0.0-80.0","7c1ond1jxo","11","NaN","<div style=""width:500px;"">
                            <p style=""font-size:50px; font-weight:bold;""
                            >negative</p>
                            <div style=""width:240px; margin: auto;"">
                                <img src=""images/B_D_S_13_lightshift.png"" style= ""width:200px""alt=""img"">
                            </div>
                        </div>","114","","0","images/B_D_S_13_lightshift.png","","","","negative","1","B","D","S","lightshift","",""
"","","","","","html-slider-response","85","1037900","0.0-81.0","7c1ond1jxo","11","NaN","<div style=""width:500px;"">
                            <p style=""font-size:50px; font-weight:bold;""
                            >negative</p>
                            <div style=""width:240px; margin: auto;"">
                                <img src=""images/B_D_S_13_darkshift.png"" style= ""width:200px""alt=""img"">
                            </div>
                        </div>","-200","","0","images/B_D_S_13_darkshift.png","","","","negative","2","B","D","S","darkshift","",""
"","","","","","html-slider-response","86","1039856","0.0-82.0","7c1ond1jxo","11","NaN","<div style=""width:500px;"">
                            <p style=""font-size:50px; font-weight:bold;""
                            >negative</p>
                            <div style=""width:240px; margin: auto;"">
                                <img src=""images/R_D_U_41_lightshift.png"" style= ""width:200px""alt=""img"">
                            </div>
                        </div>","-62","","0","images/R_D_U_41_lightshift.png","","","","negative","2","R","D","U","lightshift","",""
"","","","","","html-slider-response","87","1042114","0.0-83.0","7c1ond1jxo","11","NaN","<div style=""width:500px;"">
                            <p style=""font-size:50px; font-weight:bold;""
                            >negative</p>
                            <div style=""width:240px; margin: auto;"">
                                <img src=""images/R_L_U_33_darkshift.png"" style= ""width:200px""alt=""img"">
                            </div>
                        </div>","-67","","0","images/R_L_U_33_darkshift.png","","","","negative","1","R","L","U","darkshift","",""
"","","","","","html-slider-response","88","1045345","0.0-84.0","7c1ond1jxo","11","NaN","<div style=""width:500px;"">
                            <p style=""font-size:50px; font-weight:bold;""
                            >negative</p>
                            <div style=""width:240px; margin: auto;"">
                                <img src=""images/Y_L_S_23_lightshift.png"" style= ""width:200px""alt=""img"">
                            </div>
                        </div>","-16","","0","images/Y_L_S_23_lightshift.png","","","","negative","1","Y","L","S","lightshift","",""
"","","","","","html-slider-response","89","1047838","0.0-85.0","7c1ond1jxo","11","NaN","<div style=""width:500px;"">
                            <p style=""font-size:50px; font-weight:bold;""
                            >negative</p>
                            <div style=""width:240px; margin: auto;"">
                                <img src=""images/B_L_U_12_darkshift.png"" style= ""width:200px""alt=""img"">
                            </div>
                        </div>","22","","0","images/B_L_U_12_darkshift.png","","","","negative","2","B","L","U","darkshift","",""
"","","","","","html-slider-response","90","1055240","0.0-86.0","7c1ond1jxo","11","NaN","<div style=""width:500px;"">
                            <p style=""font-size:50px; font-weight:bold;""
                            >negative</p>
                            <div style=""width:240px; margin: auto;"">
                                <img src=""images/B_D_U_15_lightshift.png"" style= ""width:200px""alt=""img"">
                            </div>
                        </div>","46","","0","images/B_D_U_15_lightshift.png","","","","negative","2","B","D","U","lightshift","",""
"","","","","","html-slider-response","91","1057800","0.0-87.0","7c1ond1jxo","11","NaN","<div style=""width:500px;"">
                            <p style=""font-size:50px; font-weight:bold;""
                            >negative</p>
                            <div style=""width:240px; margin: auto;"">
                                <img src=""images/G_L_S_44_darkshift.png"" style= ""width:200px""alt=""img"">
                            </div>
                        </div>","-62","","0","images/G_L_S_44_darkshift.png","","","","negative","2","G","L","S","darkshift","",""
"","","","","","html-slider-response","92","1059988","0.0-88.0","7c1ond1jxo","11","NaN","<div style=""width:500px;"">
                            <p style=""font-size:50px; font-weight:bold;""
                            >negative</p>
                            <div style=""width:240px; margin: auto;"">
                                <img src=""images/Y_L_S_23_darkshift.png"" style= ""width:200px""alt=""img"">
                            </div>
                        </div>","56","","0","images/Y_L_S_23_darkshift.png","","","","negative","1","Y","L","S","darkshift","",""
"","","","","","html-slider-response","93","1063178","0.0-89.0","7c1ond1jxo","11","NaN","<div style=""width:500px;"">
                            <p style=""font-size:50px; font-weight:bold;""
                            >negative</p>
                            <div style=""width:240px; margin: auto;"">
                                <img src=""images/Y_D_U_28_darkshift.png"" style= ""width:200px""alt=""img"">
                            </div>
                        </div>","200","","0","images/Y_D_U_28_darkshift.png","","","","negative","1","Y","D","U","darkshift","",""
"","","","","","html-slider-response","94","1066227","0.0-90.0","7c1ond1jxo","11","NaN","<div style=""width:500px;"">
                            <p style=""font-size:50px; font-weight:bold;""
                            >negative</p>
                            <div style=""width:240px; margin: auto;"">
                                <img src=""images/B_L_S_10_darkshift.png"" style= ""width:200px""alt=""img"">
                            </div>
                        </div>","-146","","0","images/B_L_S_10_darkshift.png","","","","negative","2","B","L","S","darkshift","",""
"","","","","","html-slider-response","95","1069291","0.0-91.0","7c1ond1jxo","11","NaN","<div style=""width:500px;"">
                            <p style=""font-size:50px; font-weight:bold;""
                            >negative</p>
                            <div style=""width:240px; margin: auto;"">
                                <img src=""images/G_D_U_7_darkshift.png"" style= ""width:200px""alt=""img"">
                            </div>
                        </div>","151","","0","images/G_D_U_7_darkshift.png","","","","negative","2","G","D","U","darkshift","",""
"","","","","","html-slider-response","96","1071576","0.0-92.0","7c1ond1jxo","11","NaN","<div style=""width:500px;"">
                            <p style=""font-size:50px; font-weight:bold;""
                            >negative</p>
                            <div style=""width:240px; margin: auto;"">
                                <img src=""images/Y_D_U_28_lightshift.png"" style= ""width:200px""alt=""img"">
                            </div>
                        </div>","200","","0","images/Y_D_U_28_lightshift.png","","","","negative","1","Y","D","U","lightshift","",""
"","","","","","html-slider-response","97","1073379","0.0-93.0","7c1ond1jxo","11","NaN","<div style=""width:500px;"">
                            <p style=""font-size:50px; font-weight:bold;""
                            >negative</p>
                            <div style=""width:240px; margin: auto;"">
                                <img src=""images/G_L_U_2_darkshift.png"" style= ""width:200px""alt=""img"">
                            </div>
                        </div>","-117","","0","images/G_L_U_2_darkshift.png","","","","negative","1","G","L","U","darkshift","",""
"","","","","","html-slider-response","98","1075428","0.0-94.0","7c1ond1jxo","11","NaN","<div style=""width:500px;"">
                            <p style=""font-size:50px; font-weight:bold;""
                            >negative</p>
                            <div style=""width:240px; margin: auto;"">
                                <img src=""images/Y_D_U_28_lightshift.png"" style= ""width:200px""alt=""img"">
                            </div>
                        </div>","200","","0","images/Y_D_U_28_lightshift.png","","","","negative","2","Y","D","U","lightshift","",""
"","","","","","html-slider-response","99","1077473","0.0-95.0","7c1ond1jxo","11","NaN","<div style=""width:500px;"">
                            <p style=""font-size:50px; font-weight:bold;""
                            >negative</p>
                            <div style=""width:240px; margin: auto;"">
                                <img src=""images/Y_D_S_27_lightshift.png"" style= ""width:200px""alt=""img"">
                            </div>
                        </div>","200","","0","images/Y_D_S_27_lightshift.png","","","","negative","1","Y","D","S","lightshift","",""
"","","","","","html-slider-response","100","1079640","0.0-96.0","7c1ond1jxo","11","NaN","<div style=""width:500px;"">
                            <p style=""font-size:50px; font-weight:bold;""
                            >negative</p>
                            <div style=""width:240px; margin: auto;"">
                                <img src=""images/R_D_U_41_lightshift.png"" style= ""width:200px""alt=""img"">
                            </div>
                        </div>","62","","0","images/R_D_U_41_lightshift.png","","","","negative","1","R","D","U","lightshift","",""
"","","","","","html-slider-response","101","1084447","0.0-97.0","7c1ond1jxo","11","NaN","<div style=""width:500px;"">
                            <p style=""font-size:50px; font-weight:bold;""
                            >negative</p>
                            <div style=""width:240px; margin: auto;"">
                                <img src=""images/G_L_S_44_lightshift.png"" style= ""width:200px""alt=""img"">
                            </div>
                        </div>","-40","","0","images/G_L_S_44_lightshift.png","","","","negative","1","G","L","S","lightshift","",""
"","","","","","html-slider-response","102","1086267","0.0-98.0","7c1ond1jxo","11","NaN","<div style=""width:500px;"">
                            <p style=""font-size:50px; font-weight:bold;""
                            >negative</p>
                            <div style=""width:240px; margin: auto;"">
                                <img src=""images/B_D_U_15_darkshift.png"" style= ""width:200px""alt=""img"">
                            </div>
                        </div>","148","","0","images/B_D_U_15_darkshift.png","","","","negative","2","B","D","U","darkshift","",""
"","","","","","html-slider-response","103","1089135","0.0-99.0","7c1ond1jxo","11","NaN","<div style=""width:500px;"">
                            <p style=""font-size:50px; font-weight:bold;""
                            >negative</p>
                            <div style=""width:240px; margin: auto;"">
                                <img src=""images/Y_D_S_27_lightshift.png"" style= ""width:200px""alt=""img"">
                            </div>
                        </div>","166","","0","images/Y_D_S_27_lightshift.png","","","","negative","2","Y","D","S","lightshift","",""
"","","","","","html-slider-response","104","1091999","0.0-100.0","7c1ond1jxo","11","NaN","<div style=""width:500px;"">
                            <p style=""font-size:50px; font-weight:bold;""
                            >negative</p>
                            <div style=""width:240px; margin: auto;"">
                                <img src=""images/B_L_U_12_lightshift.png"" style= ""width:200px""alt=""img"">
                            </div>
                        </div>","-19","","0","images/B_L_U_12_lightshift.png","","","","negative","1","B","L","U","lightshift","",""
"","","","","","html-slider-response","105","1094913","0.0-101.0","7c1ond1jxo","11","NaN","<div style=""width:500px;"">
                            <p style=""font-size:50px; font-weight:bold;""
                            >negative</p>
                            <div style=""width:240px; margin: auto;"">
                                <img src=""images/Y_D_S_27_darkshift.png"" style= ""width:200px""alt=""img"">
                            </div>
                        </div>","192","","0","images/Y_D_S_27_darkshift.png","","","","negative","1","Y","D","S","darkshift","",""
"","","","","","html-slider-response","106","1097140","0.0-102.0","7c1ond1jxo","11","NaN","<div style=""width:500px;"">
                            <p style=""font-size:50px; font-weight:bold;""
                            >negative</p>
                            <div style=""width:240px; margin: auto;"">
                                <img src=""images/R_D_U_41_darkshift.png"" style= ""width:200px""alt=""img"">
                            </div>
                        </div>","89","","0","images/R_D_U_41_darkshift.png","","","","negative","2","R","D","U","darkshift","",""
"","","","","","html-slider-response","107","1100040","0.0-103.0","7c1ond1jxo","11","NaN","<div style=""width:500px;"">
                            <p style=""font-size:50px; font-weight:bold;""
                            >negative</p>
                            <div style=""width:240px; margin: auto;"">
                                <img src=""images/G_D_S_5_lightshift.png"" style= ""width:200px""alt=""img"">
                            </div>
                        </div>","-50","","0","images/G_D_S_5_lightshift.png","","","","negative","2","G","D","S","lightshift","",""
"","","","","","html-slider-response","108","1103883","0.0-104.0","7c1ond1jxo","11","NaN","<div style=""width:500px;"">
                            <p style=""font-size:50px; font-weight:bold;""
                            >negative</p>
                            <div style=""width:240px; margin: auto;"">
                                <img src=""images/R_D_S_37_lightshift.png"" style= ""width:200px""alt=""img"">
                            </div>
                        </div>","-115","","0","images/R_D_S_37_lightshift.png","","","","negative","2","R","D","S","lightshift","",""
"","","","","","html-slider-response","109","1105865","0.0-105.0","7c1ond1jxo","11","NaN","<div style=""width:500px;"">
                            <p style=""font-size:50px; font-weight:bold;""
                            >negative</p>
                            <div style=""width:240px; margin: auto;"">
                                <img src=""images/R_L_S_30_lightshift.png"" style= ""width:200px""alt=""img"">
                            </div>
                        </div>","-128","","0","images/R_L_S_30_lightshift.png","","","","negative","2","R","L","S","lightshift","",""
"","","","","","html-slider-response","110","1107629","0.0-106.0","7c1ond1jxo","11","NaN","<div style=""width:500px;"">
                            <p style=""font-size:50px; font-weight:bold;""
                            >negative</p>
                            <div style=""width:240px; margin: auto;"">
                                <img src=""images/G_D_S_5_darkshift.png"" style= ""width:200px""alt=""img"">
                            </div>
                        </div>","95","","0","images/G_D_S_5_darkshift.png","","","","negative","2","G","D","S","darkshift","",""
"","","","","","html-slider-response","111","1109101","0.0-107.0","7c1ond1jxo","11","NaN","<div style=""width:500px;"">
                            <p style=""font-size:50px; font-weight:bold;""
                            >negative</p>
                            <div style=""width:240px; margin: auto;"">
                                <img src=""images/G_L_U_2_lightshift.png"" style= ""width:200px""alt=""img"">
                            </div>
                        </div>","-112","","0","images/G_L_U_2_lightshift.png","","","","negative","2","G","L","U","lightshift","",""
"","","","","","html-slider-response","112","1111880","0.0-108.0","7c1ond1jxo","11","NaN","<div style=""width:500px;"">
                            <p style=""font-size:50px; font-weight:bold;""
                            >negative</p>
                            <div style=""width:240px; margin: auto;"">
                                <img src=""images/Y_L_U_26_darkshift.png"" style= ""width:200px""alt=""img"">
                            </div>
                        </div>","125","","0","images/Y_L_U_26_darkshift.png","","","","negative","1","Y","L","U","darkshift","",""
"","","","","","html-slider-response","113","1113936","0.0-109.0","7c1ond1jxo","11","NaN","<div style=""width:500px;"">
                            <p style=""font-size:50px; font-weight:bold;""
                            >negative</p>
                            <div style=""width:240px; margin: auto;"">
                                <img src=""images/B_L_U_12_darkshift.png"" style= ""width:200px""alt=""img"">
                            </div>
                        </div>","-103","","0","images/B_L_U_12_darkshift.png","","","","negative","1","B","L","U","darkshift","",""
"","","","","","html-slider-response","114","1115432","0.0-110.0","7c1ond1jxo","11","NaN","<div style=""width:500px;"">
                            <p style=""font-size:50px; font-weight:bold;""
                            >negative</p>
                            <div style=""width:240px; margin: auto;"">
                                <img src=""images/B_D_U_15_darkshift.png"" style= ""width:200px""alt=""img"">
                            </div>
                        </div>","122","","0","images/B_D_U_15_darkshift.png","","","","negative","1","B","D","U","darkshift","",""
"","","","","","html-slider-response","115","1118111","0.0-111.0","7c1ond1jxo","11","NaN","<div style=""width:500px;"">
                            <p style=""font-size:50px; font-weight:bold;""
                            >negative</p>
                            <div style=""width:240px; margin: auto;"">
                                <img src=""images/G_D_S_5_lightshift.png"" style= ""width:200px""alt=""img"">
                            </div>
                        </div>","15","","0","images/G_D_S_5_lightshift.png","","","","negative","1","G","D","S","lightshift","",""
"","","","","","html-slider-response","116","1120389","0.0-112.0","7c1ond1jxo","11","NaN","<div style=""width:500px;"">
                            <p style=""font-size:50px; font-weight:bold;""
                            >negative</p>
                            <div style=""width:240px; margin: auto;"">
                                <img src=""images/G_D_S_5_darkshift.png"" style= ""width:200px""alt=""img"">
                            </div>
                        </div>","146","","0","images/G_D_S_5_darkshift.png","","","","negative","1","G","D","S","darkshift","",""
"","","","","","html-slider-response","117","1121926","0.0-113.0","7c1ond1jxo","11","NaN","<div style=""width:500px;"">
                            <p style=""font-size:50px; font-weight:bold;""
                            >negative</p>
                            <div style=""width:240px; margin: auto;"">
                                <img src=""images/B_D_S_13_lightshift.png"" style= ""width:200px""alt=""img"">
                            </div>
                        </div>","-5","","0","images/B_D_S_13_lightshift.png","","","","negative","2","B","D","S","lightshift","",""
"","","","","","html-slider-response","118","1124923","0.0-114.0","7c1ond1jxo","11","NaN","<div style=""width:500px;"">
                            <p style=""font-size:50px; font-weight:bold;""
                            >negative</p>
                            <div style=""width:240px; margin: auto;"">
                                <img src=""images/B_L_S_10_darkshift.png"" style= ""width:200px""alt=""img"">
                            </div>
                        </div>","-59","","0","images/B_L_S_10_darkshift.png","","","","negative","1","B","L","S","darkshift","",""
"","","","","","html-slider-response","119","1126684","0.0-115.0","7c1ond1jxo","11","NaN","<div style=""width:500px;"">
                            <p style=""font-size:50px; font-weight:bold;""
                            >negative</p>
                            <div style=""width:240px; margin: auto;"">
                                <img src=""images/Y_L_S_23_lightshift.png"" style= ""width:200px""alt=""img"">
                            </div>
                        </div>","138","","0","images/Y_L_S_23_lightshift.png","","","","negative","2","Y","L","S","lightshift","",""
"","","","","","html-slider-response","120","1128400","0.0-116.0","7c1ond1jxo","11","NaN","<div style=""width:500px;"">
                            <p style=""font-size:50px; font-weight:bold;""
                            >negative</p>
                            <div style=""width:240px; margin: auto;"">
                                <img src=""images/Y_D_U_28_darkshift.png"" style= ""width:200px""alt=""img"">
                            </div>
                        </div>","133","","0","images/Y_D_U_28_darkshift.png","","","","negative","2","Y","D","U","darkshift","",""
"","","","","","html-slider-response","121","1131141","0.0-117.0","7c1ond1jxo","11","NaN","<div style=""width:500px;"">
                            <p style=""font-size:50px; font-weight:bold;""
                            >negative</p>
                            <div style=""width:240px; margin: auto;"">
                                <img src=""images/B_L_U_12_lightshift.png"" style= ""width:200px""alt=""img"">
                            </div>
                        </div>","-26","","0","images/B_L_U_12_lightshift.png","","","","negative","2","B","L","U","lightshift","",""
"","","","","","html-slider-response","122","1132770","0.0-118.0","7c1ond1jxo","11","NaN","<div style=""width:500px;"">
                            <p style=""font-size:50px; font-weight:bold;""
                            >negative</p>
                            <div style=""width:240px; margin: auto;"">
                                <img src=""images/R_L_U_33_lightshift.png"" style= ""width:200px""alt=""img"">
                            </div>
                        </div>","-26","","0","images/R_L_U_33_lightshift.png","","","","negative","1","R","L","U","lightshift","",""
"","","","","","html-slider-response","123","1134328","0.0-119.0","7c1ond1jxo","11","NaN","<div style=""width:500px;"">
                            <p style=""font-size:50px; font-weight:bold;""
                            >negative</p>
                            <div style=""width:240px; margin: auto;"">
                                <img src=""images/G_L_U_2_darkshift.png"" style= ""width:200px""alt=""img"">
                            </div>
                        </div>","19","","0","images/G_L_U_2_darkshift.png","","","","negative","2","G","L","U","darkshift","",""
"","","","","","html-slider-response","124","1137776","0.0-120.0","7c1ond1jxo","11","NaN","<div style=""width:500px;"">
                            <p style=""font-size:50px; font-weight:bold;""
                            >negative</p>
                            <div style=""width:240px; margin: auto;"">
                                <img src=""images/G_L_S_44_darkshift.png"" style= ""width:200px""alt=""img"">
                            </div>
                        </div>","-58","","0","images/G_L_S_44_darkshift.png","","","","negative","1","G","L","S","darkshift","",""
"","","","","","html-slider-response","125","1139571","0.0-121.0","7c1ond1jxo","11","NaN","<div style=""width:500px;"">
                            <p style=""font-size:50px; font-weight:bold;""
                            >negative</p>
                            <div style=""width:240px; margin: auto;"">
                                <img src=""images/G_L_S_44_lightshift.png"" style= ""width:200px""alt=""img"">
                            </div>
                        </div>","-13","","0","images/G_L_S_44_lightshift.png","","","","negative","2","G","L","S","lightshift","",""
"","","","","","html-slider-response","126","1141373","0.0-122.0","7c1ond1jxo","11","NaN","<div style=""width:500px;"">
                            <p style=""font-size:50px; font-weight:bold;""
                            >negative</p>
                            <div style=""width:240px; margin: auto;"">
                                <img src=""images/G_D_U_7_darkshift.png"" style= ""width:200px""alt=""img"">
                            </div>
                        </div>","108","","0","images/G_D_U_7_darkshift.png","","","","negative","1","G","D","U","darkshift","",""
"","","","","","html-slider-response","127","1143177","0.0-123.0","7c1ond1jxo","11","NaN","<div style=""width:500px;"">
                            <p style=""font-size:50px; font-weight:bold;""
                            >negative</p>
                            <div style=""width:240px; margin: auto;"">
                                <img src=""images/G_D_U_7_lightshift.png"" style= ""width:200px""alt=""img"">
                            </div>
                        </div>","-46","","0","images/G_D_U_7_lightshift.png","","","","negative","1","G","D","U","lightshift","",""
"","","","","","html-slider-response","128","1146085","0.0-124.0","7c1ond1jxo","11","NaN","<div style=""width:500px;"">
                            <p style=""font-size:50px; font-weight:bold;""
                            >negative</p>
                            <div style=""width:240px; margin: auto;"">
                                <img src=""images/B_D_S_13_darkshift.png"" style= ""width:200px""alt=""img"">
                            </div>
                        </div>","-28","","0","images/B_D_S_13_darkshift.png","","","","negative","1","B","D","S","darkshift","",""
"","","","","","html-slider-response","129","1148636","0.0-125.0","7c1ond1jxo","11","NaN","<div style=""width:500px;"">
                            <p style=""font-size:50px; font-weight:bold;""
                            >negative</p>
                            <div style=""width:240px; margin: auto;"">
                                <img src=""images/R_D_U_41_darkshift.png"" style= ""width:200px""alt=""img"">
                            </div>
                        </div>","29","","0","images/R_D_U_41_darkshift.png","","","","negative","1","R","D","U","darkshift","",""
"","","","","","html-slider-response","130","1150847","0.0-126.0","7c1ond1jxo","11","NaN","<div style=""width:500px;"">
                            <p style=""font-size:50px; font-weight:bold;""
                            >negative</p>
                            <div style=""width:240px; margin: auto;"">
                                <img src=""images/R_L_S_30_darkshift.png"" style= ""width:200px""alt=""img"">
                            </div>
                        </div>","-133","","0","images/R_L_S_30_darkshift.png","","","","negative","2","R","L","S","darkshift","",""
"","","","","","html-slider-response","131","1152996","0.0-127.0","7c1ond1jxo","11","NaN","<div style=""width:500px;"">
                            <p style=""font-size:50px; font-weight:bold;""
                            >negative</p>
                            <div style=""width:240px; margin: auto;"">
                                <img src=""images/R_L_U_33_lightshift.png"" style= ""width:200px""alt=""img"">
                            </div>
                        </div>","-8","","0","images/R_L_U_33_lightshift.png","","","","negative","2","R","L","U","lightshift","",""
"","","","","","html-slider-response","132","1155163","0.0-128.0","7c1ond1jxo","11","NaN","<div style=""width:500px;"">
                            <p style=""font-size:50px; font-weight:bold;""
                            >negative</p>
                            <div style=""width:240px; margin: auto;"">
                                <img src=""images/G_D_U_7_lightshift.png"" style= ""width:200px""alt=""img"">
                            </div>
                        </div>","-36","","0","images/G_D_U_7_lightshift.png","","","","negative","2","G","D","U","lightshift","",""
"","","","","","html-slider-response","133","1157278","0.0-129.0","7c1ond1jxo","11","NaN","<div style=""width:500px;"">
                            <p style=""font-size:50px; font-weight:bold;""
                            >negative</p>
                            <div style=""width:240px; margin: auto;"">
                                <img src=""images/R_D_S_37_darkshift.png"" style= ""width:200px""alt=""img"">
                            </div>
                        </div>","35","","0","images/R_D_S_37_darkshift.png","","","","negative","2","R","D","S","darkshift","",""
"","","","","","html-slider-response","134","1159705","0.0-130.0","7c1ond1jxo","11","NaN","<div style=""width:500px;"">
                            <p style=""font-size:50px; font-weight:bold;""
                            >negative</p>
                            <div style=""width:240px; margin: auto;"">
                                <img src=""images/Y_L_S_23_darkshift.png"" style= ""width:200px""alt=""img"">
                            </div>
                        </div>","138","","0","images/Y_L_S_23_darkshift.png","","","","negative","2","Y","L","S","darkshift","",""
"","","","","","html-slider-response","135","1163961","0.0-131.0","7c1ond1jxo","11","NaN","<div style=""width:500px;"">
                            <p style=""font-size:50px; font-weight:bold;""
                            >negative</p>
                            <div style=""width:240px; margin: auto;"">
                                <img src=""images/R_D_S_37_darkshift.png"" style= ""width:200px""alt=""img"">
                            </div>
                        </div>","59","","0","images/R_D_S_37_darkshift.png","","","","negative","1","R","D","S","darkshift","",""
"","","","","","html-slider-response","136","1166930","0.0-132.0","7c1ond1jxo","11","NaN","<div style=""width:500px;"">
                            <p style=""font-size:50px; font-weight:bold;""
                            >negative</p>
                            <div style=""width:240px; margin: auto;"">
                                <img src=""images/R_L_U_33_darkshift.png"" style= ""width:200px""alt=""img"">
                            </div>
                        </div>","86","","0","images/R_L_U_33_darkshift.png","","","","negative","2","R","L","U","darkshift","",""
"","","","","","html-slider-response","137","1168889","0.0-133.0","7c1ond1jxo","11","NaN","<div style=""width:500px;"">
                            <p style=""font-size:50px; font-weight:bold;""
                            >negative</p>
                            <div style=""width:240px; margin: auto;"">
                                <img src=""images/B_D_U_15_lightshift.png"" style= ""width:200px""alt=""img"">
                            </div>
                        </div>","118","","0","images/B_D_U_15_lightshift.png","","","","negative","1","B","D","U","lightshift","",""
"","","","","","html-slider-response","138","1171040","0.0-134.0","7c1ond1jxo","11","NaN","<div style=""width:500px;"">
                            <p style=""font-size:50px; font-weight:bold;""
                            >negative</p>
                            <div style=""width:240px; margin: auto;"">
                                <img src=""images/R_L_S_30_darkshift.png"" style= ""width:200px""alt=""img"">
                            </div>
                        </div>","-18","","0","images/R_L_S_30_darkshift.png","","","","negative","1","R","L","S","darkshift","",""
"","","","","","html-slider-response","139","1173195","0.0-135.0","7c1ond1jxo","11","NaN","<div style=""width:500px;"">
                            <p style=""font-size:50px; font-weight:bold;""
                            >negative</p>
                            <div style=""width:240px; margin: auto;"">
                                <img src=""images/B_L_S_10_lightshift.png"" style= ""width:200px""alt=""img"">
                            </div>
                        </div>","-106","","0","images/B_L_S_10_lightshift.png","","","","negative","2","B","L","S","lightshift","",""
"","","","","","html-slider-response","140","1175531","0.0-136.0","7c1ond1jxo","11","NaN","<div style=""width:500px;"">
                            <p style=""font-size:50px; font-weight:bold;""
                            >negative</p>
                            <div style=""width:240px; margin: auto;"">
                                <img src=""images/Y_L_U_26_darkshift.png"" style= ""width:200px""alt=""img"">
                            </div>
                        </div>","139","","0","images/Y_L_U_26_darkshift.png","","","","negative","2","Y","L","U","darkshift","",""
"","","","","","html-slider-response","141","1178079","0.0-137.0","7c1ond1jxo","11","NaN","<div style=""width:500px;"">
                            <p style=""font-size:50px; font-weight:bold;""
                            >negative</p>
                            <div style=""width:240px; margin: auto;"">
                                <img src=""images/R_L_S_30_lightshift.png"" style= ""width:200px""alt=""img"">
                            </div>
                        </div>","-126","","0","images/R_L_S_30_lightshift.png","","","","negative","1","R","L","S","lightshift","",""
"","","","","","html-slider-response","142","1179725","0.0-138.0","7c1ond1jxo","11","NaN","<div style=""width:500px;"">
                            <p style=""font-size:50px; font-weight:bold;""
                            >negative</p>
                            <div style=""width:240px; margin: auto;"">
                                <img src=""images/Y_L_U_26_lightshift.png"" style= ""width:200px""alt=""img"">
                            </div>
                        </div>","128","","0","images/Y_L_U_26_lightshift.png","","","","negative","1","Y","L","U","lightshift","",""
"","","","","","html-slider-response","143","1181336","0.0-139.0","7c1ond1jxo","11","NaN","<div style=""width:500px;"">
                            <p style=""font-size:50px; font-weight:bold;""
                            >negative</p>
                            <div style=""width:240px; margin: auto;"">
                                <img src=""images/R_D_S_37_lightshift.png"" style= ""width:200px""alt=""img"">
                            </div>
                        </div>","-77","","0","images/R_D_S_37_lightshift.png","","","","negative","1","R","D","S","lightshift","",""
"","","","","","html-slider-response","144","1183978","0.0-140.0","7c1ond1jxo","11","NaN","<div style=""width:500px;"">
                            <p style=""font-size:50px; font-weight:bold;""
                            >negative</p>
                            <div style=""width:240px; margin: auto;"">
                                <img src=""images/G_L_U_2_lightshift.png"" style= ""width:200px""alt=""img"">
                            </div>
                        </div>","-28","","0","images/G_L_U_2_lightshift.png","","","","negative","1","G","L","U","lightshift","",""
"","","","","","html-slider-response","145","1185935","0.0-141.0","7c1ond1jxo","11","NaN","<div style=""width:500px;"">
                            <p style=""font-size:50px; font-weight:bold;""
                            >negative</p>
                            <div style=""width:240px; margin: auto;"">
                                <img src=""images/Y_D_S_27_darkshift.png"" style= ""width:200px""alt=""img"">
                            </div>
                        </div>","198","","0","images/Y_D_S_27_darkshift.png","","","","negative","2","Y","D","S","darkshift","",""
"","","","","","html-slider-response","146","1187991","0.0-142.0","7c1ond1jxo","11","NaN","<div style=""width:500px;"">
                            <p style=""font-size:50px; font-weight:bold;""
                            >negative</p>
                            <div style=""width:240px; margin: auto;"">
                                <img src=""images/Y_L_U_26_lightshift.png"" style= ""width:200px""alt=""img"">
                            </div>
                        </div>","-27","","0","images/Y_L_U_26_lightshift.png","","","","negative","2","Y","L","U","lightshift","",""
"","","","","","html-slider-response","147","1190067","0.0-143.0","7c1ond1jxo","11","NaN","<div style=""width:500px;"">
                            <p style=""font-size:50px; font-weight:bold;""
                            >negative</p>
                            <div style=""width:240px; margin: auto;"">
                                <img src=""images/B_L_S_10_lightshift.png"" style= ""width:200px""alt=""img"">
                            </div>
                        </div>","-55","","0","images/B_L_S_10_lightshift.png","","","","negative","1","B","L","S","lightshift","",""
"","","","","","html-button-response","148","1191680","0.0-144.0","7c1ond1jxo","11","1097","<p>Great Job! You've finished block 2.<br></br> You have 2 block(s) left to go.<br></br></p>","0","","","","","","","","","","","","","",""
"","","","","","html-button-response","149","1192823","0.0-145.0","7c1ond1jxo","11","1143","<p>In this block of trials, you will be asked to rate how much you associate each map with:</p > <p style = 'font-size:150%; font-weight: bold'>positive</p><br></br>","0","","","","","","","","","","","","","",""
"","","","","","html-slider-response","150","1196484","0.0-146.0","7c1ond1jxo","11","NaN","<div style=""width:500px;"">
                            <p style=""font-size:50px; font-weight:bold;""
                            >positive</p>
                            <div style=""width:240px; margin: auto;"">
                                <img src=""images/G_D_S_5_lightshift.png"" style= ""width:200px""alt=""img"">
                            </div>
                        </div>","-62","","0","images/G_D_S_5_lightshift.png","","","","positive","1","G","D","S","lightshift","",""
"","","","","","html-slider-response","151","1198865","0.0-147.0","7c1ond1jxo","11","NaN","<div style=""width:500px;"">
                            <p style=""font-size:50px; font-weight:bold;""
                            >positive</p>
                            <div style=""width:240px; margin: auto;"">
                                <img src=""images/R_L_S_30_darkshift.png"" style= ""width:200px""alt=""img"">
                            </div>
                        </div>","171","","0","images/R_L_S_30_darkshift.png","","","","positive","1","R","L","S","darkshift","",""
"","","","","","html-slider-response","152","1200625","0.0-148.0","7c1ond1jxo","11","NaN","<div style=""width:500px;"">
                            <p style=""font-size:50px; font-weight:bold;""
                            >positive</p>
                            <div style=""width:240px; margin: auto;"">
                                <img src=""images/R_D_S_37_lightshift.png"" style= ""width:200px""alt=""img"">
                            </div>
                        </div>","46","","0","images/R_D_S_37_lightshift.png","","","","positive","2","R","D","S","lightshift","",""
"","","","","","html-slider-response","153","1202604","0.0-149.0","7c1ond1jxo","11","NaN","<div style=""width:500px;"">
                            <p style=""font-size:50px; font-weight:bold;""
                            >positive</p>
                            <div style=""width:240px; margin: auto;"">
                                <img src=""images/R_L_S_30_lightshift.png"" style= ""width:200px""alt=""img"">
                            </div>
                        </div>","42","","0","images/R_L_S_30_lightshift.png","","","","positive","2","R","L","S","lightshift","",""
"","","","","","html-slider-response","154","1205210","0.0-150.0","7c1ond1jxo","11","NaN","<div style=""width:500px;"">
                            <p style=""font-size:50px; font-weight:bold;""
                            >positive</p>
                            <div style=""width:240px; margin: auto;"">
                                <img src=""images/R_D_U_41_darkshift.png"" style= ""width:200px""alt=""img"">
                            </div>
                        </div>","-188","","0","images/R_D_U_41_darkshift.png","","","","positive","2","R","D","U","darkshift","",""
"","","","","","html-slider-response","155","1206767","0.0-151.0","7c1ond1jxo","11","NaN","<div style=""width:500px;"">
                            <p style=""font-size:50px; font-weight:bold;""
                            >positive</p>
                            <div style=""width:240px; margin: auto;"">
                                <img src=""images/Y_D_U_28_darkshift.png"" style= ""width:200px""alt=""img"">
                            </div>
                        </div>","-187","","0","images/Y_D_U_28_darkshift.png","","","","positive","1","Y","D","U","darkshift","",""
"","","","","","html-slider-response","156","1208961","0.0-152.0","7c1ond1jxo","11","NaN","<div style=""width:500px;"">
                            <p style=""font-size:50px; font-weight:bold;""
                            >positive</p>
                            <div style=""width:240px; margin: auto;"">
                                <img src=""images/G_D_U_7_lightshift.png"" style= ""width:200px""alt=""img"">
                            </div>
                        </div>","-43","","0","images/G_D_U_7_lightshift.png","","","","positive","1","G","D","U","lightshift","",""
"","","","","","html-slider-response","157","1210903","0.0-153.0","7c1ond1jxo","11","NaN","<div style=""width:500px;"">
                            <p style=""font-size:50px; font-weight:bold;""
                            >positive</p>
                            <div style=""width:240px; margin: auto;"">
                                <img src=""images/G_D_U_7_darkshift.png"" style= ""width:200px""alt=""img"">
                            </div>
                        </div>","-105","","0","images/G_D_U_7_darkshift.png","","","","positive","2","G","D","U","darkshift","",""
"","","","","","html-slider-response","158","1214436","0.0-154.0","7c1ond1jxo","11","NaN","<div style=""width:500px;"">
                            <p style=""font-size:50px; font-weight:bold;""
                            >positive</p>
                            <div style=""width:240px; margin: auto;"">
                                <img src=""images/R_D_S_37_darkshift.png"" style= ""width:200px""alt=""img"">
                            </div>
                        </div>","-50","","0","images/R_D_S_37_darkshift.png","","","","positive","1","R","D","S","darkshift","",""
"","","","","","html-slider-response","159","1218878","0.0-155.0","7c1ond1jxo","11","NaN","<div style=""width:500px;"">
                            <p style=""font-size:50px; font-weight:bold;""
                            >positive</p>
                            <div style=""width:240px; margin: auto;"">
                                <img src=""images/B_L_U_12_lightshift.png"" style= ""width:200px""alt=""img"">
                            </div>
                        </div>","18","","0","images/B_L_U_12_lightshift.png","","","","positive","2","B","L","U","lightshift","",""
"","","","","","html-slider-response","160","1221885","0.0-156.0","7c1ond1jxo","11","NaN","<div style=""width:500px;"">
                            <p style=""font-size:50px; font-weight:bold;""
                            >positive</p>
                            <div style=""width:240px; margin: auto;"">
                                <img src=""images/G_L_U_2_darkshift.png"" style= ""width:200px""alt=""img"">
                            </div>
                        </div>","11","","0","images/G_L_U_2_darkshift.png","","","","positive","2","G","L","U","darkshift","",""
"","","","","","html-slider-response","161","1224092","0.0-157.0","7c1ond1jxo","11","NaN","<div style=""width:500px;"">
                            <p style=""font-size:50px; font-weight:bold;""
                            >positive</p>
                            <div style=""width:240px; margin: auto;"">
                                <img src=""images/B_D_S_13_darkshift.png"" style= ""width:200px""alt=""img"">
                            </div>
                        </div>","53","","0","images/B_D_S_13_darkshift.png","","","","positive","2","B","D","S","darkshift","",""
"","","","","","html-slider-response","162","1225747","0.0-158.0","7c1ond1jxo","11","NaN","<div style=""width:500px;"">
                            <p style=""font-size:50px; font-weight:bold;""
                            >positive</p>
                            <div style=""width:240px; margin: auto;"">
                                <img src=""images/B_L_S_10_lightshift.png"" style= ""width:200px""alt=""img"">
                            </div>
                        </div>","56","","0","images/B_L_S_10_lightshift.png","","","","positive","2","B","L","S","lightshift","",""
"","","","","","html-slider-response","163","1227231","0.0-159.0","7c1ond1jxo","11","NaN","<div style=""width:500px;"">
                            <p style=""font-size:50px; font-weight:bold;""
                            >positive</p>
                            <div style=""width:240px; margin: auto;"">
                                <img src=""images/R_L_S_30_lightshift.png"" style= ""width:200px""alt=""img"">
                            </div>
                        </div>","64","","0","images/R_L_S_30_lightshift.png","","","","positive","1","R","L","S","lightshift","",""
"","","","","","html-slider-response","164","1228727","0.0-160.0","7c1ond1jxo","11","NaN","<div style=""width:500px;"">
                            <p style=""font-size:50px; font-weight:bold;""
                            >positive</p>
                            <div style=""width:240px; margin: auto;"">
                                <img src=""images/Y_L_U_26_darkshift.png"" style= ""width:200px""alt=""img"">
                            </div>
                        </div>","-18","","0","images/Y_L_U_26_darkshift.png","","","","positive","1","Y","L","U","darkshift","",""
"","","","","","html-slider-response","165","1230361","0.0-161.0","7c1ond1jxo","11","NaN","<div style=""width:500px;"">
                            <p style=""font-size:50px; font-weight:bold;""
                            >positive</p>
                            <div style=""width:240px; margin: auto;"">
                                <img src=""images/Y_D_U_28_darkshift.png"" style= ""width:200px""alt=""img"">
                            </div>
                        </div>","-110","","0","images/Y_D_U_28_darkshift.png","","","","positive","2","Y","D","U","darkshift","",""
"","","","","","html-slider-response","166","1234143","0.0-162.0","7c1ond1jxo","11","NaN","<div style=""width:500px;"">
                            <p style=""font-size:50px; font-weight:bold;""
                            >positive</p>
                            <div style=""width:240px; margin: auto;"">
                                <img src=""images/G_L_U_2_darkshift.png"" style= ""width:200px""alt=""img"">
                            </div>
                        </div>","-26","","0","images/G_L_U_2_darkshift.png","","","","positive","1","G","L","U","darkshift","",""
"","","","","","html-slider-response","167","1236479","0.0-163.0","7c1ond1jxo","11","NaN","<div style=""width:500px;"">
                            <p style=""font-size:50px; font-weight:bold;""
                            >positive</p>
                            <div style=""width:240px; margin: auto;"">
                                <img src=""images/G_D_U_7_darkshift.png"" style= ""width:200px""alt=""img"">
                            </div>
                        </div>","-130","","0","images/G_D_U_7_darkshift.png","","","","positive","1","G","D","U","darkshift","",""
"","","","","","html-slider-response","168","1238468","0.0-164.0","7c1ond1jxo","11","NaN","<div style=""width:500px;"">
                            <p style=""font-size:50px; font-weight:bold;""
                            >positive</p>
                            <div style=""width:240px; margin: auto;"">
                                <img src=""images/R_D_U_41_lightshift.png"" style= ""width:200px""alt=""img"">
                            </div>
                        </div>","-62","","0","images/R_D_U_41_lightshift.png","","","","positive","1","R","D","U","lightshift","",""
"","","","","","html-slider-response","169","1240589","0.0-165.0","7c1ond1jxo","11","NaN","<div style=""width:500px;"">
                            <p style=""font-size:50px; font-weight:bold;""
                            >positive</p>
                            <div style=""width:240px; margin: auto;"">
                                <img src=""images/G_L_S_44_lightshift.png"" style= ""width:200px""alt=""img"">
                            </div>
                        </div>","33","","0","images/G_L_S_44_lightshift.png","","","","positive","2","G","L","S","lightshift","",""
"","","","","","html-slider-response","170","1242336","0.0-166.0","7c1ond1jxo","11","NaN","<div style=""width:500px;"">
                            <p style=""font-size:50px; font-weight:bold;""
                            >positive</p>
                            <div style=""width:240px; margin: auto;"">
                                <img src=""images/R_D_U_41_lightshift.png"" style= ""width:200px""alt=""img"">
                            </div>
                        </div>","-152","","0","images/R_D_U_41_lightshift.png","","","","positive","2","R","D","U","lightshift","",""
"","","","","","html-slider-response","171","1245849","0.0-167.0","7c1ond1jxo","11","NaN","<div style=""width:500px;"">
                            <p style=""font-size:50px; font-weight:bold;""
                            >positive</p>
                            <div style=""width:240px; margin: auto;"">
                                <img src=""images/G_D_S_5_lightshift.png"" style= ""width:200px""alt=""img"">
                            </div>
                        </div>","-82","","0","images/G_D_S_5_lightshift.png","","","","positive","2","G","D","S","lightshift","",""
"","","","","","html-slider-response","172","1247518","0.0-168.0","7c1ond1jxo","11","NaN","<div style=""width:500px;"">
                            <p style=""font-size:50px; font-weight:bold;""
                            >positive</p>
                            <div style=""width:240px; margin: auto;"">
                                <img src=""images/Y_L_S_23_lightshift.png"" style= ""width:200px""alt=""img"">
                            </div>
                        </div>","-187","","0","images/Y_L_S_23_lightshift.png","","","","positive","2","Y","L","S","lightshift","",""
"","","","","","html-slider-response","173","1250099","0.0-169.0","7c1ond1jxo","11","NaN","<div style=""width:500px;"">
                            <p style=""font-size:50px; font-weight:bold;""
                            >positive</p>
                            <div style=""width:240px; margin: auto;"">
