"success","timeout","failed_images","failed_audio","failed_video","trial_type","trial_index","time_elapsed","internal_node_id","subject_id","condition_num","rt","stimulus","response","question_order","slider_start","image_path","practiceTrial","practiceTrialNum","correct","concept","repetition","hue","lightness","saturation","shift","ishihara_plate","correct_response"
"true","false","[]","[]","[]","preload","0","447","0.0-0.0","8d2jd1rcsp","14","","","","","","","","","","","","","","","","",""
"","","","","","html-button-response","1","7939","0.0-1.0","8d2jd1rcsp","14","7490","Welcome to our experiment!<p>At the bottom of this screen, you will see a button that says ""Begin Experiment"".<br>Please only click that button when you are ready to complete the 25 minute experiment in one sitting.</p><p> Once you click that button, it will not be possible to restart the experiment.","0","","","","","","","","","","","","","",""
"true","","","","","fullscreen","2","12867","0.0-2.0","8d2jd1rcsp","14","3921","","","","","","","","","","","","","","","",""
"","","","","","survey-multi-select","3","51601","0.0-3.0","8d2jd1rcsp","14","38731","","{""Consent"":[""<strong>I consent</strong>""]}","[0]","","","","","","","","","","","","",""
"","","","","","html-button-response","4","54497","0.0-4.0","8d2jd1rcsp","14","2894","Welcome! <p> This experiment involves two parts: demographic information, followed by the experimental task.<p> It will take about 25 minutes to complete both parts.","0","","","","","","","","","","","","","",""
"","","","","","survey-text","5","66724","0.0-5.0","8d2jd1rcsp","14","12214","","{""Age"":""20"",""Gender"":""Female"",""Race/ethnicity"":""White"",""Languages"":""English""}","","","","","","","","","","","","","",""
"","","","","","html-slider-response","6","107324","0.0-6.0","8d2jd1rcsp","14","40597","
                            <div style='text-align:left; font-size:20px; line-height:25px; width: 1400px;'>
                                During this experiment you will be asked to rate how much you associate maps with                    different concepts.<br> Below, you can see some examples of the maps you will be asked to rate. Next to the maps
                    is the list of concepts.<br>You will be asked                    to rate how much you associate each map with each concept on a scale from 'not at all' to 'very much' like the
                    one below. <br><br>
                    Now, please look at the list of concepts and maps. For each concept, think about the map you associate 'very
                    much' with the concept.<br>                     When you see that map during the experiment, please rate it near the 'very much' endpoint of the
                    scale.<br>Now, please think about which map you associate 'not at all'                     with each concept. When you see that map during the experiment, please rate it near the 'not at all' endpoint
                    of the scale.<br>
                    Please use the full range of the scale. That is, if a map is somewhat associated with the concept, you would
                    click partway between the middle point and right side of the scale.                    You will be asked to rate each map for a given concept before moving on to the next concept.<br><br>Press the
                    'Continue' button for instructions on how to use the slider.                    <br><br>
                </div>

                <div style=""width: 500px; margin: 0 auto;"">
                    <!-- Centered text paragraphs -->
                    <div style=""text-align: center; width: 500px;"">
                        <p style=""font-size:25px; line-height:18px;"">calm</p>
                        <p style=""font-size:25px; line-height:18px;"">positive</p>
                        <p style=""font-size:25px;line-height:18px;"">negative</p>
                        <p style=""font-size:25px;line-height:18px;"">startling</p>
                    </div>

                    <!-- Grid section -->
                   <div style=""display: flex; justify-content: center; padding-top: 15px;"">
                    <div style=""display: grid; grid-template-columns: repeat(8, 80px); grid-gap: 5px; width: auto;"">
                        <img src=""images/G_L_U_10_lightshift.png"" alt=""map"" style=""width: 100%;""><img src=""images/B_L_S_15_lightshift.png"" alt=""map"" style=""width: 100%;""><img src=""images/B_D_U_27_lightshift.png"" alt=""map"" style=""width: 100%;""><img src=""images/R_L_U_44_darkshift.png"" alt=""map"" style=""width: 100%;""><img src=""images/G_L_S_7_lightshift.png"" alt=""map"" style=""width: 100%;""><img src=""images/Y_D_U_37_darkshift.png"" alt=""map"" style=""width: 100%;""><img src=""images/B_L_S_15_darkshift.png"" alt=""map"" style=""width: 100%;""><img src=""images/Y_D_S_33_darkshift.png"" alt=""map"" style=""width: 100%;""><img src=""images/Y_L_U_30_lightshift.png"" alt=""map"" style=""width: 100%;""><img src=""images/R_D_U_5_darkshift.png"" alt=""map"" style=""width: 100%;""><img src=""images/R_L_U_44_lightshift.png"" alt=""map"" style=""width: 100%;""><img src=""images/R_L_S_41_lightshift.png"" alt=""map"" style=""width: 100%;""><img src=""images/Y_L_U_30_darkshift.png"" alt=""map"" style=""width: 100%;""><img src=""images/B_L_U_23_lightshift.png"" alt=""map"" style=""width: 100%;""><img src=""images/R_D_S_2_lightshift.png"" alt=""map"" style=""width: 100%;""><img src=""images/B_D_U_27_darkshift.png"" alt=""map"" style=""width: 100%;""><img src=""images/G_D_S_12_lightshift.png"" alt=""map"" style=""width: 100%;""><img src=""images/G_L_S_7_darkshift.png"" alt=""map"" style=""width: 100%;""><img src=""images/G_D_S_12_darkshift.png"" alt=""map"" style=""width: 100%;""><img src=""images/G_D_U_13_darkshift.png"" alt=""map"" style=""width: 100%;""><img src=""images/G_L_U_10_darkshift.png"" alt=""map"" style=""width: 100%;""><img src=""images/B_D_S_26_darkshift.png"" alt=""map"" style=""width: 100%;""><img src=""images/Y_L_S_28_lightshift.png"" alt=""map"" style=""width: 100%;""><img src=""images/R_D_U_5_lightshift.png"" alt=""map"" style=""width: 100%;""><img src=""images/Y_D_S_33_lightshift.png"" alt=""map"" style=""width: 100%;""><img src=""images/Y_L_S_28_darkshift.png"" alt=""map"" style=""width: 100%;""><img src=""images/G_D_U_13_lightshift.png"" alt=""map"" style=""width: 100%;""><img src=""images/R_L_S_41_darkshift.png"" alt=""map"" style=""width: 100%;""><img src=""images/R_D_S_2_darkshift.png"" alt=""map"" style=""width: 100%;""><img src=""images/Y_D_U_37_lightshift.png"" alt=""map"" style=""width: 100%;""><img src=""images/B_L_U_23_darkshift.png"" alt=""map"" style=""width: 100%;""><img src=""images/B_D_S_26_lightshift.png"" alt=""map"" style=""width: 100%;"">
                    </div>
                </div>

                    <!-- Clear floats -->
                    <div style=""clear: both;""></div>
                </div>
                            ","-42","","0","maps_anchoring.png","true","","","","","","","","","",""
"","","","","","html-button-response","7","115940","0.0-7.0","8d2jd1rcsp","14","8615","<div style=""width:800px;""><p style=""text-align:left"">To move the slider, click and drag your cursor to the location of the scale where you would like to make your rating and then let go. When you let go of the slider, your response will be recorded and the next trial will begin. <br>
                    We are interested in your initial impressions of each map for the given concept, so please go with your first intuition. <br>
                    Before you begin the experiment, there will be four training trials for you to practice using the scale. <br>
                     When you are ready to start the training trials, please click ""Continue"".</p><br></div>","0","","","","","","","","","","","","","",""
"","","","","","html-slider-response","8","118316","0.0-8.0-0.0","8d2jd1rcsp","14","NaN","<div style=""width:500px;"">
                                    <p style=""font-size:25px;"">Please move the slider all the way to the <br> right endpoint of the scale</p>

                                    </div>
                                </div>","200","","0","","true","0","true","","","","","","","",""
"","","","","","html-button-response","9","119917","0.0-8.0-1.0","8d2jd1rcsp","14","1097","<p align='center'><b>Good job!</b> Click on 'Continue' to proceed.</p>","0","","","","","","","","","","","","","",""
"","","","","","html-slider-response","10","121630","0.0-9.0-0.0","8d2jd1rcsp","14","NaN","<div style=""width:500px;"">
                                    <p style=""font-size:25px;"">Please move the slider all the way to the <br> left endpoint of the scale</p>

                                    </div>
                                </div>","-200","","0","","true","1","true","","","","","","","",""
"","","","","","html-button-response","11","123391","0.0-9.0-1.0","8d2jd1rcsp","14","1255","<p align='center'><b>Good job!</b> Click on 'Continue' to proceed.</p>","0","","","","","","","","","","","","","",""
"","","","","","html-slider-response","12","126252","0.0-10.0-0.0","8d2jd1rcsp","14","NaN","<div style=""width:500px;"">
                                    <p style=""font-size:25px;"">Please move the slider halfway between the center and right endpoint of the scale</p>

                                    </div>
                                </div>","109","","0","","true","2","true","","","","","","","",""
"","","","","","html-button-response","13","127328","0.0-10.0-1.0","8d2jd1rcsp","14","574","<p align='center'><b>Good job!</b> Click on 'Continue' to proceed.</p>","0","","","","","","","","","","","","","",""
"","","","","","html-slider-response","14","129417","0.0-11.0-0.0","8d2jd1rcsp","14","NaN","<div style=""width:500px;"">
                                    <p style=""font-size:25px;"">Please move the slider halfway between the center and left endpoint of the scale</p>

                                    </div>
                                </div>","-91","","0","","true","3","true","","","","","","","",""
"","","","","","html-button-response","15","130730","0.0-11.0-1.0","8d2jd1rcsp","14","811","<p align='center'><b>Good job!</b> Click on 'Continue' to proceed.</p>","0","","","","","","","","","","","","","",""
"","","","","","html-button-response","16","131832","0.0-12.0","8d2jd1rcsp","14","1102","<p>Great job! You've completed the practice trials. Now you will begin the main task.</p>","0","","","","","","","","","","","","","",""
"","","","","","html-button-response","17","135282","0.0-13.0","8d2jd1rcsp","14","3449","<p>In this block of trials, you will be asked to rate how much you associate each map with:</p > <p style = 'font-size:150%; font-weight: bold'>negative</p><br></br>","0","","","","","","","","","","","","","",""
"","","","","","html-slider-response","18","137370","0.0-14.0","8d2jd1rcsp","14","NaN","<div style=""width:500px;"">
                            <p style=""font-size:50px; font-weight:bold;""
                            >negative</p>
                            <div style=""width:240px; margin: auto;"">
                                <img src=""images/Y_D_S_33_darkshift.png"" style= ""width:200px""alt=""img"">
                            </div>
                        </div>","200","","0","images/Y_D_S_33_darkshift.png","","","","negative","2","Y","D","S","darkshift","",""
"","","","","","html-slider-response","19","139918","0.0-15.0","8d2jd1rcsp","14","NaN","<div style=""width:500px;"">
                            <p style=""font-size:50px; font-weight:bold;""
                            >negative</p>
                            <div style=""width:240px; margin: auto;"">
                                <img src=""images/G_D_S_12_lightshift.png"" style= ""width:200px""alt=""img"">
                            </div>
                        </div>","-29","","0","images/G_D_S_12_lightshift.png","","","","negative","1","G","D","S","lightshift","",""
"","","","","","html-slider-response","20","142076","0.0-16.0","8d2jd1rcsp","14","NaN","<div style=""width:500px;"">
                            <p style=""font-size:50px; font-weight:bold;""
                            >negative</p>
                            <div style=""width:240px; margin: auto;"">
                                <img src=""images/B_D_S_26_darkshift.png"" style= ""width:200px""alt=""img"">
                            </div>
                        </div>","-126","","0","images/B_D_S_26_darkshift.png","","","","negative","2","B","D","S","darkshift","",""
"","","","","","html-slider-response","21","144150","0.0-17.0","8d2jd1rcsp","14","NaN","<div style=""width:500px;"">
                            <p style=""font-size:50px; font-weight:bold;""
                            >negative</p>
                            <div style=""width:240px; margin: auto;"">
                                <img src=""images/B_L_U_23_darkshift.png"" style= ""width:200px""alt=""img"">
                            </div>
                        </div>","-172","","0","images/B_L_U_23_darkshift.png","","","","negative","1","B","L","U","darkshift","",""
"","","","","","html-slider-response","22","146179","0.0-18.0","8d2jd1rcsp","14","NaN","<div style=""width:500px;"">
                            <p style=""font-size:50px; font-weight:bold;""
                            >negative</p>
                            <div style=""width:240px; margin: auto;"">
                                <img src=""images/R_D_S_2_lightshift.png"" style= ""width:200px""alt=""img"">
                            </div>
                        </div>","-107","","0","images/R_D_S_2_lightshift.png","","","","negative","1","R","D","S","lightshift","",""
"","","","","","html-slider-response","23","149334","0.0-19.0","8d2jd1rcsp","14","NaN","<div style=""width:500px;"">
                            <p style=""font-size:50px; font-weight:bold;""
                            >negative</p>
                            <div style=""width:240px; margin: auto;"">
                                <img src=""images/Y_L_U_30_darkshift.png"" style= ""width:200px""alt=""img"">
                            </div>
                        </div>","14","","0","images/Y_L_U_30_darkshift.png","","","","negative","1","Y","L","U","darkshift","",""
"","","","","","html-slider-response","24","151234","0.0-20.0","8d2jd1rcsp","14","NaN","<div style=""width:500px;"">
                            <p style=""font-size:50px; font-weight:bold;""
                            >negative</p>
                            <div style=""width:240px; margin: auto;"">
                                <img src=""images/B_D_S_26_lightshift.png"" style= ""width:200px""alt=""img"">
                            </div>
                        </div>","-115","","0","images/B_D_S_26_lightshift.png","","","","negative","2","B","D","S","lightshift","",""
"","","","","","html-slider-response","25","152869","0.0-21.0","8d2jd1rcsp","14","NaN","<div style=""width:500px;"">
                            <p style=""font-size:50px; font-weight:bold;""
                            >negative</p>
                            <div style=""width:240px; margin: auto;"">
                                <img src=""images/G_L_S_7_lightshift.png"" style= ""width:200px""alt=""img"">
                            </div>
                        </div>","-51","","0","images/G_L_S_7_lightshift.png","","","","negative","1","G","L","S","lightshift","",""
"","","","","","html-slider-response","26","154526","0.0-22.0","8d2jd1rcsp","14","NaN","<div style=""width:500px;"">
                            <p style=""font-size:50px; font-weight:bold;""
                            >negative</p>
                            <div style=""width:240px; margin: auto;"">
                                <img src=""images/Y_D_S_33_lightshift.png"" style= ""width:200px""alt=""img"">
                            </div>
                        </div>","62","","0","images/Y_D_S_33_lightshift.png","","","","negative","2","Y","D","S","lightshift","",""
"","","","","","html-slider-response","27","156065","0.0-23.0","8d2jd1rcsp","14","NaN","<div style=""width:500px;"">
                            <p style=""font-size:50px; font-weight:bold;""
                            >negative</p>
                            <div style=""width:240px; margin: auto;"">
                                <img src=""images/Y_D_S_33_lightshift.png"" style= ""width:200px""alt=""img"">
                            </div>
                        </div>","83","","0","images/Y_D_S_33_lightshift.png","","","","negative","1","Y","D","S","lightshift","",""
"","","","","","html-slider-response","28","158262","0.0-24.0","8d2jd1rcsp","14","NaN","<div style=""width:500px;"">
                            <p style=""font-size:50px; font-weight:bold;""
                            >negative</p>
                            <div style=""width:240px; margin: auto;"">
                                <img src=""images/R_D_U_5_darkshift.png"" style= ""width:200px""alt=""img"">
                            </div>
                        </div>","-12","","0","images/R_D_U_5_darkshift.png","","","","negative","1","R","D","U","darkshift","",""
"","","","","","html-slider-response","29","160178","0.0-25.0","8d2jd1rcsp","14","NaN","<div style=""width:500px;"">
                            <p style=""font-size:50px; font-weight:bold;""
                            >negative</p>
                            <div style=""width:240px; margin: auto;"">
                                <img src=""images/B_L_U_23_lightshift.png"" style= ""width:200px""alt=""img"">
                            </div>
                        </div>","-102","","0","images/B_L_U_23_lightshift.png","","","","negative","1","B","L","U","lightshift","",""
"","","","","","html-slider-response","30","162031","0.0-26.0","8d2jd1rcsp","14","NaN","<div style=""width:500px;"">
                            <p style=""font-size:50px; font-weight:bold;""
                            >negative</p>
                            <div style=""width:240px; margin: auto;"">
                                <img src=""images/R_L_U_44_lightshift.png"" style= ""width:200px""alt=""img"">
                            </div>
                        </div>","-110","","0","images/R_L_U_44_lightshift.png","","","","negative","1","R","L","U","lightshift","",""
"","","","","","html-slider-response","31","165233","0.0-27.0","8d2jd1rcsp","14","NaN","<div style=""width:500px;"">
                            <p style=""font-size:50px; font-weight:bold;""
                            >negative</p>
                            <div style=""width:240px; margin: auto;"">
                                <img src=""images/G_D_S_12_darkshift.png"" style= ""width:200px""alt=""img"">
                            </div>
                        </div>","38","","0","images/G_D_S_12_darkshift.png","","","","negative","2","G","D","S","darkshift","",""
"","","","","","html-slider-response","32","166957","0.0-28.0","8d2jd1rcsp","14","NaN","<div style=""width:500px;"">
                            <p style=""font-size:50px; font-weight:bold;""
                            >negative</p>
                            <div style=""width:240px; margin: auto;"">
                                <img src=""images/B_D_U_27_lightshift.png"" style= ""width:200px""alt=""img"">
                            </div>
                        </div>","-24","","0","images/B_D_U_27_lightshift.png","","","","negative","1","B","D","U","lightshift","",""
"","","","","","html-slider-response","33","168890","0.0-29.0","8d2jd1rcsp","14","NaN","<div style=""width:500px;"">
                            <p style=""font-size:50px; font-weight:bold;""
                            >negative</p>
                            <div style=""width:240px; margin: auto;"">
                                <img src=""images/R_D_U_5_darkshift.png"" style= ""width:200px""alt=""img"">
                            </div>
                        </div>","31","","0","images/R_D_U_5_darkshift.png","","","","negative","2","R","D","U","darkshift","",""
"","","","","","html-slider-response","34","170495","0.0-30.0","8d2jd1rcsp","14","NaN","<div style=""width:500px;"">
                            <p style=""font-size:50px; font-weight:bold;""
                            >negative</p>
                            <div style=""width:240px; margin: auto;"">
                                <img src=""images/B_D_S_26_lightshift.png"" style= ""width:200px""alt=""img"">
                            </div>
                        </div>","-61","","0","images/B_D_S_26_lightshift.png","","","","negative","1","B","D","S","lightshift","",""
"","","","","","html-slider-response","35","172052","0.0-31.0","8d2jd1rcsp","14","NaN","<div style=""width:500px;"">
                            <p style=""font-size:50px; font-weight:bold;""
                            >negative</p>
                            <div style=""width:240px; margin: auto;"">
                                <img src=""images/G_D_S_12_lightshift.png"" style= ""width:200px""alt=""img"">
                            </div>
                        </div>","-11","","0","images/G_D_S_12_lightshift.png","","","","negative","2","G","D","S","lightshift","",""
"","","","","","html-slider-response","36","173537","0.0-32.0","8d2jd1rcsp","14","NaN","<div style=""width:500px;"">
                            <p style=""font-size:50px; font-weight:bold;""
                            >negative</p>
                            <div style=""width:240px; margin: auto;"">
                                <img src=""images/G_L_U_10_darkshift.png"" style= ""width:200px""alt=""img"">
                            </div>
                        </div>","-73","","0","images/G_L_U_10_darkshift.png","","","","negative","2","G","L","U","darkshift","",""
"","","","","","html-slider-response","37","175271","0.0-33.0","8d2jd1rcsp","14","NaN","<div style=""width:500px;"">
                            <p style=""font-size:50px; font-weight:bold;""
                            >negative</p>
                            <div style=""width:240px; margin: auto;"">
                                <img src=""images/Y_L_S_28_darkshift.png"" style= ""width:200px""alt=""img"">
                            </div>
                        </div>","26","","0","images/Y_L_S_28_darkshift.png","","","","negative","1","Y","L","S","darkshift","",""
"","","","","","html-slider-response","38","176945","0.0-34.0","8d2jd1rcsp","14","NaN","<div style=""width:500px;"">
                            <p style=""font-size:50px; font-weight:bold;""
                            >negative</p>
                            <div style=""width:240px; margin: auto;"">
                                <img src=""images/G_L_S_7_darkshift.png"" style= ""width:200px""alt=""img"">
                            </div>
                        </div>","-72","","0","images/G_L_S_7_darkshift.png","","","","negative","1","G","L","S","darkshift","",""
"","","","","","html-slider-response","39","178476","0.0-35.0","8d2jd1rcsp","14","NaN","<div style=""width:500px;"">
                            <p style=""font-size:50px; font-weight:bold;""
                            >negative</p>
                            <div style=""width:240px; margin: auto;"">
                                <img src=""images/G_L_S_7_lightshift.png"" style= ""width:200px""alt=""img"">
                            </div>
                        </div>","-65","","0","images/G_L_S_7_lightshift.png","","","","negative","2","G","L","S","lightshift","",""
"","","","","","html-slider-response","40","180452","0.0-36.0","8d2jd1rcsp","14","NaN","<div style=""width:500px;"">
                            <p style=""font-size:50px; font-weight:bold;""
                            >negative</p>
                            <div style=""width:240px; margin: auto;"">
                                <img src=""images/Y_L_S_28_lightshift.png"" style= ""width:200px""alt=""img"">
                            </div>
                        </div>","-50","","0","images/Y_L_S_28_lightshift.png","","","","negative","1","Y","L","S","lightshift","",""
"","","","","","html-slider-response","41","181926","0.0-37.0","8d2jd1rcsp","14","NaN","<div style=""width:500px;"">
                            <p style=""font-size:50px; font-weight:bold;""
                            >negative</p>
                            <div style=""width:240px; margin: auto;"">
                                <img src=""images/G_L_U_10_darkshift.png"" style= ""width:200px""alt=""img"">
                            </div>
                        </div>","-90","","0","images/G_L_U_10_darkshift.png","","","","negative","1","G","L","U","darkshift","",""
"","","","","","html-slider-response","42","183633","0.0-38.0","8d2jd1rcsp","14","NaN","<div style=""width:500px;"">
                            <p style=""font-size:50px; font-weight:bold;""
                            >negative</p>
                            <div style=""width:240px; margin: auto;"">
                                <img src=""images/G_L_U_10_lightshift.png"" style= ""width:200px""alt=""img"">
                            </div>
                        </div>","-58","","0","images/G_L_U_10_lightshift.png","","","","negative","2","G","L","U","lightshift","",""
"","","","","","html-slider-response","43","185214","0.0-39.0","8d2jd1rcsp","14","NaN","<div style=""width:500px;"">
                            <p style=""font-size:50px; font-weight:bold;""
                            >negative</p>
                            <div style=""width:240px; margin: auto;"">
                                <img src=""images/B_L_U_23_darkshift.png"" style= ""width:200px""alt=""img"">
                            </div>
                        </div>","-70","","0","images/B_L_U_23_darkshift.png","","","","negative","2","B","L","U","darkshift","",""
"","","","","","html-slider-response","44","186963","0.0-40.0","8d2jd1rcsp","14","NaN","<div style=""width:500px;"">
                            <p style=""font-size:50px; font-weight:bold;""
                            >negative</p>
                            <div style=""width:240px; margin: auto;"">
                                <img src=""images/G_D_U_13_lightshift.png"" style= ""width:200px""alt=""img"">
                            </div>
                        </div>","66","","0","images/G_D_U_13_lightshift.png","","","","negative","1","G","D","U","lightshift","",""
"","","","","","html-slider-response","45","188649","0.0-41.0","8d2jd1rcsp","14","NaN","<div style=""width:500px;"">
                            <p style=""font-size:50px; font-weight:bold;""
                            >negative</p>
                            <div style=""width:240px; margin: auto;"">
                                <img src=""images/Y_L_U_30_darkshift.png"" style= ""width:200px""alt=""img"">
                            </div>
                        </div>","15","","0","images/Y_L_U_30_darkshift.png","","","","negative","2","Y","L","U","darkshift","",""
"","","","","","html-slider-response","46","190230","0.0-42.0","8d2jd1rcsp","14","NaN","<div style=""width:500px;"">
                            <p style=""font-size:50px; font-weight:bold;""
                            >negative</p>
                            <div style=""width:240px; margin: auto;"">
                                <img src=""images/B_L_U_23_lightshift.png"" style= ""width:200px""alt=""img"">
                            </div>
                        </div>","-71","","0","images/B_L_U_23_lightshift.png","","","","negative","2","B","L","U","lightshift","",""
"","","","","","html-slider-response","47","191835","0.0-43.0","8d2jd1rcsp","14","NaN","<div style=""width:500px;"">
                            <p style=""font-size:50px; font-weight:bold;""
                            >negative</p>
                            <div style=""width:240px; margin: auto;"">
                                <img src=""images/R_L_S_41_lightshift.png"" style= ""width:200px""alt=""img"">
                            </div>
                        </div>","-76","","0","images/R_L_S_41_lightshift.png","","","","negative","1","R","L","S","lightshift","",""
"","","","","","html-slider-response","48","193800","0.0-44.0","8d2jd1rcsp","14","NaN","<div style=""width:500px;"">
                            <p style=""font-size:50px; font-weight:bold;""
                            >negative</p>
                            <div style=""width:240px; margin: auto;"">
                                <img src=""images/R_L_S_41_darkshift.png"" style= ""width:200px""alt=""img"">
                            </div>
                        </div>","-154","","0","images/R_L_S_41_darkshift.png","","","","negative","1","R","L","S","darkshift","",""
"","","","","","html-slider-response","49","195847","0.0-45.0","8d2jd1rcsp","14","NaN","<div style=""width:500px;"">
                            <p style=""font-size:50px; font-weight:bold;""
                            >negative</p>
                            <div style=""width:240px; margin: auto;"">
                                <img src=""images/B_D_S_26_darkshift.png"" style= ""width:200px""alt=""img"">
                            </div>
                        </div>","-162","","0","images/B_D_S_26_darkshift.png","","","","negative","1","B","D","S","darkshift","",""
"","","","","","html-slider-response","50","197761","0.0-46.0","8d2jd1rcsp","14","NaN","<div style=""width:500px;"">
                            <p style=""font-size:50px; font-weight:bold;""
                            >negative</p>
                            <div style=""width:240px; margin: auto;"">
                                <img src=""images/G_D_S_12_darkshift.png"" style= ""width:200px""alt=""img"">
                            </div>
                        </div>","39","","0","images/G_D_S_12_darkshift.png","","","","negative","1","G","D","S","darkshift","",""
"","","","","","html-slider-response","51","199614","0.0-47.0","8d2jd1rcsp","14","NaN","<div style=""width:500px;"">
                            <p style=""font-size:50px; font-weight:bold;""
                            >negative</p>
                            <div style=""width:240px; margin: auto;"">
                                <img src=""images/G_L_S_7_darkshift.png"" style= ""width:200px""alt=""img"">
                            </div>
                        </div>","-41","","0","images/G_L_S_7_darkshift.png","","","","negative","2","G","L","S","darkshift","",""
"","","","","","html-slider-response","52","201618","0.0-48.0","8d2jd1rcsp","14","NaN","<div style=""width:500px;"">
                            <p style=""font-size:50px; font-weight:bold;""
                            >negative</p>
                            <div style=""width:240px; margin: auto;"">
                                <img src=""images/Y_L_S_28_darkshift.png"" style= ""width:200px""alt=""img"">
                            </div>
                        </div>","17","","0","images/Y_L_S_28_darkshift.png","","","","negative","2","Y","L","S","darkshift","",""
"","","","","","html-slider-response","53","203394","0.0-49.0","8d2jd1rcsp","14","NaN","<div style=""width:500px;"">
                            <p style=""font-size:50px; font-weight:bold;""
                            >negative</p>
                            <div style=""width:240px; margin: auto;"">
                                <img src=""images/Y_L_U_30_lightshift.png"" style= ""width:200px""alt=""img"">
                            </div>
                        </div>","-35","","0","images/Y_L_U_30_lightshift.png","","","","negative","1","Y","L","U","lightshift","",""
"","","","","","html-slider-response","54","205035","0.0-50.0","8d2jd1rcsp","14","NaN","<div style=""width:500px;"">
                            <p style=""font-size:50px; font-weight:bold;""
                            >negative</p>
                            <div style=""width:240px; margin: auto;"">
                                <img src=""images/B_D_U_27_darkshift.png"" style= ""width:200px""alt=""img"">
                            </div>
                        </div>","-81","","0","images/B_D_U_27_darkshift.png","","","","negative","1","B","D","U","darkshift","",""
"","","","","","html-slider-response","55","206657","0.0-51.0","8d2jd1rcsp","14","NaN","<div style=""width:500px;"">
                            <p style=""font-size:50px; font-weight:bold;""
                            >negative</p>
                            <div style=""width:240px; margin: auto;"">
                                <img src=""images/Y_L_S_28_lightshift.png"" style= ""width:200px""alt=""img"">
                            </div>
                        </div>","-26","","0","images/Y_L_S_28_lightshift.png","","","","negative","2","Y","L","S","lightshift","",""
"","","","","","html-slider-response","56","208383","0.0-52.0","8d2jd1rcsp","14","NaN","<div style=""width:500px;"">
                            <p style=""font-size:50px; font-weight:bold;""
                            >negative</p>
                            <div style=""width:240px; margin: auto;"">
                                <img src=""images/B_L_S_15_lightshift.png"" style= ""width:200px""alt=""img"">
                            </div>
                        </div>","-43","","0","images/B_L_S_15_lightshift.png","","","","negative","1","B","L","S","lightshift","",""
"","","","","","html-slider-response","57","210985","0.0-53.0","8d2jd1rcsp","14","NaN","<div style=""width:500px;"">
                            <p style=""font-size:50px; font-weight:bold;""
                            >negative</p>
                            <div style=""width:240px; margin: auto;"">
                                <img src=""images/G_D_U_13_darkshift.png"" style= ""width:200px""alt=""img"">
                            </div>
                        </div>","112","","0","images/G_D_U_13_darkshift.png","","","","negative","1","G","D","U","darkshift","",""
"","","","","","html-slider-response","58","225133","0.0-54.0","8d2jd1rcsp","14","NaN","<div style=""width:500px;"">
                            <p style=""font-size:50px; font-weight:bold;""
                            >negative</p>
                            <div style=""width:240px; margin: auto;"">
                                <img src=""images/B_L_S_15_darkshift.png"" style= ""width:200px""alt=""img"">
                            </div>
                        </div>","58","","0","images/B_L_S_15_darkshift.png","","","","negative","1","B","L","S","darkshift","",""
"","","","","","html-slider-response","59","227671","0.0-55.0","8d2jd1rcsp","14","NaN","<div style=""width:500px;"">
                            <p style=""font-size:50px; font-weight:bold;""
                            >negative</p>
                            <div style=""width:240px; margin: auto;"">
                                <img src=""images/Y_D_U_37_darkshift.png"" style= ""width:200px""alt=""img"">
                            </div>
                        </div>","170","","0","images/Y_D_U_37_darkshift.png","","","","negative","1","Y","D","U","darkshift","",""
"","","","","","html-slider-response","60","229284","0.0-56.0","8d2jd1rcsp","14","NaN","<div style=""width:500px;"">
                            <p style=""font-size:50px; font-weight:bold;""
                            >negative</p>
                            <div style=""width:240px; margin: auto;"">
                                <img src=""images/R_L_S_41_lightshift.png"" style= ""width:200px""alt=""img"">
                            </div>
                        </div>","-84","","0","images/R_L_S_41_lightshift.png","","","","negative","2","R","L","S","lightshift","",""
"","","","","","html-slider-response","61","231030","0.0-57.0","8d2jd1rcsp","14","NaN","<div style=""width:500px;"">
                            <p style=""font-size:50px; font-weight:bold;""
                            >negative</p>
                            <div style=""width:240px; margin: auto;"">
                                <img src=""images/Y_D_U_37_darkshift.png"" style= ""width:200px""alt=""img"">
                            </div>
                        </div>","199","","0","images/Y_D_U_37_darkshift.png","","","","negative","2","Y","D","U","darkshift","",""
"","","","","","html-slider-response","62","232385","0.0-58.0","8d2jd1rcsp","14","NaN","<div style=""width:500px;"">
                            <p style=""font-size:50px; font-weight:bold;""
                            >negative</p>
                            <div style=""width:240px; margin: auto;"">
                                <img src=""images/R_D_U_5_lightshift.png"" style= ""width:200px""alt=""img"">
                            </div>
                        </div>","-2","","0","images/R_D_U_5_lightshift.png","","","","negative","1","R","D","U","lightshift","",""
"","","","","","html-slider-response","63","234565","0.0-59.0","8d2jd1rcsp","14","NaN","<div style=""width:500px;"">
                            <p style=""font-size:50px; font-weight:bold;""
                            >negative</p>
                            <div style=""width:240px; margin: auto;"">
                                <img src=""images/Y_D_U_37_lightshift.png"" style= ""width:200px""alt=""img"">
                            </div>
                        </div>","100","","0","images/Y_D_U_37_lightshift.png","","","","negative","2","Y","D","U","lightshift","",""
"","","","","","html-slider-response","64","236202","0.0-60.0","8d2jd1rcsp","14","NaN","<div style=""width:500px;"">
                            <p style=""font-size:50px; font-weight:bold;""
                            >negative</p>
                            <div style=""width:240px; margin: auto;"">
                                <img src=""images/G_D_U_13_lightshift.png"" style= ""width:200px""alt=""img"">
                            </div>
                        </div>","19","","0","images/G_D_U_13_lightshift.png","","","","negative","2","G","D","U","lightshift","",""
"","","","","","html-slider-response","65","237584","0.0-61.0","8d2jd1rcsp","14","NaN","<div style=""width:500px;"">
                            <p style=""font-size:50px; font-weight:bold;""
                            >negative</p>
                            <div style=""width:240px; margin: auto;"">
                                <img src=""images/Y_L_U_30_lightshift.png"" style= ""width:200px""alt=""img"">
                            </div>
                        </div>","-24","","0","images/Y_L_U_30_lightshift.png","","","","negative","2","Y","L","U","lightshift","",""
"","","","","","html-slider-response","66","238885","0.0-62.0","8d2jd1rcsp","14","NaN","<div style=""width:500px;"">
                            <p style=""font-size:50px; font-weight:bold;""
                            >negative</p>
                            <div style=""width:240px; margin: auto;"">
                                <img src=""images/R_L_U_44_darkshift.png"" style= ""width:200px""alt=""img"">
                            </div>
                        </div>","-62","","0","images/R_L_U_44_darkshift.png","","","","negative","1","R","L","U","darkshift","",""
"","","","","","html-slider-response","67","239875","0.0-63.0","8d2jd1rcsp","14","NaN","<div style=""width:500px;"">
                            <p style=""font-size:50px; font-weight:bold;""
                            >negative</p>
                            <div style=""width:240px; margin: auto;"">
                                <img src=""images/G_L_U_10_lightshift.png"" style= ""width:200px""alt=""img"">
                            </div>
                        </div>","18","","0","images/G_L_U_10_lightshift.png","","","","negative","1","G","L","U","lightshift","",""
"","","","","","html-slider-response","68","242989","0.0-64.0","8d2jd1rcsp","14","NaN","<div style=""width:500px;"">
                            <p style=""font-size:50px; font-weight:bold;""
                            >negative</p>
                            <div style=""width:240px; margin: auto;"">
                                <img src=""images/B_D_U_27_lightshift.png"" style= ""width:200px""alt=""img"">
                            </div>
                        </div>","-62","","0","images/B_D_U_27_lightshift.png","","","","negative","2","B","D","U","lightshift","",""
"","","","","","html-slider-response","69","244690","0.0-65.0","8d2jd1rcsp","14","NaN","<div style=""width:500px;"">
                            <p style=""font-size:50px; font-weight:bold;""
                            >negative</p>
                            <div style=""width:240px; margin: auto;"">
                                <img src=""images/R_D_U_5_lightshift.png"" style= ""width:200px""alt=""img"">
                            </div>
                        </div>","-40","","0","images/R_D_U_5_lightshift.png","","","","negative","2","R","D","U","lightshift","",""
"","","","","","html-slider-response","70","246007","0.0-66.0","8d2jd1rcsp","14","NaN","<div style=""width:500px;"">
                            <p style=""font-size:50px; font-weight:bold;""
                            >negative</p>
                            <div style=""width:240px; margin: auto;"">
                                <img src=""images/R_L_U_44_lightshift.png"" style= ""width:200px""alt=""img"">
                            </div>
                        </div>","-40","","0","images/R_L_U_44_lightshift.png","","","","negative","2","R","L","U","lightshift","",""
"","","","","","html-slider-response","71","253306","0.0-67.0","8d2jd1rcsp","14","NaN","<div style=""width:500px;"">
                            <p style=""font-size:50px; font-weight:bold;""
                            >negative</p>
                            <div style=""width:240px; margin: auto;"">
                                <img src=""images/R_D_S_2_darkshift.png"" style= ""width:200px""alt=""img"">
                            </div>
                        </div>","-50","","0","images/R_D_S_2_darkshift.png","","","","negative","1","R","D","S","darkshift","",""
"","","","","","html-slider-response","72","255023","0.0-68.0","8d2jd1rcsp","14","NaN","<div style=""width:500px;"">
                            <p style=""font-size:50px; font-weight:bold;""
                            >negative</p>
                            <div style=""width:240px; margin: auto;"">
                                <img src=""images/R_D_S_2_lightshift.png"" style= ""width:200px""alt=""img"">
                            </div>
                        </div>","-62","","0","images/R_D_S_2_lightshift.png","","","","negative","2","R","D","S","lightshift","",""
"","","","","","html-slider-response","73","256820","0.0-69.0","8d2jd1rcsp","14","NaN","<div style=""width:500px;"">
                            <p style=""font-size:50px; font-weight:bold;""
                            >negative</p>
                            <div style=""width:240px; margin: auto;"">
                                <img src=""images/Y_D_U_37_lightshift.png"" style= ""width:200px""alt=""img"">
                            </div>
                        </div>","112","","0","images/Y_D_U_37_lightshift.png","","","","negative","1","Y","D","U","lightshift","",""
"","","","","","html-slider-response","74","258179","0.0-70.0","8d2jd1rcsp","14","NaN","<div style=""width:500px;"">
                            <p style=""font-size:50px; font-weight:bold;""
                            >negative</p>
                            <div style=""width:240px; margin: auto;"">
                                <img src=""images/B_D_U_27_darkshift.png"" style= ""width:200px""alt=""img"">
                            </div>
                        </div>","-51","","0","images/B_D_U_27_darkshift.png","","","","negative","2","B","D","U","darkshift","",""
"","","","","","html-slider-response","75","261070","0.0-71.0","8d2jd1rcsp","14","NaN","<div style=""width:500px;"">
                            <p style=""font-size:50px; font-weight:bold;""
                            >negative</p>
                            <div style=""width:240px; margin: auto;"">
                                <img src=""images/R_D_S_2_darkshift.png"" style= ""width:200px""alt=""img"">
                            </div>
                        </div>","-42","","0","images/R_D_S_2_darkshift.png","","","","negative","2","R","D","S","darkshift","",""
"","","","","","html-slider-response","76","262835","0.0-72.0","8d2jd1rcsp","14","NaN","<div style=""width:500px;"">
                            <p style=""font-size:50px; font-weight:bold;""
                            >negative</p>
                            <div style=""width:240px; margin: auto;"">
                                <img src=""images/B_L_S_15_darkshift.png"" style= ""width:200px""alt=""img"">
                            </div>
                        </div>","-72","","0","images/B_L_S_15_darkshift.png","","","","negative","2","B","L","S","darkshift","",""
"","","","","","html-slider-response","77","264793","0.0-73.0","8d2jd1rcsp","14","NaN","<div style=""width:500px;"">
                            <p style=""font-size:50px; font-weight:bold;""
                            >negative</p>
                            <div style=""width:240px; margin: auto;"">
                                <img src=""images/Y_D_S_33_darkshift.png"" style= ""width:200px""alt=""img"">
                            </div>
                        </div>","156","","0","images/Y_D_S_33_darkshift.png","","","","negative","1","Y","D","S","darkshift","",""
"","","","","","html-slider-response","78","266468","0.0-74.0","8d2jd1rcsp","14","NaN","<div style=""width:500px;"">
                            <p style=""font-size:50px; font-weight:bold;""
                            >negative</p>
                            <div style=""width:240px; margin: auto;"">
                                <img src=""images/B_L_S_15_lightshift.png"" style= ""width:200px""alt=""img"">
                            </div>
                        </div>","-82","","0","images/B_L_S_15_lightshift.png","","","","negative","2","B","L","S","lightshift","",""
"","","","","","html-slider-response","79","274983","0.0-75.0","8d2jd1rcsp","14","NaN","<div style=""width:500px;"">
                            <p style=""font-size:50px; font-weight:bold;""
                            >negative</p>
                            <div style=""width:240px; margin: auto;"">
                                <img src=""images/G_D_U_13_darkshift.png"" style= ""width:200px""alt=""img"">
                            </div>
                        </div>","50","","0","images/G_D_U_13_darkshift.png","","","","negative","2","G","D","U","darkshift","",""
"","","","","","html-slider-response","80","276468","0.0-76.0","8d2jd1rcsp","14","NaN","<div style=""width:500px;"">
                            <p style=""font-size:50px; font-weight:bold;""
                            >negative</p>
                            <div style=""width:240px; margin: auto;"">
                                <img src=""images/R_L_S_41_darkshift.png"" style= ""width:200px""alt=""img"">
                            </div>
                        </div>","-46","","0","images/R_L_S_41_darkshift.png","","","","negative","2","R","L","S","darkshift","",""
"","","","","","html-slider-response","81","277817","0.0-77.0","8d2jd1rcsp","14","NaN","<div style=""width:500px;"">
                            <p style=""font-size:50px; font-weight:bold;""
                            >negative</p>
                            <div style=""width:240px; margin: auto;"">
                                <img src=""images/R_L_U_44_darkshift.png"" style= ""width:200px""alt=""img"">
                            </div>
                        </div>","-42","","0","images/R_L_U_44_darkshift.png","","","","negative","2","R","L","U","darkshift","",""
"","","","","","html-button-response","82","279969","0.0-78.0","8d2jd1rcsp","14","1649","<p>Great Job! You've finished block 1.<br></br> You have 3 block(s) left to go.<br></br></p>","0","","","","","","","","","","","","","",""
"","","","","","html-button-response","83","281247","0.0-79.0","8d2jd1rcsp","14","1277","<p>In this block of trials, you will be asked to rate how much you associate each map with:</p > <p style = 'font-size:150%; font-weight: bold'>calm</p><br></br>","0","","","","","","","","","","","","","",""
"","","","","","html-slider-response","84","283072","0.0-80.0","8d2jd1rcsp","14","NaN","<div style=""width:500px;"">
                            <p style=""font-size:50px; font-weight:bold;""
                            >calm</p>
                            <div style=""width:240px; margin: auto;"">
                                <img src=""images/Y_D_S_33_lightshift.png"" style= ""width:200px""alt=""img"">
                            </div>
                        </div>","-78","","0","images/Y_D_S_33_lightshift.png","","","","calm","1","Y","D","S","lightshift","",""
"","","","","","html-slider-response","85","285214","0.0-81.0","8d2jd1rcsp","14","NaN","<div style=""width:500px;"">
                            <p style=""font-size:50px; font-weight:bold;""
                            >calm</p>
                            <div style=""width:240px; margin: auto;"">
                                <img src=""images/G_D_U_13_darkshift.png"" style= ""width:200px""alt=""img"">
                            </div>
                        </div>","81","","0","images/G_D_U_13_darkshift.png","","","","calm","2","G","D","U","darkshift","",""
"","","","","","html-slider-response","86","287120","0.0-82.0","8d2jd1rcsp","14","NaN","<div style=""width:500px;"">
                            <p style=""font-size:50px; font-weight:bold;""
                            >calm</p>
                            <div style=""width:240px; margin: auto;"">
                                <img src=""images/Y_D_U_37_darkshift.png"" style= ""width:200px""alt=""img"">
                            </div>
                        </div>","-158","","0","images/Y_D_U_37_darkshift.png","","","","calm","2","Y","D","U","darkshift","",""
"","","","","","html-slider-response","87","288984","0.0-83.0","8d2jd1rcsp","14","NaN","<div style=""width:500px;"">
                            <p style=""font-size:50px; font-weight:bold;""
                            >calm</p>
                            <div style=""width:240px; margin: auto;"">
                                <img src=""images/B_D_S_26_darkshift.png"" style= ""width:200px""alt=""img"">
                            </div>
                        </div>","198","","0","images/B_D_S_26_darkshift.png","","","","calm","2","B","D","S","darkshift","",""
"","","","","","html-slider-response","88","291968","0.0-84.0","8d2jd1rcsp","14","NaN","<div style=""width:500px;"">
                            <p style=""font-size:50px; font-weight:bold;""
                            >calm</p>
                            <div style=""width:240px; margin: auto;"">
                                <img src=""images/R_L_S_41_darkshift.png"" style= ""width:200px""alt=""img"">
                            </div>
                        </div>","52","","0","images/R_L_S_41_darkshift.png","","","","calm","1","R","L","S","darkshift","",""
"","","","","","html-slider-response","89","296066","0.0-85.0","8d2jd1rcsp","14","NaN","<div style=""width:500px;"">
                            <p style=""font-size:50px; font-weight:bold;""
                            >calm</p>
                            <div style=""width:240px; margin: auto;"">
                                <img src=""images/G_D_U_13_lightshift.png"" style= ""width:200px""alt=""img"">
                            </div>
                        </div>","-16","","0","images/G_D_U_13_lightshift.png","","","","calm","1","G","D","U","lightshift","",""
"","","","","","html-slider-response","90","299301","0.0-86.0","8d2jd1rcsp","14","NaN","<div style=""width:500px;"">
                            <p style=""font-size:50px; font-weight:bold;""
                            >calm</p>
                            <div style=""width:240px; margin: auto;"">
                                <img src=""images/Y_L_S_28_lightshift.png"" style= ""width:200px""alt=""img"">
                            </div>
                        </div>","-53","","0","images/Y_L_S_28_lightshift.png","","","","calm","2","Y","L","S","lightshift","",""
"","","","","","html-slider-response","91","301193","0.0-87.0","8d2jd1rcsp","14","NaN","<div style=""width:500px;"">
                            <p style=""font-size:50px; font-weight:bold;""
                            >calm</p>
                            <div style=""width:240px; margin: auto;"">
                                <img src=""images/R_D_U_5_lightshift.png"" style= ""width:200px""alt=""img"">
                            </div>
                        </div>","50","","0","images/R_D_U_5_lightshift.png","","","","calm","1","R","D","U","lightshift","",""
"","","","","","html-slider-response","92","305202","0.0-88.0","8d2jd1rcsp","14","NaN","<div style=""width:500px;"">
                            <p style=""font-size:50px; font-weight:bold;""
                            >calm</p>
                            <div style=""width:240px; margin: auto;"">
                                <img src=""images/Y_L_U_30_lightshift.png"" style= ""width:200px""alt=""img"">
                            </div>
                        </div>","-19","","0","images/Y_L_U_30_lightshift.png","","","","calm","2","Y","L","U","lightshift","",""
"","","","","","html-slider-response","93","308418","0.0-89.0","8d2jd1rcsp","14","NaN","<div style=""width:500px;"">
                            <p style=""font-size:50px; font-weight:bold;""
                            >calm</p>
                            <div style=""width:240px; margin: auto;"">
                                <img src=""images/G_L_S_7_lightshift.png"" style= ""width:200px""alt=""img"">
                            </div>
                        </div>","42","","0","images/G_L_S_7_lightshift.png","","","","calm","1","G","L","S","lightshift","",""
"","","","","","html-slider-response","94","309903","0.0-90.0","8d2jd1rcsp","14","NaN","<div style=""width:500px;"">
                            <p style=""font-size:50px; font-weight:bold;""
                            >calm</p>
                            <div style=""width:240px; margin: auto;"">
                                <img src=""images/R_L_S_41_darkshift.png"" style= ""width:200px""alt=""img"">
                            </div>
                        </div>","-42","","0","images/R_L_S_41_darkshift.png","","","","calm","2","R","L","S","darkshift","",""
"","","","","","html-slider-response","95","312172","0.0-91.0","8d2jd1rcsp","14","NaN","<div style=""width:500px;"">
                            <p style=""font-size:50px; font-weight:bold;""
                            >calm</p>
                            <div style=""width:240px; margin: auto;"">
                                <img src=""images/Y_L_S_28_darkshift.png"" style= ""width:200px""alt=""img"">
                            </div>
                        </div>","-22","","0","images/Y_L_S_28_darkshift.png","","","","calm","1","Y","L","S","darkshift","",""
"","","","","","html-slider-response","96","314001","0.0-92.0","8d2jd1rcsp","14","NaN","<div style=""width:500px;"">
                            <p style=""font-size:50px; font-weight:bold;""
                            >calm</p>
                            <div style=""width:240px; margin: auto;"">
                                <img src=""images/B_L_U_23_lightshift.png"" style= ""width:200px""alt=""img"">
                            </div>
                        </div>","109","","0","images/B_L_U_23_lightshift.png","","","","calm","1","B","L","U","lightshift","",""
"","","","","","html-slider-response","97","316372","0.0-93.0","8d2jd1rcsp","14","NaN","<div style=""width:500px;"">
                            <p style=""font-size:50px; font-weight:bold;""
                            >calm</p>
                            <div style=""width:240px; margin: auto;"">
                                <img src=""images/G_D_S_12_lightshift.png"" style= ""width:200px""alt=""img"">
                            </div>
                        </div>","23","","0","images/G_D_S_12_lightshift.png","","","","calm","1","G","D","S","lightshift","",""
"","","","","","html-slider-response","98","319118","0.0-94.0","8d2jd1rcsp","14","NaN","<div style=""width:500px;"">
                            <p style=""font-size:50px; font-weight:bold;""
                            >calm</p>
                            <div style=""width:240px; margin: auto;"">
                                <img src=""images/Y_L_U_30_darkshift.png"" style= ""width:200px""alt=""img"">
                            </div>
                        </div>","-20","","0","images/Y_L_U_30_darkshift.png","","","","calm","1","Y","L","U","darkshift","",""
"","","","","","html-slider-response","99","320782","0.0-95.0","8d2jd1rcsp","14","NaN","<div style=""width:500px;"">
                            <p style=""font-size:50px; font-weight:bold;""
                            >calm</p>
                            <div style=""width:240px; margin: auto;"">
                                <img src=""images/G_L_S_7_lightshift.png"" style= ""width:200px""alt=""img"">
                            </div>
                        </div>","24","","0","images/G_L_S_7_lightshift.png","","","","calm","2","G","L","S","lightshift","",""
"","","","","","html-slider-response","100","322106","0.0-96.0","8d2jd1rcsp","14","NaN","<div style=""width:500px;"">
                            <p style=""font-size:50px; font-weight:bold;""
                            >calm</p>
                            <div style=""width:240px; margin: auto;"">
                                <img src=""images/G_L_S_7_darkshift.png"" style= ""width:200px""alt=""img"">
                            </div>
                        </div>","49","","0","images/G_L_S_7_darkshift.png","","","","calm","1","G","L","S","darkshift","",""
"","","","","","html-slider-response","101","323282","0.0-97.0","8d2jd1rcsp","14","NaN","<div style=""width:500px;"">
                            <p style=""font-size:50px; font-weight:bold;""
                            >calm</p>
                            <div style=""width:240px; margin: auto;"">
                                <img src=""images/G_L_U_10_darkshift.png"" style= ""width:200px""alt=""img"">
                            </div>
                        </div>","49","","0","images/G_L_U_10_darkshift.png","","","","calm","1","G","L","U","darkshift","",""
"","","","","","html-slider-response","102","324901","0.0-98.0","8d2jd1rcsp","14","NaN","<div style=""width:500px;"">
                            <p style=""font-size:50px; font-weight:bold;""
                            >calm</p>
                            <div style=""width:240px; margin: auto;"">
                                <img src=""images/Y_L_U_30_darkshift.png"" style= ""width:200px""alt=""img"">
                            </div>
                        </div>","-28","","0","images/Y_L_U_30_darkshift.png","","","","calm","2","Y","L","U","darkshift","",""
"","","","","","html-slider-response","103","326353","0.0-99.0","8d2jd1rcsp","14","NaN","<div style=""width:500px;"">
                            <p style=""font-size:50px; font-weight:bold;""
                            >calm</p>
                            <div style=""width:240px; margin: auto;"">
                                <img src=""images/Y_L_U_30_lightshift.png"" style= ""width:200px""alt=""img"">
                            </div>
                        </div>","42","","0","images/Y_L_U_30_lightshift.png","","","","calm","1","Y","L","U","lightshift","",""
"","","","","","html-slider-response","104","328248","0.0-100.0","8d2jd1rcsp","14","NaN","<div style=""width:500px;"">
                            <p style=""font-size:50px; font-weight:bold;""
                            >calm</p>
                            <div style=""width:240px; margin: auto;"">
                                <img src=""images/G_D_S_12_darkshift.png"" style= ""width:200px""alt=""img"">
                            </div>
                        </div>","-34","","0","images/G_D_S_12_darkshift.png","","","","calm","2","G","D","S","darkshift","",""
"","","","","","html-slider-response","105","330154","0.0-101.0","8d2jd1rcsp","14","NaN","<div style=""width:500px;"">
                            <p style=""font-size:50px; font-weight:bold;""
                            >calm</p>
                            <div style=""width:240px; margin: auto;"">
                                <img src=""images/Y_L_S_28_lightshift.png"" style= ""width:200px""alt=""img"">
                            </div>
                        </div>","29","","0","images/Y_L_S_28_lightshift.png","","","","calm","1","Y","L","S","lightshift","",""
"","","","","","html-slider-response","106","331968","0.0-102.0","8d2jd1rcsp","14","NaN","<div style=""width:500px;"">
                            <p style=""font-size:50px; font-weight:bold;""
                            >calm</p>
                            <div style=""width:240px; margin: auto;"">
                                <img src=""images/R_L_U_44_darkshift.png"" style= ""width:200px""alt=""img"">
                            </div>
                        </div>","97","","0","images/R_L_U_44_darkshift.png","","","","calm","1","R","L","U","darkshift","",""
"","","","","","html-slider-response","107","334052","0.0-103.0","8d2jd1rcsp","14","NaN","<div style=""width:500px;"">
                            <p style=""font-size:50px; font-weight:bold;""
                            >calm</p>
                            <div style=""width:240px; margin: auto;"">
                                <img src=""images/Y_D_U_37_lightshift.png"" style= ""width:200px""alt=""img"">
                            </div>
                        </div>","-133","","0","images/Y_D_U_37_lightshift.png","","","","calm","1","Y","D","U","lightshift","",""
"","","","","","html-slider-response","108","336057","0.0-104.0","8d2jd1rcsp","14","NaN","<div style=""width:500px;"">
                            <p style=""font-size:50px; font-weight:bold;""
                            >calm</p>
                            <div style=""width:240px; margin: auto;"">
                                <img src=""images/R_D_U_5_darkshift.png"" style= ""width:200px""alt=""img"">
                            </div>
                        </div>","44","","0","images/R_D_U_5_darkshift.png","","","","calm","1","R","D","U","darkshift","",""
"","","","","","html-slider-response","109","337517","0.0-105.0","8d2jd1rcsp","14","NaN","<div style=""width:500px;"">
                            <p style=""font-size:50px; font-weight:bold;""
                            >calm</p>
                            <div style=""width:240px; margin: auto;"">
                                <img src=""images/B_D_U_27_darkshift.png"" style= ""width:200px""alt=""img"">
                            </div>
                        </div>","44","","0","images/B_D_U_27_darkshift.png","","","","calm","1","B","D","U","darkshift","",""
"","","","","","html-slider-response","110","339483","0.0-106.0","8d2jd1rcsp","14","NaN","<div style=""width:500px;"">
                            <p style=""font-size:50px; font-weight:bold;""
                            >calm</p>
                            <div style=""width:240px; margin: auto;"">
                                <img src=""images/G_D_U_13_darkshift.png"" style= ""width:200px""alt=""img"">
                            </div>
                        </div>","-58","","0","images/G_D_U_13_darkshift.png","","","","calm","1","G","D","U","darkshift","",""
"","","","","","html-slider-response","111","340991","0.0-107.0","8d2jd1rcsp","14","NaN","<div style=""width:500px;"">
                            <p style=""font-size:50px; font-weight:bold;""
                            >calm</p>
                            <div style=""width:240px; margin: auto;"">
                                <img src=""images/G_L_U_10_lightshift.png"" style= ""width:200px""alt=""img"">
                            </div>
                        </div>","44","","0","images/G_L_U_10_lightshift.png","","","","calm","2","G","L","U","lightshift","",""
"","","","","","html-slider-response","112","342681","0.0-108.0","8d2jd1rcsp","14","NaN","<div style=""width:500px;"">
                            <p style=""font-size:50px; font-weight:bold;""
                            >calm</p>
                            <div style=""width:240px; margin: auto;"">
                                <img src=""images/B_L_S_15_lightshift.png"" style= ""width:200px""alt=""img"">
                            </div>
                        </div>","44","","0","images/B_L_S_15_lightshift.png","","","","calm","2","B","L","S","lightshift","",""
"","","","","","html-slider-response","113","345118","0.0-109.0","8d2jd1rcsp","14","NaN","<div style=""width:500px;"">
                            <p style=""font-size:50px; font-weight:bold;""
                            >calm</p>
                            <div style=""width:240px; margin: auto;"">
                                <img src=""images/Y_D_S_33_lightshift.png"" style= ""width:200px""alt=""img"">
                            </div>
                        </div>","-153","","0","images/Y_D_S_33_lightshift.png","","","","calm","2","Y","D","S","lightshift","",""
"","","","","","html-slider-response","114","347003","0.0-110.0","8d2jd1rcsp","14","NaN","<div style=""width:500px;"">
                            <p style=""font-size:50px; font-weight:bold;""
                            >calm</p>
                            <div style=""width:240px; margin: auto;"">
                                <img src=""images/G_D_S_12_lightshift.png"" style= ""width:200px""alt=""img"">
                            </div>
                        </div>","36","","0","images/G_D_S_12_lightshift.png","","","","calm","2","G","D","S","lightshift","",""
"","","","","","html-slider-response","115","349679","0.0-111.0","8d2jd1rcsp","14","NaN","<div style=""width:500px;"">
                            <p style=""font-size:50px; font-weight:bold;""
                            >calm</p>
                            <div style=""width:240px; margin: auto;"">
                                <img src=""images/R_D_S_2_darkshift.png"" style= ""width:200px""alt=""img"">
                            </div>
                        </div>","38","","0","images/R_D_S_2_darkshift.png","","","","calm","1","R","D","S","darkshift","",""
"","","","","","html-slider-response","116","351603","0.0-112.0","8d2jd1rcsp","14","NaN","<div style=""width:500px;"">
                            <p style=""font-size:50px; font-weight:bold;""
                            >calm</p>
                            <div style=""width:240px; margin: auto;"">
                                <img src=""images/B_D_U_27_lightshift.png"" style= ""width:200px""alt=""img"">
                            </div>
                        </div>","22","","0","images/B_D_U_27_lightshift.png","","","","calm","1","B","D","U","lightshift","",""
"","","","","","html-slider-response","117","353153","0.0-113.0","8d2jd1rcsp","14","NaN","<div style=""width:500px;"">
                            <p style=""font-size:50px; font-weight:bold;""
                            >calm</p>
                            <div style=""width:240px; margin: auto;"">
                                <img src=""images/G_D_U_13_lightshift.png"" style= ""width:200px""alt=""img"">
                            </div>
                        </div>","45","","0","images/G_D_U_13_lightshift.png","","","","calm","2","G","D","U","lightshift","",""
"","","","","","html-slider-response","118","354718","0.0-114.0","8d2jd1rcsp","14","NaN","<div style=""width:500px;"">
                            <p style=""font-size:50px; font-weight:bold;""
                            >calm</p>
                            <div style=""width:240px; margin: auto;"">
                                <img src=""images/B_D_U_27_lightshift.png"" style= ""width:200px""alt=""img"">
                            </div>
                        </div>","94","","0","images/B_D_U_27_lightshift.png","","","","calm","2","B","D","U","lightshift","",""
"","","","","","html-slider-response","119","356124","0.0-115.0","8d2jd1rcsp","14","NaN","<div style=""width:500px;"">
                            <p style=""font-size:50px; font-weight:bold;""
                            >calm</p>
                            <div style=""width:240px; margin: auto;"">
                                <img src=""images/R_D_S_2_lightshift.png"" style= ""width:200px""alt=""img"">
                            </div>
                        </div>","122","","0","images/R_D_S_2_lightshift.png","","","","calm","1","R","D","S","lightshift","",""
"","","","","","html-slider-response","120","357963","0.0-116.0","8d2jd1rcsp","14","NaN","<div style=""width:500px;"">
                            <p style=""font-size:50px; font-weight:bold;""
                            >calm</p>
                            <div style=""width:240px; margin: auto;"">
                                <img src=""images/R_L_U_44_lightshift.png"" style= ""width:200px""alt=""img"">
                            </div>
                        </div>","21","","0","images/R_L_U_44_lightshift.png","","","","calm","1","R","L","U","lightshift","",""
"","","","","","html-slider-response","121","359790","0.0-117.0","8d2jd1rcsp","14","NaN","<div style=""width:500px;"">
                            <p style=""font-size:50px; font-weight:bold;""
                            >calm</p>
                            <div style=""width:240px; margin: auto;"">
                                <img src=""images/B_L_S_15_darkshift.png"" style= ""width:200px""alt=""img"">
                            </div>
                        </div>","190","","0","images/B_L_S_15_darkshift.png","","","","calm","1","B","L","S","darkshift","",""
"","","","","","html-slider-response","122","360934","0.0-118.0","8d2jd1rcsp","14","NaN","<div style=""width:500px;"">
                            <p style=""font-size:50px; font-weight:bold;""
                            >calm</p>
                            <div style=""width:240px; margin: auto;"">
                                <img src=""images/B_L_S_15_lightshift.png"" style= ""width:200px""alt=""img"">
                            </div>
                        </div>","189","","0","images/B_L_S_15_lightshift.png","","","","calm","1","B","L","S","lightshift","",""
"","","","","","html-slider-response","123","362746","0.0-119.0","8d2jd1rcsp","14","NaN","<div style=""width:500px;"">
                            <p style=""font-size:50px; font-weight:bold;""
                            >calm</p>
                            <div style=""width:240px; margin: auto;"">
                                <img src=""images/R_L_S_41_lightshift.png"" style= ""width:200px""alt=""img"">
                            </div>
                        </div>","110","","0","images/R_L_S_41_lightshift.png","","","","calm","2","R","L","S","lightshift","",""
"","","","","","html-slider-response","124","364727","0.0-120.0","8d2jd1rcsp","14","NaN","<div style=""width:500px;"">
                            <p style=""font-size:50px; font-weight:bold;""
                            >calm</p>
                            <div style=""width:240px; margin: auto;"">
                                <img src=""images/R_L_S_41_lightshift.png"" style= ""width:200px""alt=""img"">
                            </div>
                        </div>","135","","0","images/R_L_S_41_lightshift.png","","","","calm","1","R","L","S","lightshift","",""
"","","","","","html-slider-response","125","367074","0.0-121.0","8d2jd1rcsp","14","NaN","<div style=""width:500px;"">
                            <p style=""font-size:50px; font-weight:bold;""
                            >calm</p>
                            <div style=""width:240px; margin: auto;"">
                                <img src=""images/R_D_U_5_darkshift.png"" style= ""width:200px""alt=""img"">
                            </div>
                        </div>","54","","0","images/R_D_U_5_darkshift.png","","","","calm","2","R","D","U","darkshift","",""
"","","","","","html-slider-response","126","368168","0.0-122.0","8d2jd1rcsp","14","NaN","<div style=""width:500px;"">
                            <p style=""font-size:50px; font-weight:bold;""
                            >calm</p>
                            <div style=""width:240px; margin: auto;"">
                                <img src=""images/R_D_S_2_darkshift.png"" style= ""width:200px""alt=""img"">
                            </div>
                        </div>","54","","0","images/R_D_S_2_darkshift.png","","","","calm","2","R","D","S","darkshift","",""
"","","","","","html-slider-response","127","370340","0.0-123.0","8d2jd1rcsp","14","NaN","<div style=""width:500px;"">
                            <p style=""font-size:50px; font-weight:bold;""
                            >calm</p>
                            <div style=""width:240px; margin: auto;"">
                                <img src=""images/B_D_S_26_darkshift.png"" style= ""width:200px""alt=""img"">
                            </div>
                        </div>","200","","0","images/B_D_S_26_darkshift.png","","","","calm","1","B","D","S","darkshift","",""
"","","","","","html-slider-response","128","372082","0.0-124.0","8d2jd1rcsp","14","NaN","<div style=""width:500px;"">
                            <p style=""font-size:50px; font-weight:bold;""
                            >calm</p>
                            <div style=""width:240px; margin: auto;"">
                                <img src=""images/G_L_U_10_lightshift.png"" style= ""width:200px""alt=""img"">
                            </div>
                        </div>","135","","0","images/G_L_U_10_lightshift.png","","","","calm","1","G","L","U","lightshift","",""
"","","","","","html-slider-response","129","373351","0.0-125.0","8d2jd1rcsp","14","NaN","<div style=""width:500px;"">
                            <p style=""font-size:50px; font-weight:bold;""
                            >calm</p>
                            <div style=""width:240px; margin: auto;"">
                                <img src=""images/B_L_U_23_darkshift.png"" style= ""width:200px""alt=""img"">
                            </div>
                        </div>","135","","0","images/B_L_U_23_darkshift.png","","","","calm","2","B","L","U","darkshift","",""
"","","","","","html-slider-response","130","374556","0.0-126.0","8d2jd1rcsp","14","NaN","<div style=""width:500px;"">
                            <p style=""font-size:50px; font-weight:bold;""
                            >calm</p>
                            <div style=""width:240px; margin: auto;"">
                                <img src=""images/B_D_S_26_lightshift.png"" style= ""width:200px""alt=""img"">
                            </div>
                        </div>","135","","0","images/B_D_S_26_lightshift.png","","","","calm","1","B","D","S","lightshift","",""
"","","","","","html-slider-response","131","376850","0.0-127.0","8d2jd1rcsp","14","NaN","<div style=""width:500px;"">
                            <p style=""font-size:50px; font-weight:bold;""
                            >calm</p>
                            <div style=""width:240px; margin: auto;"">
                                <img src=""images/Y_D_U_37_darkshift.png"" style= ""width:200px""alt=""img"">
                            </div>
                        </div>","-194","","0","images/Y_D_U_37_darkshift.png","","","","calm","1","Y","D","U","darkshift","",""
"","","","","","html-slider-response","132","378574","0.0-128.0","8d2jd1rcsp","14","NaN","<div style=""width:500px;"">
                            <p style=""font-size:50px; font-weight:bold;""
                            >calm</p>
                            <div style=""width:240px; margin: auto;"">
                                <img src=""images/G_L_U_10_darkshift.png"" style= ""width:200px""alt=""img"">
                            </div>
                        </div>","114","","0","images/G_L_U_10_darkshift.png","","","","calm","2","G","L","U","darkshift","",""
"","","","","","html-slider-response","133","381218","0.0-129.0","8d2jd1rcsp","14","NaN","<div style=""width:500px;"">
                            <p style=""font-size:50px; font-weight:bold;""
                            >calm</p>
                            <div style=""width:240px; margin: auto;"">
                                <img src=""images/Y_D_S_33_darkshift.png"" style= ""width:200px""alt=""img"">
                            </div>
                        </div>","-152","","0","images/Y_D_S_33_darkshift.png","","","","calm","1","Y","D","S","darkshift","",""
"","","","","","html-slider-response","134","383135","0.0-130.0","8d2jd1rcsp","14","NaN","<div style=""width:500px;"">
                            <p style=""font-size:50px; font-weight:bold;""
                            >calm</p>
                            <div style=""width:240px; margin: auto;"">
                                <img src=""images/B_L_U_23_darkshift.png"" style= ""width:200px""alt=""img"">
                            </div>
                        </div>","166","","0","images/B_L_U_23_darkshift.png","","","","calm","1","B","L","U","darkshift","",""
"","","","","","html-slider-response","135","385084","0.0-131.0","8d2jd1rcsp","14","NaN","<div style=""width:500px;"">
                            <p style=""font-size:50px; font-weight:bold;""
                            >calm</p>
                            <div style=""width:240px; margin: auto;"">
                                <img src=""images/B_L_S_15_darkshift.png"" style= ""width:200px""alt=""img"">
                            </div>
                        </div>","147","","0","images/B_L_S_15_darkshift.png","","","","calm","2","B","L","S","darkshift","",""
"","","","","","html-slider-response","136","386887","0.0-132.0","8d2jd1rcsp","14","NaN","<div style=""width:500px;"">
                            <p style=""font-size:50px; font-weight:bold;""
                            >calm</p>
                            <div style=""width:240px; margin: auto;"">
                                <img src=""images/R_L_U_44_lightshift.png"" style= ""width:200px""alt=""img"">
                            </div>
                        </div>","20","","0","images/R_L_U_44_lightshift.png","","","","calm","2","R","L","U","lightshift","",""
"","","","","","html-slider-response","137","389133","0.0-133.0","8d2jd1rcsp","14","NaN","<div style=""width:500px;"">
                            <p style=""font-size:50px; font-weight:bold;""
                            >calm</p>
                            <div style=""width:240px; margin: auto;"">
                                <img src=""images/R_L_U_44_darkshift.png"" style= ""width:200px""alt=""img"">
                            </div>
                        </div>","74","","0","images/R_L_U_44_darkshift.png","","","","calm","2","R","L","U","darkshift","",""
"","","","","","html-slider-response","138","390760","0.0-134.0","8d2jd1rcsp","14","NaN","<div style=""width:500px;"">
                            <p style=""font-size:50px; font-weight:bold;""
                            >calm</p>
                            <div style=""width:240px; margin: auto;"">
                                <img src=""images/G_L_S_7_darkshift.png"" style= ""width:200px""alt=""img"">
                            </div>
                        </div>","89","","0","images/G_L_S_7_darkshift.png","","","","calm","2","G","L","S","darkshift","",""
"","","","","","html-slider-response","139","392949","0.0-135.0","8d2jd1rcsp","14","NaN","<div style=""width:500px;"">
                            <p style=""font-size:50px; font-weight:bold;""
                            >calm</p>
                            <div style=""width:240px; margin: auto;"">
                                <img src=""images/B_D_S_26_lightshift.png"" style= ""width:200px""alt=""img"">
                            </div>
                        </div>","176","","0","images/B_D_S_26_lightshift.png","","","","calm","2","B","D","S","lightshift","",""
"","","","","","html-slider-response","140","394850","0.0-136.0","8d2jd1rcsp","14","NaN","<div style=""width:500px;"">
                            <p style=""font-size:50px; font-weight:bold;""
                            >calm</p>
                            <div style=""width:240px; margin: auto;"">
                                <img src=""images/Y_L_S_28_darkshift.png"" style= ""width:200px""alt=""img"">
                            </div>
                        </div>","-134","","0","images/Y_L_S_28_darkshift.png","","","","calm","2","Y","L","S","darkshift","",""
"","","","","","html-slider-response","141","397550","0.0-137.0","8d2jd1rcsp","14","NaN","<div style=""width:500px;"">
                            <p style=""font-size:50px; font-weight:bold;""
                            >calm</p>
                            <div style=""width:240px; margin: auto;"">
                                <img src=""images/Y_D_S_33_darkshift.png"" style= ""width:200px""alt=""img"">
                            </div>
                        </div>","-162","","0","images/Y_D_S_33_darkshift.png","","","","calm","2","Y","D","S","darkshift","",""
"","","","","","html-slider-response","142","399368","0.0-138.0","8d2jd1rcsp","14","NaN","<div style=""width:500px;"">
                            <p style=""font-size:50px; font-weight:bold;""
                            >calm</p>
                            <div style=""width:240px; margin: auto;"">
                                <img src=""images/B_D_U_27_darkshift.png"" style= ""width:200px""alt=""img"">
                            </div>
                        </div>","93","","0","images/B_D_U_27_darkshift.png","","","","calm","2","B","D","U","darkshift","",""
"","","","","","html-slider-response","143","400885","0.0-139.0","8d2jd1rcsp","14","NaN","<div style=""width:500px;"">
                            <p style=""font-size:50px; font-weight:bold;""
                            >calm</p>
                            <div style=""width:240px; margin: auto;"">
                                <img src=""images/Y_D_U_37_lightshift.png"" style= ""width:200px""alt=""img"">
                            </div>
                        </div>","47","","0","images/Y_D_U_37_lightshift.png","","","","calm","2","Y","D","U","lightshift","",""
"","","","","","html-slider-response","144","402779","0.0-140.0","8d2jd1rcsp","14","NaN","<div style=""width:500px;"">
                            <p style=""font-size:50px; font-weight:bold;""
                            >calm</p>
                            <div style=""width:240px; margin: auto;"">
                                <img src=""images/R_D_U_5_lightshift.png"" style= ""width:200px""alt=""img"">
                            </div>
                        </div>","26","","0","images/R_D_U_5_lightshift.png","","","","calm","2","R","D","U","lightshift","",""
"","","","","","html-slider-response","145","404486","0.0-141.0","8d2jd1rcsp","14","NaN","<div style=""width:500px;"">
                            <p style=""font-size:50px; font-weight:bold;""
                            >calm</p>
                            <div style=""width:240px; margin: auto;"">
                                <img src=""images/R_D_S_2_lightshift.png"" style= ""width:200px""alt=""img"">
                            </div>
                        </div>","55","","0","images/R_D_S_2_lightshift.png","","","","calm","2","R","D","S","lightshift","",""
"","","","","","html-slider-response","146","406030","0.0-142.0","8d2jd1rcsp","14","NaN","<div style=""width:500px;"">
                            <p style=""font-size:50px; font-weight:bold;""
                            >calm</p>
                            <div style=""width:240px; margin: auto;"">
                                <img src=""images/G_D_S_12_darkshift.png"" style= ""width:200px""alt=""img"">
                            </div>
                        </div>","57","","0","images/G_D_S_12_darkshift.png","","","","calm","1","G","D","S","darkshift","",""
"","","","","","html-slider-response","147","408088","0.0-143.0","8d2jd1rcsp","14","NaN","<div style=""width:500px;"">
                            <p style=""font-size:50px; font-weight:bold;""
                            >calm</p>
                            <div style=""width:240px; margin: auto;"">
                                <img src=""images/B_L_U_23_lightshift.png"" style= ""width:200px""alt=""img"">
                            </div>
                        </div>","77","","0","images/B_L_U_23_lightshift.png","","","","calm","2","B","L","U","lightshift","",""
"","","","","","html-button-response","148","409722","0.0-144.0","8d2jd1rcsp","14","1129","<p>Great Job! You've finished block 2.<br></br> You have 2 block(s) left to go.<br></br></p>","0","","","","","","","","","","","","","",""
"","","","","","html-button-response","149","410807","0.0-145.0","8d2jd1rcsp","14","1085","<p>In this block of trials, you will be asked to rate how much you associate each map with:</p > <p style = 'font-size:150%; font-weight: bold'>positive</p><br></br>","0","","","","","","","","","","","","","",""
"","","","","","html-slider-response","150","412131","0.0-146.0","8d2jd1rcsp","14","NaN","<div style=""width:500px;"">
                            <p style=""font-size:50px; font-weight:bold;""
                            >positive</p>
                            <div style=""width:240px; margin: auto;"">
                                <img src=""images/Y_L_U_30_darkshift.png"" style= ""width:200px""alt=""img"">
                            </div>
                        </div>","-62","","0","images/Y_L_U_30_darkshift.png","","","","positive","2","Y","L","U","darkshift","",""
"","","","","","html-slider-response","151","415531","0.0-147.0","8d2jd1rcsp","14","NaN","<div style=""width:500px;"">
                            <p style=""font-size:50px; font-weight:bold;""
                            >positive</p>
                            <div style=""width:240px; margin: auto;"">
                                <img src=""images/G_D_U_13_darkshift.png"" style= ""width:200px""alt=""img"">
                            </div>
                        </div>","-80","","0","images/G_D_U_13_darkshift.png","","","","positive","1","G","D","U","darkshift","",""
"","","","","","html-slider-response","152","417456","0.0-148.0","8d2jd1rcsp","14","NaN","<div style=""width:500px;"">
                            <p style=""font-size:50px; font-weight:bold;""
                            >positive</p>
                            <div style=""width:240px; margin: auto;"">
                                <img src=""images/B_L_U_23_darkshift.png"" style= ""width:200px""alt=""img"">
                            </div>
                        </div>","198","","0","images/B_L_U_23_darkshift.png","","","","positive","1","B","L","U","darkshift","",""
"","","","","","html-slider-response","153","418635","0.0-149.0","8d2jd1rcsp","14","NaN","<div style=""width:500px;"">
                            <p style=""font-size:50px; font-weight:bold;""
                            >positive</p>
                            <div style=""width:240px; margin: auto;"">
                                <img src=""images/G_L_S_7_darkshift.png"" style= ""width:200px""alt=""img"">
                            </div>
                        </div>","198","","0","images/G_L_S_7_darkshift.png","","","","positive","2","G","L","S","darkshift","",""
"","","","","","html-slider-response","154","421152","0.0-150.0","8d2jd1rcsp","14","NaN","<div style=""width:500px;"">
                            <p style=""font-size:50px; font-weight:bold;""
                            >positive</p>
                            <div style=""width:240px; margin: auto;"">
                                <img src=""images/R_L_S_41_darkshift.png"" style= ""width:200px""alt=""img"">
                            </div>
                        </div>","198","","0","images/R_L_S_41_darkshift.png","","","","positive","2","R","L","S","darkshift","",""
"","","","","","html-slider-response","155","422304","0.0-151.0","8d2jd1rcsp","14","NaN","<div style=""width:500px;"">
                            <p style=""font-size:50px; font-weight:bold;""
                            >positive</p>
                            <div style=""width:240px; margin: auto;"">
                                <img src=""images/R_L_S_41_darkshift.png"" style= ""width:200px""alt=""img"">
                            </div>
                        </div>","198","","0","images/R_L_S_41_darkshift.png","","","","positive","1","R","L","S","darkshift","",""
"","","","","","html-slider-response","156","424354","0.0-152.0","8d2jd1rcsp","14","NaN","<div style=""width:500px;"">
                            <p style=""font-size:50px; font-weight:bold;""
                            >positive</p>
                            <div style=""width:240px; margin: auto;"">
                                <img src=""images/Y_D_U_37_darkshift.png"" style= ""width:200px""alt=""img"">
                            </div>
                        </div>","-190","","0","images/Y_D_U_37_darkshift.png","","","","positive","2","Y","D","U","darkshift","",""
"","","","","","html-slider-response","157","426295","0.0-153.0","8d2jd1rcsp","14","NaN","<div style=""width:500px;"">
                            <p style=""font-size:50px; font-weight:bold;""
                            >positive</p>
                            <div style=""width:240px; margin: auto;"">
                                <img src=""images/G_D_S_12_lightshift.png"" style= ""width:200px""alt=""img"">
                            </div>
                        </div>","90","","0","images/G_D_S_12_lightshift.png","","","","positive","1","G","D","S","lightshift","",""
"","","","","","html-slider-response","158","427835","0.0-154.0","8d2jd1rcsp","14","NaN","<div style=""width:500px;"">
                            <p style=""font-size:50px; font-weight:bold;""
                            >positive</p>
                            <div style=""width:240px; margin: auto;"">
                                <img src=""images/R_L_S_41_lightshift.png"" style= ""width:200px""alt=""img"">
                            </div>
                        </div>","172","","0","images/R_L_S_41_lightshift.png","","","","positive","2","R","L","S","lightshift","",""
"","","","","","html-slider-response","159","429185","0.0-155.0","8d2jd1rcsp","14","NaN","<div style=""width:500px;"">
                            <p style=""font-size:50px; font-weight:bold;""
                            >positive</p>
                            <div style=""width:240px; margin: auto;"">
                                <img src=""images/G_L_S_7_lightshift.png"" style= ""width:200px""alt=""img"">
                            </div>
                        </div>","189","","0","images/G_L_S_7_lightshift.png","","","","positive","1","G","L","S","lightshift","",""
"","","","","","html-slider-response","160","430408","0.0-156.0","8d2jd1rcsp","14","NaN","<div style=""width:500px;"">
                            <p style=""font-size:50px; font-weight:bold;""
                            >positive</p>
                            <div style=""width:240px; margin: auto;"">
                                <img src=""images/B_D_S_26_lightshift.png"" style= ""width:200px""alt=""img"">
                            </div>
                        </div>","189","","0","images/B_D_S_26_lightshift.png","","","","positive","1","B","D","S","lightshift","",""
"","","","","","html-slider-response","161","432373","0.0-157.0","8d2jd1rcsp","14","NaN","<div style=""width:500px;"">
                            <p style=""font-size:50px; font-weight:bold;""
                            >positive</p>
                            <div style=""width:240px; margin: auto;"">
                                <img src=""images/Y_D_S_33_lightshift.png"" style= ""width:200px""alt=""img"">
                            </div>
                        </div>","-191","","0","images/Y_D_S_33_lightshift.png","","","","positive","1","Y","D","S","lightshift","",""
"","","","","","html-slider-response","162","434073","0.0-158.0","8d2jd1rcsp","14","NaN","<div style=""width:500px;"">
                            <p style=""font-size:50px; font-weight:bold;""
                            >positive</p>
                            <div style=""width:240px; margin: auto;"">
                                <img src=""images/B_L_U_23_lightshift.png"" style= ""width:200px""alt=""img"">
                            </div>
                        </div>","181","","0","images/B_L_U_23_lightshift.png","","","","positive","1","B","L","U","lightshift","",""
"","","","","","html-slider-response","163","435184","0.0-159.0","8d2jd1rcsp","14","NaN","<div style=""width:500px;"">
                            <p style=""font-size:50px; font-weight:bold;""
                            >positive</p>
                            <div style=""width:240px; margin: auto;"">
                                <img src=""images/G_L_S_7_lightshift.png"" style= ""width:200px""alt=""img"">
                            </div>
                        </div>","182","","0","images/G_L_S_7_lightshift.png","","","","positive","2","G","L","S","lightshift","",""
"","","","","","html-slider-response","164","438195","0.0-160.0","8d2jd1rcsp","14","NaN","<div style=""width:500px;"">
                            <p style=""font-size:50px; font-weight:bold;""
                            >positive</p>
                            <div style=""width:240px; margin: auto;"">
                                <img src=""images/R_D_U_5_lightshift.png"" style= ""width:200px""alt=""img"">
                            </div>
                        </div>","-115","","0","images/R_D_U_5_lightshift.png","","","","positive","2","R","D","U","lightshift","",""
"","","","","","html-slider-response","165","440247","0.0-161.0","8d2jd1rcsp","14","NaN","<div style=""width:500px;"">
                            <p style=""font-size:50px; font-weight:bold;""
                            >positive</p>
                            <div style=""width:240px; margin: auto;"">
                                <img src=""images/B_D_S_26_darkshift.png"" style= ""width:200px""alt=""img"">
                            </div>
                        </div>","110","","0","images/B_D_S_26_darkshift.png","","","","positive","1","B","D","S","darkshift","",""
"","","","","","html-slider-response","166","441891","0.0-162.0","8d2jd1rcsp","14","NaN","<div style=""width:500px;"">
                            <p style=""font-size:50px; font-weight:bold;""
                            >positive</p>
                            <div style=""width:240px; margin: auto;"">
                                <img src=""images/R_D_S_2_lightshift.png"" style= ""width:200px""alt=""img"">
                            </div>
                        </div>","105","","0","images/R_D_S_2_lightshift.png","","","","positive","1","R","D","S","lightshift","",""
"","","","","","html-slider-response","167","444144","0.0-163.0","8d2jd1rcsp","14","NaN","<div style=""width:500px;"">
                            <p style=""font-size:50px; font-weight:bold;""
                            >positive</p>
                            <div style=""width:240px; margin: auto;"">
                                <img src=""images/Y_D_S_33_lightshift.png"" style= ""width:200px""alt=""img"">
                            </div>
                        </div>","-167","","0","images/Y_D_S_33_lightshift.png","","","","positive","2","Y","D","S","lightshift","",""
"","","","","","html-slider-response","168","445901","0.0-164.0","8d2jd1rcsp","14","NaN","<div style=""width:500px;"">
                            <p style=""font-size:50px; font-weight:bold;""
                            >positive</p>
                            <div style=""width:240px; margin: auto;"">
                                <img src=""images/G_L_U_10_darkshift.png"" style= ""width:200px""alt=""img"">
                            </div>
                        </div>","131","","0","images/G_L_U_10_darkshift.png","","","","positive","1","G","L","U","darkshift","",""
"","","","","","html-slider-response","169","449573","0.0-165.0","8d2jd1rcsp","14","NaN","<div style=""width:500px;"">
                            <p style=""font-size:50px; font-weight:bold;""
                            >positive</p>
                            <div style=""width:240px; margin: auto;"">
                                <img src=""images/R_D_U_5_darkshift.png"" style= ""width:200px""alt=""img"">
                            </div>
                        </div>","-158","","0","images/R_D_U_5_darkshift.png","","","","positive","2","R","D","U","darkshift","",""
"","","","","","html-slider-response","170","451681","0.0-166.0","8d2jd1rcsp","14","NaN","<div style=""width:500px;"">
                            <p style=""font-size:50px; font-weight:bold;""
                            >positive</p>
                            <div style=""width:240px; margin: auto;"">
                                <img src=""images/Y_D_U_37_lightshift.png"" style= ""width:200px""alt=""img"">
                            </div>
                        </div>","-135","","0","images/Y_D_U_37_lightshift.png","","","","positive","1","Y","D","U","lightshift","",""
"","","","","","html-slider-response","171","461147","0.0-167.0","8d2jd1rcsp","14","NaN","<div style=""width:500px;"">
                            <p style=""font-size:50px; font-weight:bold;""
                            >positive</p>
                            <div style=""width:240px; margin: auto;"">
                                <img src=""images/Y_L_S_28_darkshift.png"" style= ""width:200px""alt=""img"">
                            </div>
                        </div>","21","","0","images/Y_L_S_28_darkshift.png","","","","positive","2","Y","L","S","darkshift","",""
"","","","","","html-slider-response","172","464803","0.0-168.0","8d2jd1rcsp","14","NaN","<div style=""width:500px;"">
                            <p style=""font-size:50px; font-weight:bold;""
                            >positive</p>
                            <div style=""width:240px; margin: auto;"">
                                <img src=""images/Y_D_S_33_darkshift.png"" style= ""width:200px""alt=""img"">
                            </div>
                        </div>","-194","","0","images/Y_D_S_33_darkshift.png","","","","positive","1","Y","D","S","darkshift","",""
"","","","","","html-slider-response","173","467648","0.0-169.0","8d2jd1rcsp","14","NaN","<div style=""width:500px;"">
                            <p style=""font-size:50px; font-weight:bold;""
                            >positive</p>
                            <div style=""width:240px; margin: auto;"">
                                <img src=""images/Y_D_U_37_lightshift.png"" style= ""width:200px""alt=""img"">
                            </div>
