"success","timeout","failed_images","failed_audio","failed_video","trial_type","trial_index","time_elapsed","internal_node_id","subject_id","condition_num","rt","stimulus","response","question_order","slider_start","image_path","practiceTrial","practiceTrialNum","correct","concept","repetition","hue","lightness","saturation","shift","ishihara_plate","correct_response"
"true","false","[]","[]","[]","preload","0","739","0.0-0.0","cncqukmedd","3","","","","","","","","","","","","","","","","",""
"","","","","","html-button-response","1","6451","0.0-1.0","cncqukmedd","3","5711","Welcome to our experiment!<p>At the bottom of this screen, you will see a button that says ""Begin Experiment"".<br>Please only click that button when you are ready to complete the 25 minute experiment in one sitting.</p><p> Once you click that button, it will not be possible to restart the experiment.","0","","","","","","","","","","","","","",""
"true","","","","","fullscreen","2","9319","0.0-2.0","cncqukmedd","3","1865","","","","","","","","","","","","","","","",""
"","","","","","survey-multi-select","3","52040","0.0-3.0","cncqukmedd","3","42716","","{""Consent"":[""<strong>I consent</strong>""]}","[0]","","","","","","","","","","","","",""
"","","","","","html-button-response","4","55405","0.0-4.0","cncqukmedd","3","3364","Welcome! <p> This experiment involves two parts: demographic information, followed by the experimental task.<p> It will take about 25 minutes to complete both parts.","0","","","","","","","","","","","","","",""
"","","","","","survey-text","5","74425","0.0-5.0","cncqukmedd","3","19004","","{""Age"":""20"",""Gender"":""Female"",""Race/ethnicity"":""Hispanic, white"",""Languages"":""French, Spanish, English""}","","","","","","","","","","","","","",""
"","","","","","html-slider-response","6","82656","0.0-6.0","cncqukmedd","3","8229","
                            <div style='text-align:left; font-size:20px; line-height:25px; width: 1400px;'>
                                During this experiment you will be asked to rate how much you associate maps with                    different concepts.<br> Below, you can see some examples of the maps you will be asked to rate. Next to the maps
                    is the list of concepts.<br>You will be asked                    to rate how much you associate each map with each concept on a scale from 'not at all' to 'very much' like the
                    one below. <br><br>
                    Now, please look at the list of concepts and maps. For each concept, think about the map you associate 'very
                    much' with the concept.<br>                     When you see that map during the experiment, please rate it near the 'very much' endpoint of the
                    scale.<br>Now, please think about which map you associate 'not at all'                     with each concept. When you see that map during the experiment, please rate it near the 'not at all' endpoint
                    of the scale.<br>
                    Please use the full range of the scale. That is, if a map is somewhat associated with the concept, you would
                    click partway between the middle point and right side of the scale.                    You will be asked to rate each map for a given concept before moving on to the next concept.<br><br>Press the
                    'Continue' button for instructions on how to use the slider.                    <br><br>
                </div>

                <div style=""width: 500px; margin: 0 auto;"">
                    <!-- Centered text paragraphs -->
                    <div style=""text-align: center; width: 500px;"">
                        <p style=""font-size:25px; line-height:18px;"">calm</p>
                        <p style=""font-size:25px; line-height:18px;"">positive</p>
                        <p style=""font-size:25px;line-height:18px;"">negative</p>
                        <p style=""font-size:25px;line-height:18px;"">startling</p>
                    </div>

                    <!-- Grid section -->
                   <div style=""display: flex; justify-content: center; padding-top: 15px;"">
                    <div style=""display: grid; grid-template-columns: repeat(8, 80px); grid-gap: 5px; width: auto;"">
                        <img src=""images/Y_L_U_2_lightshift.png"" alt=""map"" style=""width: 100%;""><img src=""images/B_L_U_33_darkshift.png"" alt=""map"" style=""width: 100%;""><img src=""images/G_D_S_27_lightshift.png"" alt=""map"" style=""width: 100%;""><img src=""images/G_D_U_28_darkshift.png"" alt=""map"" style=""width: 100%;""><img src=""images/R_D_S_13_darkshift.png"" alt=""map"" style=""width: 100%;""><img src=""images/R_L_U_12_lightshift.png"" alt=""map"" style=""width: 100%;""><img src=""images/R_D_S_13_lightshift.png"" alt=""map"" style=""width: 100%;""><img src=""images/Y_D_S_5_lightshift.png"" alt=""map"" style=""width: 100%;""><img src=""images/R_L_S_10_lightshift.png"" alt=""map"" style=""width: 100%;""><img src=""images/G_D_S_27_darkshift.png"" alt=""map"" style=""width: 100%;""><img src=""images/Y_D_S_5_darkshift.png"" alt=""map"" style=""width: 100%;""><img src=""images/B_L_S_30_darkshift.png"" alt=""map"" style=""width: 100%;""><img src=""images/G_L_U_26_lightshift.png"" alt=""map"" style=""width: 100%;""><img src=""images/Y_D_U_7_darkshift.png"" alt=""map"" style=""width: 100%;""><img src=""images/B_L_U_33_lightshift.png"" alt=""map"" style=""width: 100%;""><img src=""images/G_L_S_23_lightshift.png"" alt=""map"" style=""width: 100%;""><img src=""images/B_L_S_30_lightshift.png"" alt=""map"" style=""width: 100%;""><img src=""images/Y_D_U_7_lightshift.png"" alt=""map"" style=""width: 100%;""><img src=""images/B_D_S_37_lightshift.png"" alt=""map"" style=""width: 100%;""><img src=""images/R_L_U_12_darkshift.png"" alt=""map"" style=""width: 100%;""><img src=""images/Y_L_U_2_darkshift.png"" alt=""map"" style=""width: 100%;""><img src=""images/R_D_U_15_darkshift.png"" alt=""map"" style=""width: 100%;""><img src=""images/B_D_S_37_darkshift.png"" alt=""map"" style=""width: 100%;""><img src=""images/B_D_U_41_lightshift.png"" alt=""map"" style=""width: 100%;""><img src=""images/G_D_U_28_lightshift.png"" alt=""map"" style=""width: 100%;""><img src=""images/G_L_U_26_darkshift.png"" alt=""map"" style=""width: 100%;""><img src=""images/R_L_S_10_darkshift.png"" alt=""map"" style=""width: 100%;""><img src=""images/B_D_U_41_darkshift.png"" alt=""map"" style=""width: 100%;""><img src=""images/R_D_U_15_lightshift.png"" alt=""map"" style=""width: 100%;""><img src=""images/G_L_S_23_darkshift.png"" alt=""map"" style=""width: 100%;""><img src=""images/Y_L_S_44_darkshift.png"" alt=""map"" style=""width: 100%;""><img src=""images/Y_L_S_44_lightshift.png"" alt=""map"" style=""width: 100%;"">
                    </div>
                </div>

                    <!-- Clear floats -->
                    <div style=""clear: both;""></div>
                </div>
                            ","null","","0","maps_anchoring.png","true","","","","","","","","","",""
"","","","","","html-button-response","7","92573","0.0-7.0","cncqukmedd","3","9916","<div style=""width:800px;""><p style=""text-align:left"">To move the slider, click and drag your cursor to the location of the scale where you would like to make your rating and then let go. When you let go of the slider, your response will be recorded and the next trial will begin. <br>
                    We are interested in your initial impressions of each map for the given concept, so please go with your first intuition. <br>
                    Before you begin the experiment, there will be four training trials for you to practice using the scale. <br>
                     When you are ready to start the training trials, please click ""Continue"".</p><br></div>","0","","","","","","","","","","","","","",""
"","","","","","html-slider-response","8","95117","0.0-8.0-0.0","cncqukmedd","3","NaN","<div style=""width:500px;"">
                                    <p style=""font-size:25px;"">Please move the slider all the way to the <br> right endpoint of the scale</p>

                                    </div>
                                </div>","192","","0","","true","0","true","","","","","","","",""
"","","","","","html-button-response","9","96573","0.0-8.0-1.0","cncqukmedd","3","953","<p align='center'><b>Good job!</b> Click on 'Continue' to proceed.</p>","0","","","","","","","","","","","","","",""
"","","","","","html-slider-response","10","97901","0.0-9.0-0.0","cncqukmedd","3","NaN","<div style=""width:500px;"">
                                    <p style=""font-size:25px;"">Please move the slider all the way to the <br> left endpoint of the scale</p>

                                    </div>
                                </div>","-200","","0","","true","1","true","","","","","","","",""
"","","","","","html-button-response","11","100290","0.0-9.0-1.0","cncqukmedd","3","1887","<p align='center'><b>Good job!</b> Click on 'Continue' to proceed.</p>","0","","","","","","","","","","","","","",""
"","","","","","html-slider-response","12","102784","0.0-10.0-0.0","cncqukmedd","3","NaN","<div style=""width:500px;"">
                                    <p style=""font-size:25px;"">Please move the slider halfway between the center and right endpoint of the scale</p>

                                    </div>
                                </div>","3","","0","","true","2","false","","","","","","","",""
"","","","","","html-button-response","13","105139","0.0-10.0-1.0","cncqukmedd","3","1853","<p align='center'><b>Not quite!</b> The slider was not placed near the instructed located. Click on 'Continue' to try again. </p>","0","","","","","","","","","","","","","",""
"","","","","","html-slider-response","14","107470","0.0-10.1-0.1","cncqukmedd","3","NaN","<div style=""width:500px;"">
                                    <p style=""font-size:25px;"">Please move the slider halfway between the center and right endpoint of the scale</p>

                                    </div>
                                </div>","113","","0","","true","2","false","","","","","","","",""
"","","","","","html-button-response","15","108623","0.0-10.1-1.1","cncqukmedd","3","652","<p align='center'><b>Not quite!</b> The slider was not placed near the instructed located. Click on 'Continue' to try again. </p>","0","","","","","","","","","","","","","",""
"","","","","","html-slider-response","16","112733","0.0-10.2-0.2","cncqukmedd","3","NaN","<div style=""width:500px;"">
                                    <p style=""font-size:25px;"">Please move the slider halfway between the center and right endpoint of the scale</p>

                                    </div>
                                </div>","115","","0","","true","2","false","","","","","","","",""
"","","","","","html-button-response","17","115106","0.0-10.2-1.2","cncqukmedd","3","1871","<p align='center'><b>Not quite!</b> The slider was not placed near the instructed located. Click on 'Continue' to try again. </p>","0","","","","","","","","","","","","","",""
"","","","","","html-slider-response","18","121621","0.0-10.3-0.3","cncqukmedd","3","NaN","<div style=""width:500px;"">
                                    <p style=""font-size:25px;"">Please move the slider halfway between the center and right endpoint of the scale</p>

                                    </div>
                                </div>","121","","0","","true","2","false","","","","","","","",""
"","","","","","html-button-response","19","122956","0.0-10.3-1.3","cncqukmedd","3","833","<p align='center'><b>Not quite!</b> The slider was not placed near the instructed located. Click on 'Continue' to try again. </p>","0","","","","","","","","","","","","","",""
"","","","","","html-slider-response","20","124401","0.0-10.4-0.4","cncqukmedd","3","NaN","<div style=""width:500px;"">
                                    <p style=""font-size:25px;"">Please move the slider halfway between the center and right endpoint of the scale</p>

                                    </div>
                                </div>","-91","","0","","true","2","false","","","","","","","",""
"","","","","","html-button-response","21","125623","0.0-10.4-1.4","cncqukmedd","3","720","<p align='center'><b>Not quite!</b> The slider was not placed near the instructed located. Click on 'Continue' to try again. </p>","0","","","","","","","","","","","","","",""
"","","","","","html-slider-response","22","127102","0.0-10.5-0.5","cncqukmedd","3","NaN","<div style=""width:500px;"">
                                    <p style=""font-size:25px;"">Please move the slider halfway between the center and right endpoint of the scale</p>

                                    </div>
                                </div>","160","","0","","true","2","false","","","","","","","",""
"","","","","","html-button-response","23","128390","0.0-10.5-1.5","cncqukmedd","3","787","<p align='center'><b>Not quite!</b> The slider was not placed near the instructed located. Click on 'Continue' to try again. </p>","0","","","","","","","","","","","","","",""
"","","","","","html-slider-response","24","134834","0.0-10.6-0.6","cncqukmedd","3","NaN","<div style=""width:500px;"">
                                    <p style=""font-size:25px;"">Please move the slider halfway between the center and right endpoint of the scale</p>

                                    </div>
                                </div>","112","","0","","true","2","false","","","","","","","",""
"","","","","","html-button-response","25","136977","0.0-10.6-1.6","cncqukmedd","3","1641","<p align='center'><b>Not quite!</b> The slider was not placed near the instructed located. Click on 'Continue' to try again. </p>","0","","","","","","","","","","","","","",""
"","","","","","html-slider-response","26","146476","0.0-10.7-0.7","cncqukmedd","3","NaN","<div style=""width:500px;"">
                                    <p style=""font-size:25px;"">Please move the slider halfway between the center and right endpoint of the scale</p>

                                    </div>
                                </div>","115","","0","","true","2","false","","","","","","","",""
"","","","","","html-button-response","27","147848","0.0-10.7-1.7","cncqukmedd","3","870","<p align='center'><b>Not quite!</b> The slider was not placed near the instructed located. Click on 'Continue' to try again. </p>","0","","","","","","","","","","","","","",""
"","","","","","html-slider-response","28","151596","0.0-10.8-0.8","cncqukmedd","3","NaN","<div style=""width:500px;"">
                                    <p style=""font-size:25px;"">Please move the slider halfway between the center and right endpoint of the scale</p>

                                    </div>
                                </div>","101","","0","","true","2","true","","","","","","","",""
"","","","","","html-button-response","29","153117","0.0-10.8-1.8","cncqukmedd","3","1019","<p align='center'><b>Good job!</b> Click on 'Continue' to proceed.</p>","0","","","","","","","","","","","","","",""
"","","","","","html-slider-response","30","155167","0.0-11.0-0.0","cncqukmedd","3","NaN","<div style=""width:500px;"">
                                    <p style=""font-size:25px;"">Please move the slider halfway between the center and left endpoint of the scale</p>

                                    </div>
                                </div>","-86","","0","","true","3","true","","","","","","","",""
"","","","","","html-button-response","31","156395","0.0-11.0-1.0","cncqukmedd","3","725","<p align='center'><b>Good job!</b> Click on 'Continue' to proceed.</p>","0","","","","","","","","","","","","","",""
"","","","","","html-button-response","32","159850","0.0-12.0","cncqukmedd","3","3455","<p>Great job! You've completed the practice trials. Now you will begin the main task.</p>","0","","","","","","","","","","","","","",""
"","","","","","html-button-response","33","162481","0.0-13.0","cncqukmedd","3","2630","<p>In this block of trials, you will be asked to rate how much you associate each map with:</p > <p style = 'font-size:150%; font-weight: bold'>negative</p><br></br>","0","","","","","","","","","","","","","",""
"","","","","","html-slider-response","34","165143","0.0-14.0","cncqukmedd","3","NaN","<div style=""width:500px;"">
                            <p style=""font-size:50px; font-weight:bold;""
                            >negative</p>
                            <div style=""width:240px; margin: auto;"">
                                <img src=""images/Y_D_S_5_lightshift.png"" style= ""width:200px""alt=""img"">
                            </div>
                        </div>","114","","0","images/Y_D_S_5_lightshift.png","","","","negative","2","Y","D","S","lightshift","",""
"","","","","","html-slider-response","35","168909","0.0-15.0","cncqukmedd","3","NaN","<div style=""width:500px;"">
                            <p style=""font-size:50px; font-weight:bold;""
                            >negative</p>
                            <div style=""width:240px; margin: auto;"">
                                <img src=""images/G_L_S_23_lightshift.png"" style= ""width:200px""alt=""img"">
                            </div>
                        </div>","-131","","0","images/G_L_S_23_lightshift.png","","","","negative","1","G","L","S","lightshift","",""
"","","","","","html-slider-response","36","170339","0.0-16.0","cncqukmedd","3","NaN","<div style=""width:500px;"">
                            <p style=""font-size:50px; font-weight:bold;""
                            >negative</p>
                            <div style=""width:240px; margin: auto;"">
                                <img src=""images/R_L_S_10_lightshift.png"" style= ""width:200px""alt=""img"">
                            </div>
                        </div>","-132","","0","images/R_L_S_10_lightshift.png","","","","negative","1","R","L","S","lightshift","",""
"","","","","","html-slider-response","37","172088","0.0-17.0","cncqukmedd","3","NaN","<div style=""width:500px;"">
                            <p style=""font-size:50px; font-weight:bold;""
                            >negative</p>
                            <div style=""width:240px; margin: auto;"">
                                <img src=""images/B_L_U_33_darkshift.png"" style= ""width:200px""alt=""img"">
                            </div>
                        </div>","-134","","0","images/B_L_U_33_darkshift.png","","","","negative","2","B","L","U","darkshift","",""
"","","","","","html-slider-response","38","174423","0.0-18.0","cncqukmedd","3","NaN","<div style=""width:500px;"">
                            <p style=""font-size:50px; font-weight:bold;""
                            >negative</p>
                            <div style=""width:240px; margin: auto;"">
                                <img src=""images/G_L_S_23_darkshift.png"" style= ""width:200px""alt=""img"">
                            </div>
                        </div>","-144","","0","images/G_L_S_23_darkshift.png","","","","negative","1","G","L","S","darkshift","",""
"","","","","","html-slider-response","39","176657","0.0-19.0","cncqukmedd","3","NaN","<div style=""width:500px;"">
                            <p style=""font-size:50px; font-weight:bold;""
                            >negative</p>
                            <div style=""width:240px; margin: auto;"">
                                <img src=""images/B_L_S_30_darkshift.png"" style= ""width:200px""alt=""img"">
                            </div>
                        </div>","67","","0","images/B_L_S_30_darkshift.png","","","","negative","2","B","L","S","darkshift","",""
"","","","","","html-slider-response","40","180173","0.0-20.0","cncqukmedd","3","NaN","<div style=""width:500px;"">
                            <p style=""font-size:50px; font-weight:bold;""
                            >negative</p>
                            <div style=""width:240px; margin: auto;"">
                                <img src=""images/G_L_U_26_lightshift.png"" style= ""width:200px""alt=""img"">
                            </div>
                        </div>","-64","","0","images/G_L_U_26_lightshift.png","","","","negative","1","G","L","U","lightshift","",""
"","","","","","html-slider-response","41","187624","0.0-21.0","cncqukmedd","3","NaN","<div style=""width:500px;"">
                            <p style=""font-size:50px; font-weight:bold;""
                            >negative</p>
                            <div style=""width:240px; margin: auto;"">
                                <img src=""images/R_D_U_15_darkshift.png"" style= ""width:200px""alt=""img"">
                            </div>
                        </div>","-136","","0","images/R_D_U_15_darkshift.png","","","","negative","1","R","D","U","darkshift","",""
"","","","","","html-slider-response","42","189307","0.0-22.0","cncqukmedd","3","NaN","<div style=""width:500px;"">
                            <p style=""font-size:50px; font-weight:bold;""
                            >negative</p>
                            <div style=""width:240px; margin: auto;"">
                                <img src=""images/G_D_S_27_darkshift.png"" style= ""width:200px""alt=""img"">
                            </div>
                        </div>","-88","","0","images/G_D_S_27_darkshift.png","","","","negative","2","G","D","S","darkshift","",""
"","","","","","html-slider-response","43","192257","0.0-23.0","cncqukmedd","3","NaN","<div style=""width:500px;"">
                            <p style=""font-size:50px; font-weight:bold;""
                            >negative</p>
                            <div style=""width:240px; margin: auto;"">
                                <img src=""images/R_L_U_12_lightshift.png"" style= ""width:200px""alt=""img"">
                            </div>
                        </div>","184","","0","images/R_L_U_12_lightshift.png","","","","negative","2","R","L","U","lightshift","",""
"","","","","","html-slider-response","44","193690","0.0-24.0","cncqukmedd","3","NaN","<div style=""width:500px;"">
                            <p style=""font-size:50px; font-weight:bold;""
                            >negative</p>
                            <div style=""width:240px; margin: auto;"">
                                <img src=""images/Y_D_U_7_darkshift.png"" style= ""width:200px""alt=""img"">
                            </div>
                        </div>","190","","0","images/Y_D_U_7_darkshift.png","","","","negative","2","Y","D","U","darkshift","",""
"","","","","","html-slider-response","45","196491","0.0-25.0","cncqukmedd","3","NaN","<div style=""width:500px;"">
                            <p style=""font-size:50px; font-weight:bold;""
                            >negative</p>
                            <div style=""width:240px; margin: auto;"">
                                <img src=""images/R_D_S_13_darkshift.png"" style= ""width:200px""alt=""img"">
                            </div>
                        </div>","-89","","0","images/R_D_S_13_darkshift.png","","","","negative","2","R","D","S","darkshift","",""
"","","","","","html-slider-response","46","198440","0.0-26.0","cncqukmedd","3","NaN","<div style=""width:500px;"">
                            <p style=""font-size:50px; font-weight:bold;""
                            >negative</p>
                            <div style=""width:240px; margin: auto;"">
                                <img src=""images/G_D_U_28_darkshift.png"" style= ""width:200px""alt=""img"">
                            </div>
                        </div>","-113","","0","images/G_D_U_28_darkshift.png","","","","negative","1","G","D","U","darkshift","",""
"","","","","","html-slider-response","47","200640","0.0-27.0","cncqukmedd","3","NaN","<div style=""width:500px;"">
                            <p style=""font-size:50px; font-weight:bold;""
                            >negative</p>
                            <div style=""width:240px; margin: auto;"">
                                <img src=""images/G_D_S_27_darkshift.png"" style= ""width:200px""alt=""img"">
                            </div>
                        </div>","-46","","0","images/G_D_S_27_darkshift.png","","","","negative","1","G","D","S","darkshift","",""
"","","","","","html-slider-response","48","202257","0.0-28.0","cncqukmedd","3","NaN","<div style=""width:500px;"">
                            <p style=""font-size:50px; font-weight:bold;""
                            >negative</p>
                            <div style=""width:240px; margin: auto;"">
                                <img src=""images/B_D_U_41_darkshift.png"" style= ""width:200px""alt=""img"">
                            </div>
                        </div>","-76","","0","images/B_D_U_41_darkshift.png","","","","negative","2","B","D","U","darkshift","",""
"","","","","","html-slider-response","49","203890","0.0-29.0","cncqukmedd","3","NaN","<div style=""width:500px;"">
                            <p style=""font-size:50px; font-weight:bold;""
                            >negative</p>
                            <div style=""width:240px; margin: auto;"">
                                <img src=""images/Y_D_S_5_lightshift.png"" style= ""width:200px""alt=""img"">
                            </div>
                        </div>","178","","0","images/Y_D_S_5_lightshift.png","","","","negative","1","Y","D","S","lightshift","",""
"","","","","","html-slider-response","50","206673","0.0-30.0","cncqukmedd","3","NaN","<div style=""width:500px;"">
                            <p style=""font-size:50px; font-weight:bold;""
                            >negative</p>
                            <div style=""width:240px; margin: auto;"">
                                <img src=""images/R_D_S_13_darkshift.png"" style= ""width:200px""alt=""img"">
                            </div>
                        </div>","118","","0","images/R_D_S_13_darkshift.png","","","","negative","1","R","D","S","darkshift","",""
"","","","","","html-slider-response","51","208240","0.0-31.0","cncqukmedd","3","NaN","<div style=""width:500px;"">
                            <p style=""font-size:50px; font-weight:bold;""
                            >negative</p>
                            <div style=""width:240px; margin: auto;"">
                                <img src=""images/G_D_U_28_lightshift.png"" style= ""width:200px""alt=""img"">
                            </div>
                        </div>","52","","0","images/G_D_U_28_lightshift.png","","","","negative","1","G","D","U","lightshift","",""
"","","","","","html-slider-response","52","213057","0.0-32.0","cncqukmedd","3","NaN","<div style=""width:500px;"">
                            <p style=""font-size:50px; font-weight:bold;""
                            >negative</p>
                            <div style=""width:240px; margin: auto;"">
                                <img src=""images/Y_D_S_5_darkshift.png"" style= ""width:200px""alt=""img"">
                            </div>
                        </div>","52","","0","images/Y_D_S_5_darkshift.png","","","","negative","1","Y","D","S","darkshift","",""
"","","","","","html-slider-response","53","215190","0.0-33.0","cncqukmedd","3","NaN","<div style=""width:500px;"">
                            <p style=""font-size:50px; font-weight:bold;""
                            >negative</p>
                            <div style=""width:240px; margin: auto;"">
                                <img src=""images/B_D_S_37_lightshift.png"" style= ""width:200px""alt=""img"">
                            </div>
                        </div>","130","","0","images/B_D_S_37_lightshift.png","","","","negative","1","B","D","S","lightshift","",""
"","","","","","html-slider-response","54","216457","0.0-34.0","cncqukmedd","3","NaN","<div style=""width:500px;"">
                            <p style=""font-size:50px; font-weight:bold;""
                            >negative</p>
                            <div style=""width:240px; margin: auto;"">
                                <img src=""images/Y_D_U_7_lightshift.png"" style= ""width:200px""alt=""img"">
                            </div>
                        </div>","129","","0","images/Y_D_U_7_lightshift.png","","","","negative","1","Y","D","U","lightshift","",""
"","","","","","html-slider-response","55","218691","0.0-35.0","cncqukmedd","3","NaN","<div style=""width:500px;"">
                            <p style=""font-size:50px; font-weight:bold;""
                            >negative</p>
                            <div style=""width:240px; margin: auto;"">
                                <img src=""images/R_D_S_13_lightshift.png"" style= ""width:200px""alt=""img"">
                            </div>
                        </div>","-72","","0","images/R_D_S_13_lightshift.png","","","","negative","2","R","D","S","lightshift","",""
"","","","","","html-slider-response","56","220258","0.0-36.0","cncqukmedd","3","NaN","<div style=""width:500px;"">
                            <p style=""font-size:50px; font-weight:bold;""
                            >negative</p>
                            <div style=""width:240px; margin: auto;"">
                                <img src=""images/B_D_U_41_lightshift.png"" style= ""width:200px""alt=""img"">
                            </div>
                        </div>","-101","","0","images/B_D_U_41_lightshift.png","","","","negative","1","B","D","U","lightshift","",""
"","","","","","html-slider-response","57","222742","0.0-37.0","cncqukmedd","3","NaN","<div style=""width:500px;"">
                            <p style=""font-size:50px; font-weight:bold;""
                            >negative</p>
                            <div style=""width:240px; margin: auto;"">
                                <img src=""images/R_D_U_15_darkshift.png"" style= ""width:200px""alt=""img"">
                            </div>
                        </div>","63","","0","images/R_D_U_15_darkshift.png","","","","negative","2","R","D","U","darkshift","",""
"","","","","","html-slider-response","58","224442","0.0-38.0","cncqukmedd","3","NaN","<div style=""width:500px;"">
                            <p style=""font-size:50px; font-weight:bold;""
                            >negative</p>
                            <div style=""width:240px; margin: auto;"">
                                <img src=""images/G_L_U_26_darkshift.png"" style= ""width:200px""alt=""img"">
                            </div>
                        </div>","-88","","0","images/G_L_U_26_darkshift.png","","","","negative","1","G","L","U","darkshift","",""
"","","","","","html-slider-response","59","225891","0.0-39.0","cncqukmedd","3","NaN","<div style=""width:500px;"">
                            <p style=""font-size:50px; font-weight:bold;""
                            >negative</p>
                            <div style=""width:240px; margin: auto;"">
                                <img src=""images/B_L_U_33_darkshift.png"" style= ""width:200px""alt=""img"">
                            </div>
                        </div>","-78","","0","images/B_L_U_33_darkshift.png","","","","negative","1","B","L","U","darkshift","",""
"","","","","","html-slider-response","60","228458","0.0-40.0","cncqukmedd","3","NaN","<div style=""width:500px;"">
                            <p style=""font-size:50px; font-weight:bold;""
                            >negative</p>
                            <div style=""width:240px; margin: auto;"">
                                <img src=""images/B_D_S_37_darkshift.png"" style= ""width:200px""alt=""img"">
                            </div>
                        </div>","104","","0","images/B_D_S_37_darkshift.png","","","","negative","1","B","D","S","darkshift","",""
"","","","","","html-slider-response","61","230475","0.0-41.0","cncqukmedd","3","NaN","<div style=""width:500px;"">
                            <p style=""font-size:50px; font-weight:bold;""
                            >negative</p>
                            <div style=""width:240px; margin: auto;"">
                                <img src=""images/G_L_U_26_lightshift.png"" style= ""width:200px""alt=""img"">
                            </div>
                        </div>","-58","","0","images/G_L_U_26_lightshift.png","","","","negative","2","G","L","U","lightshift","",""
"","","","","","html-slider-response","62","232707","0.0-42.0","cncqukmedd","3","NaN","<div style=""width:500px;"">
                            <p style=""font-size:50px; font-weight:bold;""
                            >negative</p>
                            <div style=""width:240px; margin: auto;"">
                                <img src=""images/G_D_U_28_darkshift.png"" style= ""width:200px""alt=""img"">
                            </div>
                        </div>","-130","","0","images/G_D_U_28_darkshift.png","","","","negative","2","G","D","U","darkshift","",""
"","","","","","html-slider-response","63","234507","0.0-43.0","cncqukmedd","3","NaN","<div style=""width:500px;"">
                            <p style=""font-size:50px; font-weight:bold;""
                            >negative</p>
                            <div style=""width:240px; margin: auto;"">
                                <img src=""images/R_L_S_10_darkshift.png"" style= ""width:200px""alt=""img"">
                            </div>
                        </div>","-42","","0","images/R_L_S_10_darkshift.png","","","","negative","1","R","L","S","darkshift","",""
"","","","","","html-slider-response","64","236424","0.0-44.0","cncqukmedd","3","NaN","<div style=""width:500px;"">
                            <p style=""font-size:50px; font-weight:bold;""
                            >negative</p>
                            <div style=""width:240px; margin: auto;"">
                                <img src=""images/B_L_U_33_lightshift.png"" style= ""width:200px""alt=""img"">
                            </div>
                        </div>","-43","","0","images/B_L_U_33_lightshift.png","","","","negative","1","B","L","U","lightshift","",""
"","","","","","html-slider-response","65","242024","0.0-45.0","cncqukmedd","3","NaN","<div style=""width:500px;"">
                            <p style=""font-size:50px; font-weight:bold;""
                            >negative</p>
                            <div style=""width:240px; margin: auto;"">
                                <img src=""images/B_D_S_37_lightshift.png"" style= ""width:200px""alt=""img"">
                            </div>
                        </div>","-17","","0","images/B_D_S_37_lightshift.png","","","","negative","2","B","D","S","lightshift","",""
"","","","","","html-slider-response","66","243975","0.0-46.0","cncqukmedd","3","NaN","<div style=""width:500px;"">
                            <p style=""font-size:50px; font-weight:bold;""
                            >negative</p>
                            <div style=""width:240px; margin: auto;"">
                                <img src=""images/B_D_S_37_darkshift.png"" style= ""width:200px""alt=""img"">
                            </div>
                        </div>","64","","0","images/B_D_S_37_darkshift.png","","","","negative","2","B","D","S","darkshift","",""
"","","","","","html-slider-response","67","245624","0.0-47.0","cncqukmedd","3","NaN","<div style=""width:500px;"">
                            <p style=""font-size:50px; font-weight:bold;""
                            >negative</p>
                            <div style=""width:240px; margin: auto;"">
                                <img src=""images/B_L_S_30_lightshift.png"" style= ""width:200px""alt=""img"">
                            </div>
                        </div>","64","","0","images/B_L_S_30_lightshift.png","","","","negative","1","B","L","S","lightshift","",""
"","","","","","html-slider-response","68","247274","0.0-48.0","cncqukmedd","3","NaN","<div style=""width:500px;"">
                            <p style=""font-size:50px; font-weight:bold;""
                            >negative</p>
                            <div style=""width:240px; margin: auto;"">
                                <img src=""images/G_D_S_27_lightshift.png"" style= ""width:200px""alt=""img"">
                            </div>
                        </div>","40","","0","images/G_D_S_27_lightshift.png","","","","negative","2","G","D","S","lightshift","",""
"","","","","","html-slider-response","69","250091","0.0-49.0","cncqukmedd","3","NaN","<div style=""width:500px;"">
                            <p style=""font-size:50px; font-weight:bold;""
                            >negative</p>
                            <div style=""width:240px; margin: auto;"">
                                <img src=""images/G_L_S_23_lightshift.png"" style= ""width:200px""alt=""img"">
                            </div>
                        </div>","-32","","0","images/G_L_S_23_lightshift.png","","","","negative","2","G","L","S","lightshift","",""
"","","","","","html-slider-response","70","252441","0.0-50.0","cncqukmedd","3","NaN","<div style=""width:500px;"">
                            <p style=""font-size:50px; font-weight:bold;""
                            >negative</p>
                            <div style=""width:240px; margin: auto;"">
                                <img src=""images/Y_L_S_44_lightshift.png"" style= ""width:200px""alt=""img"">
                            </div>
                        </div>","-108","","0","images/Y_L_S_44_lightshift.png","","","","negative","1","Y","L","S","lightshift","",""
"","","","","","html-slider-response","71","254875","0.0-51.0","cncqukmedd","3","NaN","<div style=""width:500px;"">
                            <p style=""font-size:50px; font-weight:bold;""
                            >negative</p>
                            <div style=""width:240px; margin: auto;"">
                                <img src=""images/Y_L_S_44_darkshift.png"" style= ""width:200px""alt=""img"">
                            </div>
                        </div>","-164","","0","images/Y_L_S_44_darkshift.png","","","","negative","2","Y","L","S","darkshift","",""
"","","","","","html-slider-response","72","256892","0.0-52.0","cncqukmedd","3","NaN","<div style=""width:500px;"">
                            <p style=""font-size:50px; font-weight:bold;""
                            >negative</p>
                            <div style=""width:240px; margin: auto;"">
                                <img src=""images/Y_D_U_7_lightshift.png"" style= ""width:200px""alt=""img"">
                            </div>
                        </div>","-30","","0","images/Y_D_U_7_lightshift.png","","","","negative","2","Y","D","U","lightshift","",""
"","","","","","html-slider-response","73","258642","0.0-53.0","cncqukmedd","3","NaN","<div style=""width:500px;"">
                            <p style=""font-size:50px; font-weight:bold;""
                            >negative</p>
                            <div style=""width:240px; margin: auto;"">
                                <img src=""images/B_L_S_30_lightshift.png"" style= ""width:200px""alt=""img"">
                            </div>
                        </div>","-38","","0","images/B_L_S_30_lightshift.png","","","","negative","2","B","L","S","lightshift","",""
"","","","","","html-slider-response","74","261908","0.0-54.0","cncqukmedd","3","NaN","<div style=""width:500px;"">
                            <p style=""font-size:50px; font-weight:bold;""
                            >negative</p>
                            <div style=""width:240px; margin: auto;"">
                                <img src=""images/B_L_S_30_darkshift.png"" style= ""width:200px""alt=""img"">
                            </div>
                        </div>","53","","0","images/B_L_S_30_darkshift.png","","","","negative","1","B","L","S","darkshift","",""
"","","","","","html-slider-response","75","266376","0.0-55.0","cncqukmedd","3","NaN","<div style=""width:500px;"">
                            <p style=""font-size:50px; font-weight:bold;""
                            >negative</p>
                            <div style=""width:240px; margin: auto;"">
                                <img src=""images/G_D_U_28_lightshift.png"" style= ""width:200px""alt=""img"">
                            </div>
                        </div>","77","","0","images/G_D_U_28_lightshift.png","","","","negative","2","G","D","U","lightshift","",""
"","","","","","html-slider-response","76","268626","0.0-56.0","cncqukmedd","3","NaN","<div style=""width:500px;"">
                            <p style=""font-size:50px; font-weight:bold;""
                            >negative</p>
                            <div style=""width:240px; margin: auto;"">
                                <img src=""images/R_L_U_12_darkshift.png"" style= ""width:200px""alt=""img"">
                            </div>
                        </div>","138","","0","images/R_L_U_12_darkshift.png","","","","negative","1","R","L","U","darkshift","",""
"","","","","","html-slider-response","77","270542","0.0-57.0","cncqukmedd","3","NaN","<div style=""width:500px;"">
                            <p style=""font-size:50px; font-weight:bold;""
                            >negative</p>
                            <div style=""width:240px; margin: auto;"">
                                <img src=""images/Y_L_U_2_lightshift.png"" style= ""width:200px""alt=""img"">
                            </div>
                        </div>","138","","0","images/Y_L_U_2_lightshift.png","","","","negative","2","Y","L","U","lightshift","",""
"","","","","","html-slider-response","78","271974","0.0-58.0","cncqukmedd","3","NaN","<div style=""width:500px;"">
                            <p style=""font-size:50px; font-weight:bold;""
                            >negative</p>
                            <div style=""width:240px; margin: auto;"">
                                <img src=""images/Y_D_U_7_darkshift.png"" style= ""width:200px""alt=""img"">
                            </div>
                        </div>","138","","0","images/Y_D_U_7_darkshift.png","","","","negative","1","Y","D","U","darkshift","",""
"","","","","","html-slider-response","79","273892","0.0-59.0","cncqukmedd","3","NaN","<div style=""width:500px;"">
                            <p style=""font-size:50px; font-weight:bold;""
                            >negative</p>
                            <div style=""width:240px; margin: auto;"">
                                <img src=""images/R_D_U_15_lightshift.png"" style= ""width:200px""alt=""img"">
                            </div>
                        </div>","141","","0","images/R_D_U_15_lightshift.png","","","","negative","2","R","D","U","lightshift","",""
"","","","","","html-slider-response","80","275308","0.0-60.0","cncqukmedd","3","NaN","<div style=""width:500px;"">
                            <p style=""font-size:50px; font-weight:bold;""
                            >negative</p>
                            <div style=""width:240px; margin: auto;"">
                                <img src=""images/R_L_U_12_lightshift.png"" style= ""width:200px""alt=""img"">
                            </div>
                        </div>","141","","0","images/R_L_U_12_lightshift.png","","","","negative","1","R","L","U","lightshift","",""
"","","","","","html-slider-response","81","277408","0.0-61.0","cncqukmedd","3","NaN","<div style=""width:500px;"">
                            <p style=""font-size:50px; font-weight:bold;""
                            >negative</p>
                            <div style=""width:240px; margin: auto;"">
                                <img src=""images/G_L_S_23_darkshift.png"" style= ""width:200px""alt=""img"">
                            </div>
                        </div>","-108","","0","images/G_L_S_23_darkshift.png","","","","negative","2","G","L","S","darkshift","",""
"","","","","","html-slider-response","82","279242","0.0-62.0","cncqukmedd","3","NaN","<div style=""width:500px;"">
                            <p style=""font-size:50px; font-weight:bold;""
                            >negative</p>
                            <div style=""width:240px; margin: auto;"">
                                <img src=""images/R_D_U_15_lightshift.png"" style= ""width:200px""alt=""img"">
                            </div>
                        </div>","85","","0","images/R_D_U_15_lightshift.png","","","","negative","1","R","D","U","lightshift","",""
"","","","","","html-slider-response","83","281042","0.0-63.0","cncqukmedd","3","NaN","<div style=""width:500px;"">
                            <p style=""font-size:50px; font-weight:bold;""
                            >negative</p>
                            <div style=""width:240px; margin: auto;"">
                                <img src=""images/Y_L_S_44_darkshift.png"" style= ""width:200px""alt=""img"">
                            </div>
                        </div>","-44","","0","images/Y_L_S_44_darkshift.png","","","","negative","1","Y","L","S","darkshift","",""
"","","","","","html-slider-response","84","282692","0.0-64.0","cncqukmedd","3","NaN","<div style=""width:500px;"">
                            <p style=""font-size:50px; font-weight:bold;""
                            >negative</p>
                            <div style=""width:240px; margin: auto;"">
                                <img src=""images/Y_D_S_5_darkshift.png"" style= ""width:200px""alt=""img"">
                            </div>
                        </div>","91","","0","images/Y_D_S_5_darkshift.png","","","","negative","2","Y","D","S","darkshift","",""
"","","","","","html-slider-response","85","284492","0.0-65.0","cncqukmedd","3","NaN","<div style=""width:500px;"">
                            <p style=""font-size:50px; font-weight:bold;""
                            >negative</p>
                            <div style=""width:240px; margin: auto;"">
                                <img src=""images/R_L_U_12_darkshift.png"" style= ""width:200px""alt=""img"">
                            </div>
                        </div>","-52","","0","images/R_L_U_12_darkshift.png","","","","negative","2","R","L","U","darkshift","",""
"","","","","","html-slider-response","86","286061","0.0-66.0","cncqukmedd","3","NaN","<div style=""width:500px;"">
                            <p style=""font-size:50px; font-weight:bold;""
                            >negative</p>
                            <div style=""width:240px; margin: auto;"">
                                <img src=""images/Y_L_U_2_darkshift.png"" style= ""width:200px""alt=""img"">
                            </div>
                        </div>","75","","0","images/Y_L_U_2_darkshift.png","","","","negative","1","Y","L","U","darkshift","",""
"","","","","","html-slider-response","87","287758","0.0-67.0","cncqukmedd","3","NaN","<div style=""width:500px;"">
                            <p style=""font-size:50px; font-weight:bold;""
                            >negative</p>
                            <div style=""width:240px; margin: auto;"">
                                <img src=""images/B_D_U_41_darkshift.png"" style= ""width:200px""alt=""img"">
                            </div>
                        </div>","-93","","0","images/B_D_U_41_darkshift.png","","","","negative","1","B","D","U","darkshift","",""
"","","","","","html-slider-response","88","289260","0.0-68.0","cncqukmedd","3","NaN","<div style=""width:500px;"">
                            <p style=""font-size:50px; font-weight:bold;""
                            >negative</p>
                            <div style=""width:240px; margin: auto;"">
                                <img src=""images/G_D_S_27_lightshift.png"" style= ""width:200px""alt=""img"">
                            </div>
                        </div>","-45","","0","images/G_D_S_27_lightshift.png","","","","negative","1","G","D","S","lightshift","",""
"","","","","","html-slider-response","89","291008","0.0-69.0","cncqukmedd","3","NaN","<div style=""width:500px;"">
                            <p style=""font-size:50px; font-weight:bold;""
                            >negative</p>
                            <div style=""width:240px; margin: auto;"">
                                <img src=""images/Y_L_U_2_lightshift.png"" style= ""width:200px""alt=""img"">
                            </div>
                        </div>","115","","0","images/Y_L_U_2_lightshift.png","","","","negative","1","Y","L","U","lightshift","",""
"","","","","","html-slider-response","90","292559","0.0-70.0","cncqukmedd","3","NaN","<div style=""width:500px;"">
                            <p style=""font-size:50px; font-weight:bold;""
                            >negative</p>
                            <div style=""width:240px; margin: auto;"">
                                <img src=""images/G_L_U_26_darkshift.png"" style= ""width:200px""alt=""img"">
                            </div>
                        </div>","-76","","0","images/G_L_U_26_darkshift.png","","","","negative","2","G","L","U","darkshift","",""
"","","","","","html-slider-response","91","294259","0.0-71.0","cncqukmedd","3","NaN","<div style=""width:500px;"">
                            <p style=""font-size:50px; font-weight:bold;""
                            >negative</p>
                            <div style=""width:240px; margin: auto;"">
                                <img src=""images/B_L_U_33_lightshift.png"" style= ""width:200px""alt=""img"">
                            </div>
                        </div>","84","","0","images/B_L_U_33_lightshift.png","","","","negative","2","B","L","U","lightshift","",""
"","","","","","html-slider-response","92","295942","0.0-72.0","cncqukmedd","3","NaN","<div style=""width:500px;"">
                            <p style=""font-size:50px; font-weight:bold;""
                            >negative</p>
                            <div style=""width:240px; margin: auto;"">
                                <img src=""images/R_L_S_10_lightshift.png"" style= ""width:200px""alt=""img"">
                            </div>
                        </div>","-65","","0","images/R_L_S_10_lightshift.png","","","","negative","2","R","L","S","lightshift","",""
"","","","","","html-slider-response","93","297958","0.0-73.0","cncqukmedd","3","NaN","<div style=""width:500px;"">
                            <p style=""font-size:50px; font-weight:bold;""
                            >negative</p>
                            <div style=""width:240px; margin: auto;"">
                                <img src=""images/Y_L_S_44_lightshift.png"" style= ""width:200px""alt=""img"">
                            </div>
                        </div>","-148","","0","images/Y_L_S_44_lightshift.png","","","","negative","2","Y","L","S","lightshift","",""
"","","","","","html-slider-response","94","300575","0.0-74.0","cncqukmedd","3","NaN","<div style=""width:500px;"">
                            <p style=""font-size:50px; font-weight:bold;""
                            >negative</p>
                            <div style=""width:240px; margin: auto;"">
                                <img src=""images/R_L_S_10_darkshift.png"" style= ""width:200px""alt=""img"">
                            </div>
                        </div>","88","","0","images/R_L_S_10_darkshift.png","","","","negative","2","R","L","S","darkshift","",""
"","","","","","html-slider-response","95","302309","0.0-75.0","cncqukmedd","3","NaN","<div style=""width:500px;"">
                            <p style=""font-size:50px; font-weight:bold;""
                            >negative</p>
                            <div style=""width:240px; margin: auto;"">
                                <img src=""images/Y_L_U_2_darkshift.png"" style= ""width:200px""alt=""img"">
                            </div>
                        </div>","-23","","0","images/Y_L_U_2_darkshift.png","","","","negative","2","Y","L","U","darkshift","",""
"","","","","","html-slider-response","96","306025","0.0-76.0","cncqukmedd","3","NaN","<div style=""width:500px;"">
                            <p style=""font-size:50px; font-weight:bold;""
                            >negative</p>
                            <div style=""width:240px; margin: auto;"">
                                <img src=""images/B_D_U_41_lightshift.png"" style= ""width:200px""alt=""img"">
                            </div>
                        </div>","30","","0","images/B_D_U_41_lightshift.png","","","","negative","2","B","D","U","lightshift","",""
"","","","","","html-slider-response","97","307909","0.0-77.0","cncqukmedd","3","NaN","<div style=""width:500px;"">
                            <p style=""font-size:50px; font-weight:bold;""
                            >negative</p>
                            <div style=""width:240px; margin: auto;"">
                                <img src=""images/R_D_S_13_lightshift.png"" style= ""width:200px""alt=""img"">
                            </div>
                        </div>","-20","","0","images/R_D_S_13_lightshift.png","","","","negative","1","R","D","S","lightshift","",""
"","","","","","html-button-response","98","310032","0.0-78.0","cncqukmedd","3","1620","<p>Great Job! You've finished block 1.<br></br> You have 3 block(s) left to go.<br></br></p>","0","","","","","","","","","","","","","",""
"","","","","","html-button-response","99","311048","0.0-79.0","cncqukmedd","3","1015","<p>In this block of trials, you will be asked to rate how much you associate each map with:</p > <p style = 'font-size:150%; font-weight: bold'>positive</p><br></br>","0","","","","","","","","","","","","","",""
"","","","","","html-slider-response","100","315976","0.0-80.0","cncqukmedd","3","NaN","<div style=""width:500px;"">
                            <p style=""font-size:50px; font-weight:bold;""
                            >positive</p>
                            <div style=""width:240px; margin: auto;"">
                                <img src=""images/B_D_S_37_darkshift.png"" style= ""width:200px""alt=""img"">
                            </div>
                        </div>","55","","0","images/B_D_S_37_darkshift.png","","","","positive","2","B","D","S","darkshift","",""
"","","","","","html-slider-response","101","317509","0.0-81.0","cncqukmedd","3","NaN","<div style=""width:500px;"">
                            <p style=""font-size:50px; font-weight:bold;""
                            >positive</p>
                            <div style=""width:240px; margin: auto;"">
                                <img src=""images/G_L_U_26_lightshift.png"" style= ""width:200px""alt=""img"">
                            </div>
                        </div>","-78","","0","images/G_L_U_26_lightshift.png","","","","positive","2","G","L","U","lightshift","",""
"","","","","","html-slider-response","102","319092","0.0-82.0","cncqukmedd","3","NaN","<div style=""width:500px;"">
                            <p style=""font-size:50px; font-weight:bold;""
                            >positive</p>
                            <div style=""width:240px; margin: auto;"">
                                <img src=""images/G_D_S_27_darkshift.png"" style= ""width:200px""alt=""img"">
                            </div>
                        </div>","68","","0","images/G_D_S_27_darkshift.png","","","","positive","2","G","D","S","darkshift","",""
"","","","","","html-slider-response","103","321159","0.0-83.0","cncqukmedd","3","NaN","<div style=""width:500px;"">
                            <p style=""font-size:50px; font-weight:bold;""
                            >positive</p>
                            <div style=""width:240px; margin: auto;"">
                                <img src=""images/G_D_S_27_lightshift.png"" style= ""width:200px""alt=""img"">
                            </div>
                        </div>","-36","","0","images/G_D_S_27_lightshift.png","","","","positive","1","G","D","S","lightshift","",""
"","","","","","html-slider-response","104","322827","0.0-84.0","cncqukmedd","3","NaN","<div style=""width:500px;"">
                            <p style=""font-size:50px; font-weight:bold;""
                            >positive</p>
                            <div style=""width:240px; margin: auto;"">
                                <img src=""images/R_D_S_13_darkshift.png"" style= ""width:200px""alt=""img"">
                            </div>
                        </div>","88","","0","images/R_D_S_13_darkshift.png","","","","positive","1","R","D","S","darkshift","",""
"","","","","","html-slider-response","105","324276","0.0-85.0","cncqukmedd","3","NaN","<div style=""width:500px;"">
                            <p style=""font-size:50px; font-weight:bold;""
                            >positive</p>
                            <div style=""width:240px; margin: auto;"">
                                <img src=""images/G_L_U_26_lightshift.png"" style= ""width:200px""alt=""img"">
                            </div>
                        </div>","-20","","0","images/G_L_U_26_lightshift.png","","","","positive","1","G","L","U","lightshift","",""
"","","","","","html-slider-response","106","326260","0.0-86.0","cncqukmedd","3","NaN","<div style=""width:500px;"">
                            <p style=""font-size:50px; font-weight:bold;""
                            >positive</p>
                            <div style=""width:240px; margin: auto;"">
                                <img src=""images/Y_D_U_7_lightshift.png"" style= ""width:200px""alt=""img"">
                            </div>
                        </div>","-104","","0","images/Y_D_U_7_lightshift.png","","","","positive","2","Y","D","U","lightshift","",""
"","","","","","html-slider-response","107","328260","0.0-87.0","cncqukmedd","3","NaN","<div style=""width:500px;"">
                            <p style=""font-size:50px; font-weight:bold;""
                            >positive</p>
                            <div style=""width:240px; margin: auto;"">
                                <img src=""images/R_D_U_15_lightshift.png"" style= ""width:200px""alt=""img"">
                            </div>
                        </div>","-52","","0","images/R_D_U_15_lightshift.png","","","","positive","1","R","D","U","lightshift","",""
"","","","","","html-slider-response","108","330909","0.0-88.0","cncqukmedd","3","NaN","<div style=""width:500px;"">
                            <p style=""font-size:50px; font-weight:bold;""
                            >positive</p>
                            <div style=""width:240px; margin: auto;"">
                                <img src=""images/R_D_S_13_darkshift.png"" style= ""width:200px""alt=""img"">
                            </div>
                        </div>","146","","0","images/R_D_S_13_darkshift.png","","","","positive","2","R","D","S","darkshift","",""
"","","","","","html-slider-response","109","332292","0.0-89.0","cncqukmedd","3","NaN","<div style=""width:500px;"">
                            <p style=""font-size:50px; font-weight:bold;""
                            >positive</p>
                            <div style=""width:240px; margin: auto;"">
                                <img src=""images/Y_L_U_2_lightshift.png"" style= ""width:200px""alt=""img"">
                            </div>
                        </div>","-70","","0","images/Y_L_U_2_lightshift.png","","","","positive","2","Y","L","U","lightshift","",""
"","","","","","html-slider-response","110","333842","0.0-90.0","cncqukmedd","3","NaN","<div style=""width:500px;"">
                            <p style=""font-size:50px; font-weight:bold;""
                            >positive</p>
                            <div style=""width:240px; margin: auto;"">
                                <img src=""images/G_L_S_23_darkshift.png"" style= ""width:200px""alt=""img"">
                            </div>
                        </div>","94","","0","images/G_L_S_23_darkshift.png","","","","positive","2","G","L","S","darkshift","",""
"","","","","","html-slider-response","111","335743","0.0-91.0","cncqukmedd","3","NaN","<div style=""width:500px;"">
                            <p style=""font-size:50px; font-weight:bold;""
                            >positive</p>
                            <div style=""width:240px; margin: auto;"">
                                <img src=""images/R_D_S_13_lightshift.png"" style= ""width:200px""alt=""img"">
                            </div>
                        </div>","40","","0","images/R_D_S_13_lightshift.png","","","","positive","1","R","D","S","lightshift","",""
"","","","","","html-slider-response","112","337075","0.0-92.0","cncqukmedd","3","NaN","<div style=""width:500px;"">
                            <p style=""font-size:50px; font-weight:bold;""
                            >positive</p>
                            <div style=""width:240px; margin: auto;"">
                                <img src=""images/R_D_S_13_lightshift.png"" style= ""width:200px""alt=""img"">
                            </div>
                        </div>","40","","0","images/R_D_S_13_lightshift.png","","","","positive","2","R","D","S","lightshift","",""
"","","","","","html-slider-response","113","338526","0.0-93.0","cncqukmedd","3","NaN","<div style=""width:500px;"">
                            <p style=""font-size:50px; font-weight:bold;""
                            >positive</p>
                            <div style=""width:240px; margin: auto;"">
                                <img src=""images/B_L_U_33_darkshift.png"" style= ""width:200px""alt=""img"">
                            </div>
                        </div>","40","","0","images/B_L_U_33_darkshift.png","","","","positive","2","B","L","U","darkshift","",""
"","","","","","html-slider-response","114","340827","0.0-94.0","cncqukmedd","3","NaN","<div style=""width:500px;"">
                            <p style=""font-size:50px; font-weight:bold;""
                            >positive</p>
                            <div style=""width:240px; margin: auto;"">
                                <img src=""images/R_D_U_15_lightshift.png"" style= ""width:200px""alt=""img"">
                            </div>
                        </div>","-46","","0","images/R_D_U_15_lightshift.png","","","","positive","2","R","D","U","lightshift","",""
"","","","","","html-slider-response","115","342326","0.0-95.0","cncqukmedd","3","NaN","<div style=""width:500px;"">
                            <p style=""font-size:50px; font-weight:bold;""
                            >positive</p>
                            <div style=""width:240px; margin: auto;"">
                                <img src=""images/G_L_S_23_darkshift.png"" style= ""width:200px""alt=""img"">
                            </div>
                        </div>","83","","0","images/G_L_S_23_darkshift.png","","","","positive","1","G","L","S","darkshift","",""
"","","","","","html-slider-response","116","343876","0.0-96.0","cncqukmedd","3","NaN","<div style=""width:500px;"">
                            <p style=""font-size:50px; font-weight:bold;""
                            >positive</p>
                            <div style=""width:240px; margin: auto;"">
                                <img src=""images/Y_L_U_2_lightshift.png"" style= ""width:200px""alt=""img"">
                            </div>
                        </div>","-44","","0","images/Y_L_U_2_lightshift.png","","","","positive","1","Y","L","U","lightshift","",""
"","","","","","html-slider-response","117","345394","0.0-97.0","cncqukmedd","3","NaN","<div style=""width:500px;"">
                            <p style=""font-size:50px; font-weight:bold;""
                            >positive</p>
                            <div style=""width:240px; margin: auto;"">
                                <img src=""images/B_D_S_37_lightshift.png"" style= ""width:200px""alt=""img"">
                            </div>
                        </div>","100","","0","images/B_D_S_37_lightshift.png","","","","positive","1","B","D","S","lightshift","",""
"","","","","","html-slider-response","118","347126","0.0-98.0","cncqukmedd","3","NaN","<div style=""width:500px;"">
                            <p style=""font-size:50px; font-weight:bold;""
                            >positive</p>
                            <div style=""width:240px; margin: auto;"">
                                <img src=""images/G_L_S_23_lightshift.png"" style= ""width:200px""alt=""img"">
                            </div>
                        </div>","-23","","0","images/G_L_S_23_lightshift.png","","","","positive","1","G","L","S","lightshift","",""
"","","","","","html-slider-response","119","348943","0.0-99.0","cncqukmedd","3","NaN","<div style=""width:500px;"">
                            <p style=""font-size:50px; font-weight:bold;""
                            >positive</p>
                            <div style=""width:240px; margin: auto;"">
                                <img src=""images/R_L_U_12_lightshift.png"" style= ""width:200px""alt=""img"">
                            </div>
                        </div>","-29","","0","images/R_L_U_12_lightshift.png","","","","positive","2","R","L","U","lightshift","",""
"","","","","","html-slider-response","120","351193","0.0-100.0","cncqukmedd","3","NaN","<div style=""width:500px;"">
                            <p style=""font-size:50px; font-weight:bold;""
                            >positive</p>
                            <div style=""width:240px; margin: auto;"">
                                <img src=""images/Y_L_S_44_lightshift.png"" style= ""width:200px""alt=""img"">
                            </div>
                        </div>","37","","0","images/Y_L_S_44_lightshift.png","","","","positive","1","Y","L","S","lightshift","",""
"","","","","","html-slider-response","121","353126","0.0-101.0","cncqukmedd","3","NaN","<div style=""width:500px;"">
                            <p style=""font-size:50px; font-weight:bold;""
                            >positive</p>
                            <div style=""width:240px; margin: auto;"">
                                <img src=""images/B_D_U_41_darkshift.png"" style= ""width:200px""alt=""img"">
                            </div>
                        </div>","105","","0","images/B_D_U_41_darkshift.png","","","","positive","2","B","D","U","darkshift","",""
"","","","","","html-slider-response","122","354908","0.0-102.0","cncqukmedd","3","NaN","<div style=""width:500px;"">
                            <p style=""font-size:50px; font-weight:bold;""
                            >positive</p>
                            <div style=""width:240px; margin: auto;"">
                                <img src=""images/B_L_U_33_lightshift.png"" style= ""width:200px""alt=""img"">
                            </div>
                        </div>","-30","","0","images/B_L_U_33_lightshift.png","","","","positive","2","B","L","U","lightshift","",""
"","","","","","html-slider-response","123","356609","0.0-103.0","cncqukmedd","3","NaN","<div style=""width:500px;"">
                            <p style=""font-size:50px; font-weight:bold;""
                            >positive</p>
                            <div style=""width:240px; margin: auto;"">
                                <img src=""images/R_D_U_15_darkshift.png"" style= ""width:200px""alt=""img"">
                            </div>
                        </div>","90","","0","images/R_D_U_15_darkshift.png","","","","positive","2","R","D","U","darkshift","",""
"","","","","","html-slider-response","124","358260","0.0-104.0","cncqukmedd","3","NaN","<div style=""width:500px;"">
                            <p style=""font-size:50px; font-weight:bold;""
                            >positive</p>
                            <div style=""width:240px; margin: auto;"">
                                <img src=""images/G_D_U_28_lightshift.png"" style= ""width:200px""alt=""img"">
                            </div>
                        </div>","-32","","0","images/G_D_U_28_lightshift.png","","","","positive","1","G","D","U","lightshift","",""
"","","","","","html-slider-response","125","359577","0.0-105.0","cncqukmedd","3","NaN","<div style=""width:500px;"">
                            <p style=""font-size:50px; font-weight:bold;""
                            >positive</p>
                            <div style=""width:240px; margin: auto;"">
                                <img src=""images/Y_L_S_44_darkshift.png"" style= ""width:200px""alt=""img"">
                            </div>
                        </div>","-32","","0","images/Y_L_S_44_darkshift.png","","","","positive","1","Y","L","S","darkshift","",""
"","","","","","html-slider-response","126","360826","0.0-106.0","cncqukmedd","3","NaN","<div style=""width:500px;"">
                            <p style=""font-size:50px; font-weight:bold;""
                            >positive</p>
                            <div style=""width:240px; margin: auto;"">
                                <img src=""images/Y_L_S_44_darkshift.png"" style= ""width:200px""alt=""img"">
                            </div>
                        </div>","-32","","0","images/Y_L_S_44_darkshift.png","","","","positive","2","Y","L","S","darkshift","",""
"","","","","","html-slider-response","127","362110","0.0-107.0","cncqukmedd","3","NaN","<div style=""width:500px;"">
                            <p style=""font-size:50px; font-weight:bold;""
                            >positive</p>
                            <div style=""width:240px; margin: auto;"">
                                <img src=""images/Y_L_U_2_darkshift.png"" style= ""width:200px""alt=""img"">
                            </div>
                        </div>","-102","","0","images/Y_L_U_2_darkshift.png","","","","positive","2","Y","L","U","darkshift","",""
"","","","","","html-slider-response","128","363560","0.0-108.0","cncqukmedd","3","NaN","<div style=""width:500px;"">
                            <p style=""font-size:50px; font-weight:bold;""
                            >positive</p>
                            <div style=""width:240px; margin: auto;"">
                                <img src=""images/Y_D_S_5_darkshift.png"" style= ""width:200px""alt=""img"">
                            </div>
                        </div>","-120","","0","images/Y_D_S_5_darkshift.png","","","","positive","1","Y","D","S","darkshift","",""
"","","","","","html-slider-response","129","364826","0.0-109.0","cncqukmedd","3","NaN","<div style=""width:500px;"">
                            <p style=""font-size:50px; font-weight:bold;""
                            >positive</p>
                            <div style=""width:240px; margin: auto;"">
                                <img src=""images/G_L_S_23_lightshift.png"" style= ""width:200px""alt=""img"">
                            </div>
                        </div>","-88","","0","images/G_L_S_23_lightshift.png","","","","positive","2","G","L","S","lightshift","",""
"","","","","","html-slider-response","130","366144","0.0-110.0","cncqukmedd","3","NaN","<div style=""width:500px;"">
                            <p style=""font-size:50px; font-weight:bold;""
                            >positive</p>
                            <div style=""width:240px; margin: auto;"">
                                <img src=""images/Y_D_S_5_lightshift.png"" style= ""width:200px""alt=""img"">
                            </div>
                        </div>","-110","","0","images/Y_D_S_5_lightshift.png","","","","positive","2","Y","D","S","lightshift","",""
"","","","","","html-slider-response","131","369093","0.0-111.0","cncqukmedd","3","NaN","<div style=""width:500px;"">
                            <p style=""font-size:50px; font-weight:bold;""
                            >positive</p>
                            <div style=""width:240px; margin: auto;"">
                                <img src=""images/R_D_U_15_darkshift.png"" style= ""width:200px""alt=""img"">
                            </div>
                        </div>","44","","0","images/R_D_U_15_darkshift.png","","","","positive","1","R","D","U","darkshift","",""
"","","","","","html-slider-response","132","370661","0.0-112.0","cncqukmedd","3","NaN","<div style=""width:500px;"">
                            <p style=""font-size:50px; font-weight:bold;""
                            >positive</p>
                            <div style=""width:240px; margin: auto;"">
                                <img src=""images/R_L_U_12_darkshift.png"" style= ""width:200px""alt=""img"">
                            </div>
                        </div>","93","","0","images/R_L_U_12_darkshift.png","","","","positive","2","R","L","U","darkshift","",""
"","","","","","html-slider-response","133","372260","0.0-113.0","cncqukmedd","3","NaN","<div style=""width:500px;"">
                            <p style=""font-size:50px; font-weight:bold;""
                            >positive</p>
                            <div style=""width:240px; margin: auto;"">
                                <img src=""images/G_D_U_28_lightshift.png"" style= ""width:200px""alt=""img"">
                            </div>
                        </div>","20","","0","images/G_D_U_28_lightshift.png","","","","positive","2","G","D","U","lightshift","",""
"","","","","","html-slider-response","134","373627","0.0-114.0","cncqukmedd","3","NaN","<div style=""width:500px;"">
                            <p style=""font-size:50px; font-weight:bold;""
                            >positive</p>
                            <div style=""width:240px; margin: auto;"">
                                <img src=""images/Y_D_U_7_darkshift.png"" style= ""width:200px""alt=""img"">
                            </div>
                        </div>","-60","","0","images/Y_D_U_7_darkshift.png","","","","positive","2","Y","D","U","darkshift","",""
"","","","","","html-slider-response","135","375260","0.0-115.0","cncqukmedd","3","NaN","<div style=""width:500px;"">
                            <p style=""font-size:50px; font-weight:bold;""
                            >positive</p>
                            <div style=""width:240px; margin: auto;"">
                                <img src=""images/B_L_S_30_darkshift.png"" style= ""width:200px""alt=""img"">
                            </div>
                        </div>","53","","0","images/B_L_S_30_darkshift.png","","","","positive","2","B","L","S","darkshift","",""
"","","","","","html-slider-response","136","376776","0.0-116.0","cncqukmedd","3","NaN","<div style=""width:500px;"">
                            <p style=""font-size:50px; font-weight:bold;""
                            >positive</p>
                            <div style=""width:240px; margin: auto;"">
                                <img src=""images/G_L_U_26_darkshift.png"" style= ""width:200px""alt=""img"">
                            </div>
                        </div>","53","","0","images/G_L_U_26_darkshift.png","","","","positive","2","G","L","U","darkshift","",""
"","","","","","html-slider-response","137","378228","0.0-117.0","cncqukmedd","3","NaN","<div style=""width:500px;"">
                            <p style=""font-size:50px; font-weight:bold;""
                            >positive</p>
                            <div style=""width:240px; margin: auto;"">
                                <img src=""images/Y_D_S_5_lightshift.png"" style= ""width:200px""alt=""img"">
                            </div>
                        </div>","-95","","0","images/Y_D_S_5_lightshift.png","","","","positive","1","Y","D","S","lightshift","",""
"","","","","","html-slider-response","138","380093","0.0-118.0","cncqukmedd","3","NaN","<div style=""width:500px;"">
                            <p style=""font-size:50px; font-weight:bold;""
                            >positive</p>
                            <div style=""width:240px; margin: auto;"">
                                <img src=""images/G_D_S_27_darkshift.png"" style= ""width:200px""alt=""img"">
                            </div>
                        </div>","35","","0","images/G_D_S_27_darkshift.png","","","","positive","1","G","D","S","darkshift","",""
"","","","","","html-slider-response","139","381744","0.0-119.0","cncqukmedd","3","NaN","<div style=""width:500px;"">
                            <p style=""font-size:50px; font-weight:bold;""
                            >positive</p>
                            <div style=""width:240px; margin: auto;"">
                                <img src=""images/R_L_S_10_lightshift.png"" style= ""width:200px""alt=""img"">
                            </div>
                        </div>","48","","0","images/R_L_S_10_lightshift.png","","","","positive","1","R","L","S","lightshift","",""
"","","","","","html-slider-response","140","383243","0.0-120.0","cncqukmedd","3","NaN","<div style=""width:500px;"">
                            <p style=""font-size:50px; font-weight:bold;""
                            >positive</p>
                            <div style=""width:240px; margin: auto;"">
                                <img src=""images/B_D_S_37_darkshift.png"" style= ""width:200px""alt=""img"">
                            </div>
                        </div>","120","","0","images/B_D_S_37_darkshift.png","","","","positive","1","B","D","S","darkshift","",""
"","","","","","html-slider-response","141","384610","0.0-121.0","cncqukmedd","3","NaN","<div style=""width:500px;"">
                            <p style=""font-size:50px; font-weight:bold;""
                            >positive</p>
                            <div style=""width:240px; margin: auto;"">
                                <img src=""images/B_D_U_41_darkshift.png"" style= ""width:200px""alt=""img"">
                            </div>
                        </div>","120","","0","images/B_D_U_41_darkshift.png","","","","positive","1","B","D","U","darkshift","",""
"","","","","","html-slider-response","142","386043","0.0-122.0","cncqukmedd","3","NaN","<div style=""width:500px;"">
                            <p style=""font-size:50px; font-weight:bold;""
                            >positive</p>
                            <div style=""width:240px; margin: auto;"">
                                <img src=""images/G_D_S_27_lightshift.png"" style= ""width:200px""alt=""img"">
                            </div>
                        </div>","158","","0","images/G_D_S_27_lightshift.png","","","","positive","2","G","D","S","lightshift","",""
"","","","","","html-slider-response","143","387562","0.0-123.0","cncqukmedd","3","NaN","<div style=""width:500px;"">
                            <p style=""font-size:50px; font-weight:bold;""
                            >positive</p>
                            <div style=""width:240px; margin: auto;"">
                                <img src=""images/B_L_U_33_lightshift.png"" style= ""width:200px""alt=""img"">
                            </div>
                        </div>","-41","","0","images/B_L_U_33_lightshift.png","","","","positive","1","B","L","U","lightshift","",""
"","","","","","html-slider-response","144","389060","0.0-124.0","cncqukmedd","3","NaN","<div style=""width:500px;"">
                            <p style=""font-size:50px; font-weight:bold;""
                            >positive</p>
                            <div style=""width:240px; margin: auto;"">
                                <img src=""images/B_L_S_30_darkshift.png"" style= ""width:200px""alt=""img"">
                            </div>
                        </div>","100","","0","images/B_L_S_30_darkshift.png","","","","positive","1","B","L","S","darkshift","",""
"","","","","","html-slider-response","145","390727","0.0-125.0","cncqukmedd","3","NaN","<div style=""width:500px;"">
                            <p style=""font-size:50px; font-weight:bold;""
                            >positive</p>
                            <div style=""width:240px; margin: auto;"">
                                <img src=""images/Y_D_U_7_darkshift.png"" style= ""width:200px""alt=""img"">
                            </div>
                        </div>","-146","","0","images/Y_D_U_7_darkshift.png","","","","positive","1","Y","D","U","darkshift","",""
"","","","","","html-slider-response","146","392543","0.0-126.0","cncqukmedd","3","NaN","<div style=""width:500px;"">
                            <p style=""font-size:50px; font-weight:bold;""
                            >positive</p>
                            <div style=""width:240px; margin: auto;"">
                                <img src=""images/G_D_U_28_darkshift.png"" style= ""width:200px""alt=""img"">
                            </div>
                        </div>","68","","0","images/G_D_U_28_darkshift.png","","","","positive","1","G","D","U","darkshift","",""
"","","","","","html-slider-response","147","393810","0.0-127.0","cncqukmedd","3","NaN","<div style=""width:500px;"">
                            <p style=""font-size:50px; font-weight:bold;""
                            >positive</p>
                            <div style=""width:240px; margin: auto;"">
                                <img src=""images/G_D_U_28_darkshift.png"" style= ""width:200px""alt=""img"">
                            </div>
                        </div>","126","","0","images/G_D_U_28_darkshift.png","","","","positive","2","G","D","U","darkshift","",""
"","","","","","html-slider-response","148","395211","0.0-128.0","cncqukmedd","3","NaN","<div style=""width:500px;"">
                            <p style=""font-size:50px; font-weight:bold;""
                            >positive</p>
                            <div style=""width:240px; margin: auto;"">
                                <img src=""images/B_D_U_41_lightshift.png"" style= ""width:200px""alt=""img"">
                            </div>
                        </div>","-112","","0","images/B_D_U_41_lightshift.png","","","","positive","2","B","D","U","lightshift","",""
"","","","","","html-slider-response","149","396293","0.0-129.0","cncqukmedd","3","NaN","<div style=""width:500px;"">
                            <p style=""font-size:50px; font-weight:bold;""
                            >positive</p>
                            <div style=""width:240px; margin: auto;"">
                                <img src=""images/B_D_U_41_lightshift.png"" style= ""width:200px""alt=""img"">
                            </div>
                        </div>","-44","","0","images/B_D_U_41_lightshift.png","","","","positive","1","B","D","U","lightshift","",""
"","","","","","html-slider-response","150","397876","0.0-130.0","cncqukmedd","3","NaN","<div style=""width:500px;"">
                            <p style=""font-size:50px; font-weight:bold;""
                            >positive</p>
                            <div style=""width:240px; margin: auto;"">
                                <img src=""images/B_L_U_33_darkshift.png"" style= ""width:200px""alt=""img"">
                            </div>
                        </div>","-65","","0","images/B_L_U_33_darkshift.png","","","","positive","1","B","L","U","darkshift","",""
"","","","","","html-slider-response","151","399610","0.0-131.0","cncqukmedd","3","NaN","<div style=""width:500px;"">
                            <p style=""font-size:50px; font-weight:bold;""
                            >positive</p>
                            <div style=""width:240px; margin: auto;"">
                                <img src=""images/R_L_S_10_lightshift.png"" style= ""width:200px""alt=""img"">
                            </div>
                        </div>","76","","0","images/R_L_S_10_lightshift.png","","","","positive","2","R","L","S","lightshift","",""
"","","","","","html-slider-response","152","401177","0.0-132.0","cncqukmedd","3","NaN","<div style=""width:500px;"">
                            <p style=""font-size:50px; font-weight:bold;""
                            >positive</p>
                            <div style=""width:240px; margin: auto;"">
                                <img src=""images/B_L_S_30_lightshift.png"" style= ""width:200px""alt=""img"">
                            </div>
                        </div>","-53","","0","images/B_L_S_30_lightshift.png","","","","positive","1","B","L","S","lightshift","",""
"","","","","","html-slider-response","153","402544","0.0-133.0","cncqukmedd","3","NaN","<div style=""width:500px;"">
                            <p style=""font-size:50px; font-weight:bold;""
                            >positive</p>
                            <div style=""width:240px; margin: auto;"">
                                <img src=""images/R_L_S_10_darkshift.png"" style= ""width:200px""alt=""img"">
                            </div>
                        </div>","106","","0","images/R_L_S_10_darkshift.png","","","","positive","2","R","L","S","darkshift","",""
"","","","","","html-slider-response","154","403744","0.0-134.0","cncqukmedd","3","NaN","<div style=""width:500px;"">
                            <p style=""font-size:50px; font-weight:bold;""
                            >positive</p>
                            <div style=""width:240px; margin: auto;"">
                                <img src=""images/R_L_U_12_darkshift.png"" style= ""width:200px""alt=""img"">
                            </div>
                        </div>","123","","0","images/R_L_U_12_darkshift.png","","","","positive","1","R","L","U","darkshift","",""
"","","","","","html-slider-response","155","405294","0.0-135.0","cncqukmedd","3","NaN","<div style=""width:500px;"">
                            <p style=""font-size:50px; font-weight:bold;""
                            >positive</p>
                            <div style=""width:240px; margin: auto;"">
                                <img src=""images/Y_D_U_7_lightshift.png"" style= ""width:200px""alt=""img"">
                            </div>
                        </div>","-79","","0","images/Y_D_U_7_lightshift.png","","","","positive","1","Y","D","U","lightshift","",""
"","","","","","html-slider-response","156","407063","0.0-136.0","cncqukmedd","3","NaN","<div style=""width:500px;"">
                            <p style=""font-size:50px; font-weight:bold;""
                            >positive</p>
                            <div style=""width:240px; margin: auto;"">
                                <img src=""images/Y_L_U_2_darkshift.png"" style= ""width:200px""alt=""img"">
                            </div>
                        </div>","-105","","0","images/Y_L_U_2_darkshift.png","","","","positive","1","Y","L","U","darkshift","",""
"","","","","","html-slider-response","157","409410","0.0-137.0","cncqukmedd","3","NaN","<div style=""width:500px;"">
                            <p style=""font-size:50px; font-weight:bold;""
                            >positive</p>
                            <div style=""width:240px; margin: auto;"">
                                <img src=""images/B_D_S_37_lightshift.png"" style= ""width:200px""alt=""img"">
                            </div>
                        </div>","84","","0","images/B_D_S_37_lightshift.png","","","","positive","2","B","D","S","lightshift","",""
"","","","","","html-slider-response","158","410827","0.0-138.0","cncqukmedd","3","NaN","<div style=""width:500px;"">
                            <p style=""font-size:50px; font-weight:bold;""
                            >positive</p>
                            <div style=""width:240px; margin: auto;"">
                                <img src=""images/R_L_S_10_darkshift.png"" style= ""width:200px""alt=""img"">
                            </div>
                        </div>","116","","0","images/R_L_S_10_darkshift.png","","","","positive","1","R","L","S","darkshift","",""
"","","","","","html-slider-response","159","412777","0.0-139.0","cncqukmedd","3","NaN","<div style=""width:500px;"">
                            <p style=""font-size:50px; font-weight:bold;""
                            >positive</p>
                            <div style=""width:240px; margin: auto;"">
                                <img src=""images/Y_L_S_44_lightshift.png"" style= ""width:200px""alt=""img"">
                            </div>
                        </div>","73","","0","images/Y_L_S_44_lightshift.png","","","","positive","2","Y","L","S","lightshift","",""
"","","","","","html-slider-response","160","414761","0.0-140.0","cncqukmedd","3","NaN","<div style=""width:500px;"">
                            <p style=""font-size:50px; font-weight:bold;""
                            >positive</p>
                            <div style=""width:240px; margin: auto;"">
                                <img src=""images/Y_D_S_5_darkshift.png"" style= ""width:200px""alt=""img"">
                            </div>
                        </div>","-127","","0","images/Y_D_S_5_darkshift.png","","","","positive","2","Y","D","S","darkshift","",""
"","","","","","html-slider-response","161","416127","0.0-141.0","cncqukmedd","3","NaN","<div style=""width:500px;"">
                            <p style=""font-size:50px; font-weight:bold;""
                            >positive</p>
                            <div style=""width:240px; margin: auto;"">
                                <img src=""images/G_L_U_26_darkshift.png"" style= ""width:200px""alt=""img"">
                            </div>
                        </div>","41","","0","images/G_L_U_26_darkshift.png","","","","positive","1","G","L","U","darkshift","",""
"","","","","","html-slider-response","162","417311","0.0-142.0","cncqukmedd","3","NaN","<div style=""width:500px;"">
                            <p style=""font-size:50px; font-weight:bold;""
                            >positive</p>
                            <div style=""width:240px; margin: auto;"">
                                <img src=""images/B_L_S_30_lightshift.png"" style= ""width:200px""alt=""img"">
                            </div>
                        </div>","-81","","0","images/B_L_S_30_lightshift.png","","","","positive","2","B","L","S","lightshift","",""
"","","","","","html-slider-response","163","418595","0.0-143.0","cncqukmedd","3","NaN","<div style=""width:500px;"">
                            <p style=""font-size:50px; font-weight:bold;""
                            >positive</p>
                            <div style=""width:240px; margin: auto;"">
                                <img src=""images/R_L_U_12_lightshift.png"" style= ""width:200px""alt=""img"">
                            </div>
                        </div>","-88","","0","images/R_L_U_12_lightshift.png","","","","positive","1","R","L","U","lightshift","",""
"","","","","","html-button-response","164","434517","0.0-144.0","cncqukmedd","3","15420","<p>Great Job! You've finished block 2.<br></br> You have 2 block(s) left to go.<br></br></p>","0","","","","","","","","","","","","","",""
"","","","","","html-button-response","165","435750","0.0-145.0","cncqukmedd","3","1233","<p>In this block of trials, you will be asked to rate how much you associate each map with:</p > <p style = 'font-size:150%; font-weight: bold'>calm</p><br></br>","0","","","","","","","","","","","","","",""
"","","","","","html-slider-response","166","437178","0.0-146.0","cncqukmedd","3","NaN","<div style=""width:500px;"">
                            <p style=""font-size:50px; font-weight:bold;""
                            >calm</p>
                            <div style=""width:240px; margin: auto;"">
                                <img src=""images/B_D_U_41_darkshift.png"" style= ""width:200px""alt=""img"">
                            </div>
                        </div>","88","","0","images/B_D_U_41_darkshift.png","","","","calm","1","B","D","U","darkshift","",""
"","","","","","html-slider-response","167","438762","0.0-147.0","cncqukmedd","3","NaN","<div style=""width:500px;"">
                            <p style=""font-size:50px; font-weight:bold;""
                            >calm</p>
                            <div style=""width:240px; margin: auto;"">
                                <img src=""images/Y_L_U_2_lightshift.png"" style= ""width:200px""alt=""img"">
                            </div>
                        </div>","-79","","0","images/Y_L_U_2_lightshift.png","","","","calm","2","Y","L","U","lightshift","",""
"","","","","","html-slider-response","168","440212","0.0-148.0","cncqukmedd","3","NaN","<div style=""width:500px;"">
                            <p style=""font-size:50px; font-weight:bold;""
                            >calm</p>
                            <div style=""width:240px; margin: auto;"">
                                <img src=""images/Y_D_S_5_darkshift.png"" style= ""width:200px""alt=""img"">
                            </div>
                        </div>","-128","","0","images/Y_D_S_5_darkshift.png","","","","calm","1","Y","D","S","darkshift","",""
"","","","","","html-slider-response","169","441661","0.0-149.0","cncqukmedd","3","NaN","<div style=""width:500px;"">
                            <p style=""font-size:50px; font-weight:bold;""
                            >calm</p>
                            <div style=""width:240px; margin: auto;"">
                                <img src=""images/B_L_U_33_darkshift.png"" style= ""width:200px""alt=""img"">
                            </div>
                        </div>","77","","0","images/B_L_U_33_darkshift.png","","","","calm","2","B","L","U","darkshift","",""
"","","","","","html-slider-response","170","442828","0.0-150.0","cncqukmedd","3","NaN","<div style=""width:500px;"">
                            <p style=""font-size:50px; font-weight:bold;""
                            >calm</p>
                            <div style=""width:240px; margin: auto;"">
                                <img src=""images/B_D_S_37_lightshift.png"" style= ""width:200px""alt=""img"">
                            </div>
                        </div>","101","","0","images/B_D_S_37_lightshift.png","","","","calm","2","B","D","S","lightshift","",""
"","","","","","html-slider-response","171","444043","0.0-151.0","cncqukmedd","3","NaN","<div style=""width:500px;"">
                            <p style=""font-size:50px; font-weight:bold;""
                            >calm</p>
                            <div style=""width:240px; margin: auto;"">
                                <img src=""images/R_L_S_10_lightshift.png"" style= ""width:200px""alt=""img"">
                            </div>
                        </div>","101","","0","images/R_L_S_10_lightshift.png","","","","calm","1","R","L","S","lightshift","",""
"","","","","","html-slider-response","172","445728","0.0-152.0","cncqukmedd","3","NaN","<div style=""width:500px;"">
                            <p style=""font-size:50px; font-weight:bold;""
                            >calm</p>
                            <div style=""width:240px; margin: auto;"">
                                <img src=""images/G_D_U_28_lightshift.png"" style= ""width:200px""alt=""img"">
                            </div>
                        </div>","59","","0","images/G_D_U_28_lightshift.png","","","","calm","1","G","D","U","lightshift","",""
"","","","","","html-slider-response","173","447213","0.0-153.0","cncqukmedd","3","NaN","<div style=""width:500px;"">
                            <p style=""font-size:50px; font-weight:bold;""
                            >calm</p>
                            <div style=""width:240px; margin: auto;"">
                                <img src=""images/B_D_U_41_darkshift.png"" style= ""width:200px""alt=""img"">
                            </div>
                        </div>","69","","0","images/B_D_U_41_darkshift.png","","","","calm","2","B","D","U","darkshift","",""
"","","","","","html-slider-response","174","448545","0.0-154.0","cncqukmedd","3","NaN","<div style=""width:500px;"">
                            <p style=""font-size:50px; font-weight:bold;""
                            >calm</p>
                            <div style=""width:240px; margin: auto;"">
                                <img src=""images/B_D_S_37_darkshift.png"" style= ""width:200px""alt=""img"">
                            </div>
                        </div>","98","","0","images/B_D_S_37_darkshift.png","","","","calm","1","B","D","S","darkshift","",""
"","","","","","html-slider-response","175","449711","0.0-155.0","cncqukmedd","3","NaN","<div style=""width:500px;"">
                            <p style=""font-size:50px; font-weight:bold;""
                            >calm</p>
                            <div style=""width:240px; margin: auto;"">
                                <img src=""images/B_L_S_30_darkshift.png"" style= ""width:200px""alt=""img"">
                            </div>
                        </div>","99","","0","images/B_L_S_30_darkshift.png","","","","calm","2","B","L","S","darkshift","",""
"","","","","","html-slider-response","176","450927","0.0-156.0","cncqukmedd","3","NaN","<div style=""width:500px;"">
                            <p style=""font-size:50px; font-weight:bold;""
                            >calm</p>
                            <div style=""width:240px; margin: auto;"">
                                <img src=""images/G_L_U_26_darkshift.png"" style= ""width:200px""alt=""img"">
                            </div>
                        </div>","99","","0","images/G_L_U_26_darkshift.png","","","","calm","2","G","L","U","darkshift","",""
"","","","","","html-slider-response","177","452211","0.0-157.0","cncqukmedd","3","NaN","<div style=""width:500px;"">
                            <p style=""font-size:50px; font-weight:bold;""
                            >calm</p>
                            <div style=""width:240px; margin: auto;"">
                                <img src=""images/R_D_U_15_darkshift.png"" style= ""width:200px""alt=""img"">
                            </div>
                        </div>","99","","0","images/R_D_U_15_darkshift.png","","","","calm","2","R","D","U","darkshift","",""
"","","","","","html-slider-response","178","453629","0.0-158.0","cncqukmedd","3","NaN","<div style=""width:500px;"">
                            <p style=""font-size:50px; font-weight:bold;""
                            >calm</p>
                            <div style=""width:240px; margin: auto;"">
                                <img src=""images/Y_D_U_7_darkshift.png"" style= ""width:200px""alt=""img"">
                            </div>
                        </div>","-153","","0","images/Y_D_U_7_darkshift.png","","","","calm","2","Y","D","U","darkshift","",""
"","","","","","html-slider-response","179","454844","0.0-159.0","cncqukmedd","3","NaN","<div style=""width:500px;"">
                            <p style=""font-size:50px; font-weight:bold;""
                            >calm</p>
                            <div style=""width:240px; margin: auto;"">
                                <img src=""images/G_D_U_28_darkshift.png"" style= ""width:200px""alt=""img"">
                            </div>
                        </div>","-155","","0","images/G_D_U_28_darkshift.png","","","","calm","2","G","D","U","darkshift","",""
