"success","timeout","failed_images","failed_audio","failed_video","trial_type","trial_index","time_elapsed","internal_node_id","subject_id","condition_num","rt","stimulus","response","question_order","slider_start","image_path","practiceTrial","practiceTrialNum","correct","concept","repetition","hue","lightness","saturation","shift","ishihara_plate","correct_response"
"true","false","[]","[]","[]","preload","0","539","0.0-0.0","cqzj7k5b77","3","","","","","","","","","","","","","","","","",""
"","","","","","html-button-response","1","3531","0.0-1.0","cqzj7k5b77","3","2991","Welcome to our experiment!<p>At the bottom of this screen, you will see a button that says ""Begin Experiment"".<br>Please only click that button when you are ready to complete the 25 minute experiment in one sitting.</p><p> Once you click that button, it will not be possible to restart the experiment.","0","","","","","","","","","","","","","",""
"true","","","","","fullscreen","2","7346","0.0-2.0","cqzj7k5b77","3","2800","","","","","","","","","","","","","","","",""
"","","","","","survey-multi-select","3","74314","0.0-3.0","cqzj7k5b77","3","66969","","{""Consent"":[""<strong>I consent</strong>""]}","[0]","","","","","","","","","","","","",""
"","","","","","html-button-response","4","77464","0.0-4.0","cqzj7k5b77","3","3149","Welcome! <p> This experiment involves two parts: demographic information, followed by the experimental task.<p> It will take about 25 minutes to complete both parts.","0","","","","","","","","","","","","","",""
"","","","","","survey-text","5","89815","0.0-5.0","cqzj7k5b77","3","12343","","{""Age"":""19"",""Gender"":""Man"",""Race/ethnicity"":""White"",""Languages"":""English""}","","","","","","","","","","","","","",""
"","","","","","html-slider-response","6","135916","0.0-6.0","cqzj7k5b77","3","46091","
                            <div style='text-align:left; font-size:20px; line-height:25px; width: 1400px;'>
                                During this experiment you will be asked to rate how much you associate maps with                    different concepts.<br> Below, you can see some examples of the maps you will be asked to rate. Next to the maps
                    is the list of concepts.<br>You will be asked                    to rate how much you associate each map with each concept on a scale from 'not at all' to 'very much' like the
                    one below. <br><br>
                    Now, please look at the list of concepts and maps. For each concept, think about the map you associate 'very
                    much' with the concept.<br>                     When you see that map during the experiment, please rate it near the 'very much' endpoint of the
                    scale.<br>Now, please think about which map you associate 'not at all'                     with each concept. When you see that map during the experiment, please rate it near the 'not at all' endpoint
                    of the scale.<br>
                    Please use the full range of the scale. That is, if a map is somewhat associated with the concept, you would
                    click partway between the middle point and right side of the scale.                    You will be asked to rate each map for a given concept before moving on to the next concept.<br><br>Press the
                    'Continue' button for instructions on how to use the slider.                    <br><br>
                </div>

                <div style=""width: 500px; margin: 0 auto;"">
                    <!-- Centered text paragraphs -->
                    <div style=""text-align: center; width: 500px;"">
                        <p style=""font-size:25px; line-height:18px;"">calm</p>
                        <p style=""font-size:25px; line-height:18px;"">positive</p>
                        <p style=""font-size:25px;line-height:18px;"">negative</p>
                        <p style=""font-size:25px;line-height:18px;"">startling</p>
                    </div>

                    <!-- Grid section -->
                   <div style=""display: flex; justify-content: center; padding-top: 15px;"">
                    <div style=""display: grid; grid-template-columns: repeat(8, 80px); grid-gap: 5px; width: auto;"">
                        <img src=""images/G_L_S_23_darkshift.png"" alt=""map"" style=""width: 100%;""><img src=""images/B_D_U_41_darkshift.png"" alt=""map"" style=""width: 100%;""><img src=""images/R_D_S_13_lightshift.png"" alt=""map"" style=""width: 100%;""><img src=""images/B_D_S_37_darkshift.png"" alt=""map"" style=""width: 100%;""><img src=""images/G_L_U_26_lightshift.png"" alt=""map"" style=""width: 100%;""><img src=""images/B_L_S_30_lightshift.png"" alt=""map"" style=""width: 100%;""><img src=""images/R_L_U_12_lightshift.png"" alt=""map"" style=""width: 100%;""><img src=""images/R_L_S_10_darkshift.png"" alt=""map"" style=""width: 100%;""><img src=""images/B_L_U_33_lightshift.png"" alt=""map"" style=""width: 100%;""><img src=""images/G_L_U_26_darkshift.png"" alt=""map"" style=""width: 100%;""><img src=""images/R_D_U_15_lightshift.png"" alt=""map"" style=""width: 100%;""><img src=""images/G_D_S_27_lightshift.png"" alt=""map"" style=""width: 100%;""><img src=""images/Y_D_S_5_lightshift.png"" alt=""map"" style=""width: 100%;""><img src=""images/R_D_U_15_darkshift.png"" alt=""map"" style=""width: 100%;""><img src=""images/B_D_U_41_lightshift.png"" alt=""map"" style=""width: 100%;""><img src=""images/Y_L_U_2_lightshift.png"" alt=""map"" style=""width: 100%;""><img src=""images/G_L_S_23_lightshift.png"" alt=""map"" style=""width: 100%;""><img src=""images/Y_D_U_7_darkshift.png"" alt=""map"" style=""width: 100%;""><img src=""images/Y_L_S_44_lightshift.png"" alt=""map"" style=""width: 100%;""><img src=""images/G_D_U_28_darkshift.png"" alt=""map"" style=""width: 100%;""><img src=""images/Y_D_S_5_darkshift.png"" alt=""map"" style=""width: 100%;""><img src=""images/Y_L_S_44_darkshift.png"" alt=""map"" style=""width: 100%;""><img src=""images/Y_D_U_7_lightshift.png"" alt=""map"" style=""width: 100%;""><img src=""images/B_D_S_37_lightshift.png"" alt=""map"" style=""width: 100%;""><img src=""images/Y_L_U_2_darkshift.png"" alt=""map"" style=""width: 100%;""><img src=""images/R_L_S_10_lightshift.png"" alt=""map"" style=""width: 100%;""><img src=""images/R_D_S_13_darkshift.png"" alt=""map"" style=""width: 100%;""><img src=""images/B_L_U_33_darkshift.png"" alt=""map"" style=""width: 100%;""><img src=""images/B_L_S_30_darkshift.png"" alt=""map"" style=""width: 100%;""><img src=""images/R_L_U_12_darkshift.png"" alt=""map"" style=""width: 100%;""><img src=""images/G_D_S_27_darkshift.png"" alt=""map"" style=""width: 100%;""><img src=""images/G_D_U_28_lightshift.png"" alt=""map"" style=""width: 100%;"">
                    </div>
                </div>

                    <!-- Clear floats -->
                    <div style=""clear: both;""></div>
                </div>
                            ","1","","0","maps_anchoring.png","true","","","","","","","","","",""
"","","","","","html-button-response","7","140413","0.0-7.0","cqzj7k5b77","3","4495","<div style=""width:800px;""><p style=""text-align:left"">To move the slider, click and drag your cursor to the location of the scale where you would like to make your rating and then let go. When you let go of the slider, your response will be recorded and the next trial will begin. <br>
                    We are interested in your initial impressions of each map for the given concept, so please go with your first intuition. <br>
                    Before you begin the experiment, there will be four training trials for you to practice using the scale. <br>
                     When you are ready to start the training trials, please click ""Continue"".</p><br></div>","0","","","","","","","","","","","","","",""
"","","","","","html-slider-response","8","144102","0.0-8.0-0.0","cqzj7k5b77","3","NaN","<div style=""width:500px;"">
                                    <p style=""font-size:25px;"">Please move the slider all the way to the <br> right endpoint of the scale</p>

                                    </div>
                                </div>","200","","0","","true","0","true","","","","","","","",""
"","","","","","html-button-response","9","145742","0.0-8.0-1.0","cqzj7k5b77","3","1136","<p align='center'><b>Good job!</b> Click on 'Continue' to proceed.</p>","0","","","","","","","","","","","","","",""
"","","","","","html-slider-response","10","148227","0.0-9.0-0.0","cqzj7k5b77","3","NaN","<div style=""width:500px;"">
                                    <p style=""font-size:25px;"">Please move the slider all the way to the <br> left endpoint of the scale</p>

                                    </div>
                                </div>","-200","","0","","true","1","true","","","","","","","",""
"","","","","","html-button-response","11","149835","0.0-9.0-1.0","cqzj7k5b77","3","1103","<p align='center'><b>Good job!</b> Click on 'Continue' to proceed.</p>","0","","","","","","","","","","","","","",""
"","","","","","html-slider-response","12","156722","0.0-10.0-0.0","cqzj7k5b77","3","NaN","<div style=""width:500px;"">
                                    <p style=""font-size:25px;"">Please move the slider halfway between the center and right endpoint of the scale</p>

                                    </div>
                                </div>","0","","0","","true","2","false","","","","","","","",""
"","","","","","html-button-response","13","160104","0.0-10.0-1.0","cqzj7k5b77","3","2878","<p align='center'><b>Not quite!</b> The slider was not placed near the instructed located. Click on 'Continue' to try again. </p>","0","","","","","","","","","","","","","",""
"","","","","","html-slider-response","14","164722","0.0-10.1-0.1","cqzj7k5b77","3","NaN","<div style=""width:500px;"">
                                    <p style=""font-size:25px;"">Please move the slider halfway between the center and right endpoint of the scale</p>

                                    </div>
                                </div>","102","","0","","true","2","true","","","","","","","",""
"","","","","","html-button-response","15","166257","0.0-10.1-1.1","cqzj7k5b77","3","1025","<p align='center'><b>Good job!</b> Click on 'Continue' to proceed.</p>","0","","","","","","","","","","","","","",""
"","","","","","html-slider-response","16","170714","0.0-11.0-0.0","cqzj7k5b77","3","NaN","<div style=""width:500px;"">
                                    <p style=""font-size:25px;"">Please move the slider halfway between the center and left endpoint of the scale</p>

                                    </div>
                                </div>","-97","","0","","true","3","true","","","","","","","",""
"","","","","","html-button-response","17","172047","0.0-11.0-1.0","cqzj7k5b77","3","826","<p align='center'><b>Good job!</b> Click on 'Continue' to proceed.</p>","0","","","","","","","","","","","","","",""
"","","","","","html-button-response","18","173863","0.0-12.0","cqzj7k5b77","3","1814","<p>Great job! You've completed the practice trials. Now you will begin the main task.</p>","0","","","","","","","","","","","","","",""
"","","","","","html-button-response","19","177796","0.0-13.0","cqzj7k5b77","3","3932","<p>In this block of trials, you will be asked to rate how much you associate each map with:</p > <p style = 'font-size:150%; font-weight: bold'>positive</p><br></br>","0","","","","","","","","","","","","","",""
"","","","","","html-slider-response","20","185156","0.0-14.0","cqzj7k5b77","3","NaN","<div style=""width:500px;"">
                            <p style=""font-size:50px; font-weight:bold;""
                            >positive</p>
                            <div style=""width:240px; margin: auto;"">
                                <img src=""images/R_D_S_13_lightshift.png"" style= ""width:200px""alt=""img"">
                            </div>
                        </div>","62","","0","images/R_D_S_13_lightshift.png","","","","positive","2","R","D","S","lightshift","",""
"","","","","","html-slider-response","21","193077","0.0-15.0","cqzj7k5b77","3","NaN","<div style=""width:500px;"">
                            <p style=""font-size:50px; font-weight:bold;""
                            >positive</p>
                            <div style=""width:240px; margin: auto;"">
                                <img src=""images/G_D_U_28_lightshift.png"" style= ""width:200px""alt=""img"">
                            </div>
                        </div>","-69","","0","images/G_D_U_28_lightshift.png","","","","positive","1","G","D","U","lightshift","",""
"","","","","","html-slider-response","22","197366","0.0-16.0","cqzj7k5b77","3","NaN","<div style=""width:500px;"">
                            <p style=""font-size:50px; font-weight:bold;""
                            >positive</p>
                            <div style=""width:240px; margin: auto;"">
                                <img src=""images/R_L_S_10_darkshift.png"" style= ""width:200px""alt=""img"">
                            </div>
                        </div>","-58","","0","images/R_L_S_10_darkshift.png","","","","positive","2","R","L","S","darkshift","",""
"","","","","","html-slider-response","23","200281","0.0-17.0","cqzj7k5b77","3","NaN","<div style=""width:500px;"">
                            <p style=""font-size:50px; font-weight:bold;""
                            >positive</p>
                            <div style=""width:240px; margin: auto;"">
                                <img src=""images/G_D_U_28_darkshift.png"" style= ""width:200px""alt=""img"">
                            </div>
                        </div>","-190","","0","images/G_D_U_28_darkshift.png","","","","positive","1","G","D","U","darkshift","",""
"","","","","","html-slider-response","24","204033","0.0-18.0","cqzj7k5b77","3","NaN","<div style=""width:500px;"">
                            <p style=""font-size:50px; font-weight:bold;""
                            >positive</p>
                            <div style=""width:240px; margin: auto;"">
                                <img src=""images/R_L_U_12_lightshift.png"" style= ""width:200px""alt=""img"">
                            </div>
                        </div>","22","","0","images/R_L_U_12_lightshift.png","","","","positive","2","R","L","U","lightshift","",""
"","","","","","html-slider-response","25","207384","0.0-19.0","cqzj7k5b77","3","NaN","<div style=""width:500px;"">
                            <p style=""font-size:50px; font-weight:bold;""
                            >positive</p>
                            <div style=""width:240px; margin: auto;"">
                                <img src=""images/R_D_S_13_darkshift.png"" style= ""width:200px""alt=""img"">
                            </div>
                        </div>","-161","","0","images/R_D_S_13_darkshift.png","","","","positive","2","R","D","S","darkshift","",""
"","","","","","html-slider-response","26","211359","0.0-20.0","cqzj7k5b77","3","NaN","<div style=""width:500px;"">
                            <p style=""font-size:50px; font-weight:bold;""
                            >positive</p>
                            <div style=""width:240px; margin: auto;"">
                                <img src=""images/Y_L_S_44_darkshift.png"" style= ""width:200px""alt=""img"">
                            </div>
                        </div>","42","","0","images/Y_L_S_44_darkshift.png","","","","positive","1","Y","L","S","darkshift","",""
"","","","","","html-slider-response","27","214528","0.0-21.0","cqzj7k5b77","3","NaN","<div style=""width:500px;"">
                            <p style=""font-size:50px; font-weight:bold;""
                            >positive</p>
                            <div style=""width:240px; margin: auto;"">
                                <img src=""images/B_L_U_33_lightshift.png"" style= ""width:200px""alt=""img"">
                            </div>
                        </div>","178","","0","images/B_L_U_33_lightshift.png","","","","positive","1","B","L","U","lightshift","",""
"","","","","","html-slider-response","28","218030","0.0-22.0","cqzj7k5b77","3","NaN","<div style=""width:500px;"">
                            <p style=""font-size:50px; font-weight:bold;""
                            >positive</p>
                            <div style=""width:240px; margin: auto;"">
                                <img src=""images/G_D_S_27_darkshift.png"" style= ""width:200px""alt=""img"">
                            </div>
                        </div>","-154","","0","images/G_D_S_27_darkshift.png","","","","positive","2","G","D","S","darkshift","",""
"","","","","","html-slider-response","29","220712","0.0-23.0","cqzj7k5b77","3","NaN","<div style=""width:500px;"">
                            <p style=""font-size:50px; font-weight:bold;""
                            >positive</p>
                            <div style=""width:240px; margin: auto;"">
                                <img src=""images/G_D_U_28_darkshift.png"" style= ""width:200px""alt=""img"">
                            </div>
                        </div>","-187","","0","images/G_D_U_28_darkshift.png","","","","positive","2","G","D","U","darkshift","",""
"","","","","","html-slider-response","30","223351","0.0-24.0","cqzj7k5b77","3","NaN","<div style=""width:500px;"">
                            <p style=""font-size:50px; font-weight:bold;""
                            >positive</p>
                            <div style=""width:240px; margin: auto;"">
                                <img src=""images/R_L_S_10_lightshift.png"" style= ""width:200px""alt=""img"">
                            </div>
                        </div>","64","","0","images/R_L_S_10_lightshift.png","","","","positive","2","R","L","S","lightshift","",""
"","","","","","html-slider-response","31","226123","0.0-25.0","cqzj7k5b77","3","NaN","<div style=""width:500px;"">
                            <p style=""font-size:50px; font-weight:bold;""
                            >positive</p>
                            <div style=""width:240px; margin: auto;"">
                                <img src=""images/B_L_U_33_darkshift.png"" style= ""width:200px""alt=""img"">
                            </div>
                        </div>","148","","0","images/B_L_U_33_darkshift.png","","","","positive","1","B","L","U","darkshift","",""
"","","","","","html-slider-response","32","229010","0.0-26.0","cqzj7k5b77","3","NaN","<div style=""width:500px;"">
                            <p style=""font-size:50px; font-weight:bold;""
                            >positive</p>
                            <div style=""width:240px; margin: auto;"">
                                <img src=""images/Y_L_S_44_darkshift.png"" style= ""width:200px""alt=""img"">
                            </div>
                        </div>","50","","0","images/Y_L_S_44_darkshift.png","","","","positive","2","Y","L","S","darkshift","",""
"","","","","","html-slider-response","33","231750","0.0-27.0","cqzj7k5b77","3","NaN","<div style=""width:500px;"">
                            <p style=""font-size:50px; font-weight:bold;""
                            >positive</p>
                            <div style=""width:240px; margin: auto;"">
                                <img src=""images/G_D_S_27_darkshift.png"" style= ""width:200px""alt=""img"">
                            </div>
                        </div>","-182","","0","images/G_D_S_27_darkshift.png","","","","positive","1","G","D","S","darkshift","",""
"","","","","","html-slider-response","34","235724","0.0-28.0","cqzj7k5b77","3","NaN","<div style=""width:500px;"">
                            <p style=""font-size:50px; font-weight:bold;""
                            >positive</p>
                            <div style=""width:240px; margin: auto;"">
                                <img src=""images/R_L_U_12_darkshift.png"" style= ""width:200px""alt=""img"">
                            </div>
                        </div>","-10","","0","images/R_L_U_12_darkshift.png","","","","positive","2","R","L","U","darkshift","",""
"","","","","","html-slider-response","35","238348","0.0-29.0","cqzj7k5b77","3","NaN","<div style=""width:500px;"">
                            <p style=""font-size:50px; font-weight:bold;""
                            >positive</p>
                            <div style=""width:240px; margin: auto;"">
                                <img src=""images/G_D_S_27_lightshift.png"" style= ""width:200px""alt=""img"">
                            </div>
                        </div>","13","","0","images/G_D_S_27_lightshift.png","","","","positive","2","G","D","S","lightshift","",""
"","","","","","html-slider-response","36","242383","0.0-30.0","cqzj7k5b77","3","NaN","<div style=""width:500px;"">
                            <p style=""font-size:50px; font-weight:bold;""
                            >positive</p>
                            <div style=""width:240px; margin: auto;"">
                                <img src=""images/B_D_S_37_lightshift.png"" style= ""width:200px""alt=""img"">
                            </div>
                        </div>","-43","","0","images/B_D_S_37_lightshift.png","","","","positive","1","B","D","S","lightshift","",""
"","","","","","html-slider-response","37","244560","0.0-31.0","cqzj7k5b77","3","NaN","<div style=""width:500px;"">
                            <p style=""font-size:50px; font-weight:bold;""
                            >positive</p>
                            <div style=""width:240px; margin: auto;"">
                                <img src=""images/B_D_U_41_darkshift.png"" style= ""width:200px""alt=""img"">
                            </div>
                        </div>","-98","","0","images/B_D_U_41_darkshift.png","","","","positive","1","B","D","U","darkshift","",""
"","","","","","html-slider-response","38","247504","0.0-32.0","cqzj7k5b77","3","NaN","<div style=""width:500px;"">
                            <p style=""font-size:50px; font-weight:bold;""
                            >positive</p>
                            <div style=""width:240px; margin: auto;"">
                                <img src=""images/G_L_U_26_lightshift.png"" style= ""width:200px""alt=""img"">
                            </div>
                        </div>","90","","0","images/G_L_U_26_lightshift.png","","","","positive","2","G","L","U","lightshift","",""
"","","","","","html-slider-response","39","249885","0.0-33.0","cqzj7k5b77","3","NaN","<div style=""width:500px;"">
                            <p style=""font-size:50px; font-weight:bold;""
                            >positive</p>
                            <div style=""width:240px; margin: auto;"">
                                <img src=""images/G_L_S_23_lightshift.png"" style= ""width:200px""alt=""img"">
                            </div>
                        </div>","40","","0","images/G_L_S_23_lightshift.png","","","","positive","2","G","L","S","lightshift","",""
"","","","","","html-slider-response","40","252197","0.0-34.0","cqzj7k5b77","3","NaN","<div style=""width:500px;"">
                            <p style=""font-size:50px; font-weight:bold;""
                            >positive</p>
                            <div style=""width:240px; margin: auto;"">
                                <img src=""images/Y_D_S_5_lightshift.png"" style= ""width:200px""alt=""img"">
                            </div>
                        </div>","-43","","0","images/Y_D_S_5_lightshift.png","","","","positive","1","Y","D","S","lightshift","",""
"","","","","","html-slider-response","41","254475","0.0-35.0","cqzj7k5b77","3","NaN","<div style=""width:500px;"">
                            <p style=""font-size:50px; font-weight:bold;""
                            >positive</p>
                            <div style=""width:240px; margin: auto;"">
                                <img src=""images/B_L_S_30_lightshift.png"" style= ""width:200px""alt=""img"">
                            </div>
                        </div>","81","","0","images/B_L_S_30_lightshift.png","","","","positive","2","B","L","S","lightshift","",""
"","","","","","html-slider-response","42","259956","0.0-36.0","cqzj7k5b77","3","NaN","<div style=""width:500px;"">
                            <p style=""font-size:50px; font-weight:bold;""
                            >positive</p>
                            <div style=""width:240px; margin: auto;"">
                                <img src=""images/Y_L_S_44_lightshift.png"" style= ""width:200px""alt=""img"">
                            </div>
                        </div>","11","","0","images/Y_L_S_44_lightshift.png","","","","positive","2","Y","L","S","lightshift","",""
"","","","","","html-slider-response","43","262687","0.0-37.0","cqzj7k5b77","3","NaN","<div style=""width:500px;"">
                            <p style=""font-size:50px; font-weight:bold;""
                            >positive</p>
                            <div style=""width:240px; margin: auto;"">
                                <img src=""images/Y_D_U_7_lightshift.png"" style= ""width:200px""alt=""img"">
                            </div>
                        </div>","-109","","0","images/Y_D_U_7_lightshift.png","","","","positive","1","Y","D","U","lightshift","",""
"","","","","","html-slider-response","44","265759","0.0-38.0","cqzj7k5b77","3","NaN","<div style=""width:500px;"">
                            <p style=""font-size:50px; font-weight:bold;""
                            >positive</p>
                            <div style=""width:240px; margin: auto;"">
                                <img src=""images/R_L_U_12_darkshift.png"" style= ""width:200px""alt=""img"">
                            </div>
                        </div>","-22","","0","images/R_L_U_12_darkshift.png","","","","positive","1","R","L","U","darkshift","",""
"","","","","","html-slider-response","45","267792","0.0-39.0","cqzj7k5b77","3","NaN","<div style=""width:500px;"">
                            <p style=""font-size:50px; font-weight:bold;""
                            >positive</p>
                            <div style=""width:240px; margin: auto;"">
                                <img src=""images/R_D_U_15_lightshift.png"" style= ""width:200px""alt=""img"">
                            </div>
                        </div>","29","","0","images/R_D_U_15_lightshift.png","","","","positive","2","R","D","U","lightshift","",""
"","","","","","html-slider-response","46","270922","0.0-40.0","cqzj7k5b77","3","NaN","<div style=""width:500px;"">
                            <p style=""font-size:50px; font-weight:bold;""
                            >positive</p>
                            <div style=""width:240px; margin: auto;"">
                                <img src=""images/B_L_S_30_darkshift.png"" style= ""width:200px""alt=""img"">
                            </div>
                        </div>","52","","0","images/B_L_S_30_darkshift.png","","","","positive","1","B","L","S","darkshift","",""
"","","","","","html-slider-response","47","273376","0.0-41.0","cqzj7k5b77","3","NaN","<div style=""width:500px;"">
                            <p style=""font-size:50px; font-weight:bold;""
                            >positive</p>
                            <div style=""width:240px; margin: auto;"">
                                <img src=""images/G_D_S_27_lightshift.png"" style= ""width:200px""alt=""img"">
                            </div>
                        </div>","-35","","0","images/G_D_S_27_lightshift.png","","","","positive","1","G","D","S","lightshift","",""
"","","","","","html-slider-response","48","275639","0.0-42.0","cqzj7k5b77","3","NaN","<div style=""width:500px;"">
                            <p style=""font-size:50px; font-weight:bold;""
                            >positive</p>
                            <div style=""width:240px; margin: auto;"">
                                <img src=""images/Y_L_U_2_darkshift.png"" style= ""width:200px""alt=""img"">
                            </div>
                        </div>","35","","0","images/Y_L_U_2_darkshift.png","","","","positive","2","Y","L","U","darkshift","",""
"","","","","","html-slider-response","49","277745","0.0-43.0","cqzj7k5b77","3","NaN","<div style=""width:500px;"">
                            <p style=""font-size:50px; font-weight:bold;""
                            >positive</p>
                            <div style=""width:240px; margin: auto;"">
                                <img src=""images/G_L_S_23_lightshift.png"" style= ""width:200px""alt=""img"">
                            </div>
                        </div>","97","","0","images/G_L_S_23_lightshift.png","","","","positive","1","G","L","S","lightshift","",""
"","","","","","html-slider-response","50","279704","0.0-44.0","cqzj7k5b77","3","NaN","<div style=""width:500px;"">
                            <p style=""font-size:50px; font-weight:bold;""
                            >positive</p>
                            <div style=""width:240px; margin: auto;"">
                                <img src=""images/G_D_U_28_lightshift.png"" style= ""width:200px""alt=""img"">
                            </div>
                        </div>","-64","","0","images/G_D_U_28_lightshift.png","","","","positive","2","G","D","U","lightshift","",""
"","","","","","html-slider-response","51","282822","0.0-45.0","cqzj7k5b77","3","NaN","<div style=""width:500px;"">
                            <p style=""font-size:50px; font-weight:bold;""
                            >positive</p>
                            <div style=""width:240px; margin: auto;"">
                                <img src=""images/G_L_S_23_darkshift.png"" style= ""width:200px""alt=""img"">
                            </div>
                        </div>","-27","","0","images/G_L_S_23_darkshift.png","","","","positive","2","G","L","S","darkshift","",""
"","","","","","html-slider-response","52","284776","0.0-46.0","cqzj7k5b77","3","NaN","<div style=""width:500px;"">
                            <p style=""font-size:50px; font-weight:bold;""
                            >positive</p>
                            <div style=""width:240px; margin: auto;"">
                                <img src=""images/B_D_U_41_lightshift.png"" style= ""width:200px""alt=""img"">
                            </div>
                        </div>","70","","0","images/B_D_U_41_lightshift.png","","","","positive","1","B","D","U","lightshift","",""
"","","","","","html-slider-response","53","286822","0.0-47.0","cqzj7k5b77","3","NaN","<div style=""width:500px;"">
                            <p style=""font-size:50px; font-weight:bold;""
                            >positive</p>
                            <div style=""width:240px; margin: auto;"">
                                <img src=""images/Y_D_S_5_darkshift.png"" style= ""width:200px""alt=""img"">
                            </div>
                        </div>","-200","","0","images/Y_D_S_5_darkshift.png","","","","positive","1","Y","D","S","darkshift","",""
"","","","","","html-slider-response","54","289921","0.0-48.0","cqzj7k5b77","3","NaN","<div style=""width:500px;"">
                            <p style=""font-size:50px; font-weight:bold;""
                            >positive</p>
                            <div style=""width:240px; margin: auto;"">
                                <img src=""images/B_L_U_33_lightshift.png"" style= ""width:200px""alt=""img"">
                            </div>
                        </div>","162","","0","images/B_L_U_33_lightshift.png","","","","positive","2","B","L","U","lightshift","",""
"","","","","","html-slider-response","55","292810","0.0-49.0","cqzj7k5b77","3","NaN","<div style=""width:500px;"">
                            <p style=""font-size:50px; font-weight:bold;""
                            >positive</p>
                            <div style=""width:240px; margin: auto;"">
                                <img src=""images/G_L_S_23_darkshift.png"" style= ""width:200px""alt=""img"">
                            </div>
                        </div>","42","","0","images/G_L_S_23_darkshift.png","","","","positive","1","G","L","S","darkshift","",""
"","","","","","html-slider-response","56","295074","0.0-50.0","cqzj7k5b77","3","NaN","<div style=""width:500px;"">
                            <p style=""font-size:50px; font-weight:bold;""
                            >positive</p>
                            <div style=""width:240px; margin: auto;"">
                                <img src=""images/Y_D_U_7_darkshift.png"" style= ""width:200px""alt=""img"">
                            </div>
                        </div>","-174","","0","images/Y_D_U_7_darkshift.png","","","","positive","2","Y","D","U","darkshift","",""
"","","","","","html-slider-response","57","297124","0.0-51.0","cqzj7k5b77","3","NaN","<div style=""width:500px;"">
                            <p style=""font-size:50px; font-weight:bold;""
                            >positive</p>
                            <div style=""width:240px; margin: auto;"">
                                <img src=""images/B_L_S_30_lightshift.png"" style= ""width:200px""alt=""img"">
                            </div>
                        </div>","122","","0","images/B_L_S_30_lightshift.png","","","","positive","1","B","L","S","lightshift","",""
"","","","","","html-slider-response","58","300008","0.0-52.0","cqzj7k5b77","3","NaN","<div style=""width:500px;"">
                            <p style=""font-size:50px; font-weight:bold;""
                            >positive</p>
                            <div style=""width:240px; margin: auto;"">
                                <img src=""images/Y_L_U_2_darkshift.png"" style= ""width:200px""alt=""img"">
                            </div>
                        </div>","18","","0","images/Y_L_U_2_darkshift.png","","","","positive","1","Y","L","U","darkshift","",""
"","","","","","html-slider-response","59","303917","0.0-53.0","cqzj7k5b77","3","NaN","<div style=""width:500px;"">
                            <p style=""font-size:50px; font-weight:bold;""
                            >positive</p>
                            <div style=""width:240px; margin: auto;"">
                                <img src=""images/B_D_S_37_darkshift.png"" style= ""width:200px""alt=""img"">
                            </div>
                        </div>","-56","","0","images/B_D_S_37_darkshift.png","","","","positive","1","B","D","S","darkshift","",""
"","","","","","html-slider-response","60","305901","0.0-54.0","cqzj7k5b77","3","NaN","<div style=""width:500px;"">
                            <p style=""font-size:50px; font-weight:bold;""
                            >positive</p>
                            <div style=""width:240px; margin: auto;"">
                                <img src=""images/Y_L_U_2_lightshift.png"" style= ""width:200px""alt=""img"">
                            </div>
                        </div>","24","","0","images/Y_L_U_2_lightshift.png","","","","positive","1","Y","L","U","lightshift","",""
"","","","","","html-slider-response","61","307933","0.0-55.0","cqzj7k5b77","3","NaN","<div style=""width:500px;"">
                            <p style=""font-size:50px; font-weight:bold;""
                            >positive</p>
                            <div style=""width:240px; margin: auto;"">
                                <img src=""images/R_D_U_15_darkshift.png"" style= ""width:200px""alt=""img"">
                            </div>
                        </div>","-153","","0","images/R_D_U_15_darkshift.png","","","","positive","1","R","D","U","darkshift","",""
"","","","","","html-slider-response","62","309961","0.0-56.0","cqzj7k5b77","3","NaN","<div style=""width:500px;"">
                            <p style=""font-size:50px; font-weight:bold;""
                            >positive</p>
                            <div style=""width:240px; margin: auto;"">
                                <img src=""images/R_L_S_10_lightshift.png"" style= ""width:200px""alt=""img"">
                            </div>
                        </div>","82","","0","images/R_L_S_10_lightshift.png","","","","positive","1","R","L","S","lightshift","",""
"","","","","","html-slider-response","63","311867","0.0-57.0","cqzj7k5b77","3","NaN","<div style=""width:500px;"">
                            <p style=""font-size:50px; font-weight:bold;""
                            >positive</p>
                            <div style=""width:240px; margin: auto;"">
                                <img src=""images/B_L_U_33_darkshift.png"" style= ""width:200px""alt=""img"">
                            </div>
                        </div>","22","","0","images/B_L_U_33_darkshift.png","","","","positive","2","B","L","U","darkshift","",""
"","","","","","html-slider-response","64","313721","0.0-58.0","cqzj7k5b77","3","NaN","<div style=""width:500px;"">
                            <p style=""font-size:50px; font-weight:bold;""
                            >positive</p>
                            <div style=""width:240px; margin: auto;"">
                                <img src=""images/G_L_U_26_lightshift.png"" style= ""width:200px""alt=""img"">
                            </div>
                        </div>","164","","0","images/G_L_U_26_lightshift.png","","","","positive","1","G","L","U","lightshift","",""
"","","","","","html-slider-response","65","315772","0.0-59.0","cqzj7k5b77","3","NaN","<div style=""width:500px;"">
                            <p style=""font-size:50px; font-weight:bold;""
                            >positive</p>
                            <div style=""width:240px; margin: auto;"">
                                <img src=""images/B_D_U_41_darkshift.png"" style= ""width:200px""alt=""img"">
                            </div>
                        </div>","-92","","0","images/B_D_U_41_darkshift.png","","","","positive","2","B","D","U","darkshift","",""
"","","","","","html-slider-response","66","318150","0.0-60.0","cqzj7k5b77","3","NaN","<div style=""width:500px;"">
                            <p style=""font-size:50px; font-weight:bold;""
                            >positive</p>
                            <div style=""width:240px; margin: auto;"">
                                <img src=""images/Y_D_S_5_darkshift.png"" style= ""width:200px""alt=""img"">
                            </div>
                        </div>","-186","","0","images/Y_D_S_5_darkshift.png","","","","positive","2","Y","D","S","darkshift","",""
"","","","","","html-slider-response","67","320182","0.0-61.0","cqzj7k5b77","3","NaN","<div style=""width:500px;"">
                            <p style=""font-size:50px; font-weight:bold;""
                            >positive</p>
                            <div style=""width:240px; margin: auto;"">
                                <img src=""images/R_D_U_15_lightshift.png"" style= ""width:200px""alt=""img"">
                            </div>
                        </div>","19","","0","images/R_D_U_15_lightshift.png","","","","positive","1","R","D","U","lightshift","",""
"","","","","","html-slider-response","68","322350","0.0-62.0","cqzj7k5b77","3","NaN","<div style=""width:500px;"">
                            <p style=""font-size:50px; font-weight:bold;""
                            >positive</p>
                            <div style=""width:240px; margin: auto;"">
                                <img src=""images/G_L_U_26_darkshift.png"" style= ""width:200px""alt=""img"">
                            </div>
                        </div>","68","","0","images/G_L_U_26_darkshift.png","","","","positive","1","G","L","U","darkshift","",""
"","","","","","html-slider-response","69","324115","0.0-63.0","cqzj7k5b77","3","NaN","<div style=""width:500px;"">
                            <p style=""font-size:50px; font-weight:bold;""
                            >positive</p>
                            <div style=""width:240px; margin: auto;"">
                                <img src=""images/R_L_U_12_lightshift.png"" style= ""width:200px""alt=""img"">
                            </div>
                        </div>","126","","0","images/R_L_U_12_lightshift.png","","","","positive","1","R","L","U","lightshift","",""
"","","","","","html-slider-response","70","325822","0.0-64.0","cqzj7k5b77","3","NaN","<div style=""width:500px;"">
                            <p style=""font-size:50px; font-weight:bold;""
                            >positive</p>
                            <div style=""width:240px; margin: auto;"">
                                <img src=""images/R_D_U_15_darkshift.png"" style= ""width:200px""alt=""img"">
                            </div>
                        </div>","-65","","0","images/R_D_U_15_darkshift.png","","","","positive","2","R","D","U","darkshift","",""
"","","","","","html-slider-response","71","327521","0.0-65.0","cqzj7k5b77","3","NaN","<div style=""width:500px;"">
                            <p style=""font-size:50px; font-weight:bold;""
                            >positive</p>
                            <div style=""width:240px; margin: auto;"">
                                <img src=""images/B_D_S_37_darkshift.png"" style= ""width:200px""alt=""img"">
                            </div>
                        </div>","-57","","0","images/B_D_S_37_darkshift.png","","","","positive","2","B","D","S","darkshift","",""
"","","","","","html-slider-response","72","329038","0.0-66.0","cqzj7k5b77","3","NaN","<div style=""width:500px;"">
                            <p style=""font-size:50px; font-weight:bold;""
                            >positive</p>
                            <div style=""width:240px; margin: auto;"">
                                <img src=""images/G_L_U_26_darkshift.png"" style= ""width:200px""alt=""img"">
                            </div>
                        </div>","47","","0","images/G_L_U_26_darkshift.png","","","","positive","2","G","L","U","darkshift","",""
"","","","","","html-slider-response","73","332982","0.0-67.0","cqzj7k5b77","3","NaN","<div style=""width:500px;"">
                            <p style=""font-size:50px; font-weight:bold;""
                            >positive</p>
                            <div style=""width:240px; margin: auto;"">
                                <img src=""images/R_L_S_10_darkshift.png"" style= ""width:200px""alt=""img"">
                            </div>
                        </div>","-13","","0","images/R_L_S_10_darkshift.png","","","","positive","1","R","L","S","darkshift","",""
"","","","","","html-slider-response","74","335026","0.0-68.0","cqzj7k5b77","3","NaN","<div style=""width:500px;"">
                            <p style=""font-size:50px; font-weight:bold;""
                            >positive</p>
                            <div style=""width:240px; margin: auto;"">
                                <img src=""images/Y_D_U_7_lightshift.png"" style= ""width:200px""alt=""img"">
                            </div>
                        </div>","-75","","0","images/Y_D_U_7_lightshift.png","","","","positive","2","Y","D","U","lightshift","",""
"","","","","","html-slider-response","75","337081","0.0-69.0","cqzj7k5b77","3","NaN","<div style=""width:500px;"">
                            <p style=""font-size:50px; font-weight:bold;""
                            >positive</p>
                            <div style=""width:240px; margin: auto;"">
                                <img src=""images/R_D_S_13_lightshift.png"" style= ""width:200px""alt=""img"">
                            </div>
                        </div>","-38","","0","images/R_D_S_13_lightshift.png","","","","positive","1","R","D","S","lightshift","",""
"","","","","","html-slider-response","76","338768","0.0-70.0","cqzj7k5b77","3","NaN","<div style=""width:500px;"">
                            <p style=""font-size:50px; font-weight:bold;""
                            >positive</p>
                            <div style=""width:240px; margin: auto;"">
                                <img src=""images/B_D_U_41_lightshift.png"" style= ""width:200px""alt=""img"">
                            </div>
                        </div>","58","","0","images/B_D_U_41_lightshift.png","","","","positive","2","B","D","U","lightshift","",""
"","","","","","html-slider-response","77","343738","0.0-71.0","cqzj7k5b77","3","NaN","<div style=""width:500px;"">
                            <p style=""font-size:50px; font-weight:bold;""
                            >positive</p>
                            <div style=""width:240px; margin: auto;"">
                                <img src=""images/B_D_S_37_lightshift.png"" style= ""width:200px""alt=""img"">
                            </div>
                        </div>","22","","0","images/B_D_S_37_lightshift.png","","","","positive","2","B","D","S","lightshift","",""
"","","","","","html-slider-response","78","345750","0.0-72.0","cqzj7k5b77","3","NaN","<div style=""width:500px;"">
                            <p style=""font-size:50px; font-weight:bold;""
                            >positive</p>
                            <div style=""width:240px; margin: auto;"">
                                <img src=""images/Y_D_S_5_lightshift.png"" style= ""width:200px""alt=""img"">
                            </div>
                        </div>","-162","","0","images/Y_D_S_5_lightshift.png","","","","positive","2","Y","D","S","lightshift","",""
"","","","","","html-slider-response","79","348550","0.0-73.0","cqzj7k5b77","3","NaN","<div style=""width:500px;"">
                            <p style=""font-size:50px; font-weight:bold;""
                            >positive</p>
                            <div style=""width:240px; margin: auto;"">
                                <img src=""images/B_L_S_30_darkshift.png"" style= ""width:200px""alt=""img"">
                            </div>
                        </div>","24","","0","images/B_L_S_30_darkshift.png","","","","positive","2","B","L","S","darkshift","",""
"","","","","","html-slider-response","80","352139","0.0-74.0","cqzj7k5b77","3","NaN","<div style=""width:500px;"">
                            <p style=""font-size:50px; font-weight:bold;""
                            >positive</p>
                            <div style=""width:240px; margin: auto;"">
                                <img src=""images/Y_L_S_44_lightshift.png"" style= ""width:200px""alt=""img"">
                            </div>
                        </div>","-38","","0","images/Y_L_S_44_lightshift.png","","","","positive","1","Y","L","S","lightshift","",""
"","","","","","html-slider-response","81","353877","0.0-75.0","cqzj7k5b77","3","NaN","<div style=""width:500px;"">
                            <p style=""font-size:50px; font-weight:bold;""
                            >positive</p>
                            <div style=""width:240px; margin: auto;"">
                                <img src=""images/R_D_S_13_darkshift.png"" style= ""width:200px""alt=""img"">
                            </div>
                        </div>","-58","","0","images/R_D_S_13_darkshift.png","","","","positive","1","R","D","S","darkshift","",""
"","","","","","html-slider-response","82","356350","0.0-76.0","cqzj7k5b77","3","NaN","<div style=""width:500px;"">
                            <p style=""font-size:50px; font-weight:bold;""
                            >positive</p>
                            <div style=""width:240px; margin: auto;"">
                                <img src=""images/Y_L_U_2_lightshift.png"" style= ""width:200px""alt=""img"">
                            </div>
                        </div>","66","","0","images/Y_L_U_2_lightshift.png","","","","positive","2","Y","L","U","lightshift","",""
"","","","","","html-slider-response","83","358136","0.0-77.0","cqzj7k5b77","3","NaN","<div style=""width:500px;"">
                            <p style=""font-size:50px; font-weight:bold;""
                            >positive</p>
                            <div style=""width:240px; margin: auto;"">
                                <img src=""images/Y_D_U_7_darkshift.png"" style= ""width:200px""alt=""img"">
                            </div>
                        </div>","-196","","0","images/Y_D_U_7_darkshift.png","","","","positive","1","Y","D","U","darkshift","",""
"","","","","","html-button-response","84","360221","0.0-78.0","cqzj7k5b77","3","1583","<p>Great Job! You've finished block 1.<br></br> You have 3 block(s) left to go.<br></br></p>","0","","","","","","","","","","","","","",""
"","","","","","html-button-response","85","362350","0.0-79.0","cqzj7k5b77","3","2129","<p>In this block of trials, you will be asked to rate how much you associate each map with:</p > <p style = 'font-size:150%; font-weight: bold'>negative</p><br></br>","0","","","","","","","","","","","","","",""
"","","","","","html-slider-response","86","367045","0.0-80.0","cqzj7k5b77","3","NaN","<div style=""width:500px;"">
                            <p style=""font-size:50px; font-weight:bold;""
                            >negative</p>
                            <div style=""width:240px; margin: auto;"">
                                <img src=""images/G_D_S_27_darkshift.png"" style= ""width:200px""alt=""img"">
                            </div>
                        </div>","160","","0","images/G_D_S_27_darkshift.png","","","","negative","1","G","D","S","darkshift","",""
"","","","","","html-slider-response","87","369639","0.0-81.0","cqzj7k5b77","3","NaN","<div style=""width:500px;"">
                            <p style=""font-size:50px; font-weight:bold;""
                            >negative</p>
                            <div style=""width:240px; margin: auto;"">
                                <img src=""images/Y_L_S_44_darkshift.png"" style= ""width:200px""alt=""img"">
                            </div>
                        </div>","42","","0","images/Y_L_S_44_darkshift.png","","","","negative","1","Y","L","S","darkshift","",""
"","","","","","html-slider-response","88","371414","0.0-82.0","cqzj7k5b77","3","NaN","<div style=""width:500px;"">
                            <p style=""font-size:50px; font-weight:bold;""
                            >negative</p>
                            <div style=""width:240px; margin: auto;"">
                                <img src=""images/B_D_S_37_lightshift.png"" style= ""width:200px""alt=""img"">
                            </div>
                        </div>","-42","","0","images/B_D_S_37_lightshift.png","","","","negative","1","B","D","S","lightshift","",""
"","","","","","html-slider-response","89","373706","0.0-83.0","cqzj7k5b77","3","NaN","<div style=""width:500px;"">
                            <p style=""font-size:50px; font-weight:bold;""
                            >negative</p>
                            <div style=""width:240px; margin: auto;"">
                                <img src=""images/R_D_U_15_lightshift.png"" style= ""width:200px""alt=""img"">
                            </div>
                        </div>","-39","","0","images/R_D_U_15_lightshift.png","","","","negative","2","R","D","U","lightshift","",""
"","","","","","html-slider-response","90","375679","0.0-84.0","cqzj7k5b77","3","NaN","<div style=""width:500px;"">
                            <p style=""font-size:50px; font-weight:bold;""
                            >negative</p>
                            <div style=""width:240px; margin: auto;"">
                                <img src=""images/R_D_S_13_darkshift.png"" style= ""width:200px""alt=""img"">
                            </div>
                        </div>","58","","0","images/R_D_S_13_darkshift.png","","","","negative","1","R","D","S","darkshift","",""
"","","","","","html-slider-response","91","379613","0.0-85.0","cqzj7k5b77","3","NaN","<div style=""width:500px;"">
                            <p style=""font-size:50px; font-weight:bold;""
                            >negative</p>
                            <div style=""width:240px; margin: auto;"">
                                <img src=""images/R_D_U_15_lightshift.png"" style= ""width:200px""alt=""img"">
                            </div>
                        </div>","-33","","0","images/R_D_U_15_lightshift.png","","","","negative","1","R","D","U","lightshift","",""
"","","","","","html-slider-response","92","381833","0.0-86.0","cqzj7k5b77","3","NaN","<div style=""width:500px;"">
                            <p style=""font-size:50px; font-weight:bold;""
                            >negative</p>
                            <div style=""width:240px; margin: auto;"">
                                <img src=""images/G_D_U_28_darkshift.png"" style= ""width:200px""alt=""img"">
                            </div>
                        </div>","173","","0","images/G_D_U_28_darkshift.png","","","","negative","2","G","D","U","darkshift","",""
"","","","","","html-slider-response","93","383821","0.0-87.0","cqzj7k5b77","3","NaN","<div style=""width:500px;"">
                            <p style=""font-size:50px; font-weight:bold;""
                            >negative</p>
                            <div style=""width:240px; margin: auto;"">
                                <img src=""images/R_L_U_12_lightshift.png"" style= ""width:200px""alt=""img"">
                            </div>
                        </div>","-73","","0","images/R_L_U_12_lightshift.png","","","","negative","1","R","L","U","lightshift","",""
"","","","","","html-slider-response","94","386053","0.0-88.0","cqzj7k5b77","3","NaN","<div style=""width:500px;"">
                            <p style=""font-size:50px; font-weight:bold;""
                            >negative</p>
                            <div style=""width:240px; margin: auto;"">
                                <img src=""images/G_D_U_28_darkshift.png"" style= ""width:200px""alt=""img"">
                            </div>
                        </div>","126","","0","images/G_D_U_28_darkshift.png","","","","negative","1","G","D","U","darkshift","",""
"","","","","","html-slider-response","95","388850","0.0-89.0","cqzj7k5b77","3","NaN","<div style=""width:500px;"">
                            <p style=""font-size:50px; font-weight:bold;""
                            >negative</p>
                            <div style=""width:240px; margin: auto;"">
                                <img src=""images/G_L_S_23_lightshift.png"" style= ""width:200px""alt=""img"">
                            </div>
                        </div>","-86","","0","images/G_L_S_23_lightshift.png","","","","negative","1","G","L","S","lightshift","",""
"","","","","","html-slider-response","96","391805","0.0-90.0","cqzj7k5b77","3","NaN","<div style=""width:500px;"">
                            <p style=""font-size:50px; font-weight:bold;""
                            >negative</p>
                            <div style=""width:240px; margin: auto;"">
                                <img src=""images/B_L_S_30_lightshift.png"" style= ""width:200px""alt=""img"">
                            </div>
                        </div>","-88","","0","images/B_L_S_30_lightshift.png","","","","negative","1","B","L","S","lightshift","",""
"","","","","","html-slider-response","97","393889","0.0-91.0","cqzj7k5b77","3","NaN","<div style=""width:500px;"">
                            <p style=""font-size:50px; font-weight:bold;""
                            >negative</p>
                            <div style=""width:240px; margin: auto;"">
                                <img src=""images/G_D_S_27_darkshift.png"" style= ""width:200px""alt=""img"">
                            </div>
                        </div>","135","","0","images/G_D_S_27_darkshift.png","","","","negative","2","G","D","S","darkshift","",""
"","","","","","html-slider-response","98","396436","0.0-92.0","cqzj7k5b77","3","NaN","<div style=""width:500px;"">
                            <p style=""font-size:50px; font-weight:bold;""
                            >negative</p>
                            <div style=""width:240px; margin: auto;"">
                                <img src=""images/Y_D_S_5_lightshift.png"" style= ""width:200px""alt=""img"">
                            </div>
                        </div>","147","","0","images/Y_D_S_5_lightshift.png","","","","negative","2","Y","D","S","lightshift","",""
"","","","","","html-slider-response","99","399313","0.0-93.0","cqzj7k5b77","3","NaN","<div style=""width:500px;"">
                            <p style=""font-size:50px; font-weight:bold;""
                            >negative</p>
                            <div style=""width:240px; margin: auto;"">
                                <img src=""images/G_L_U_26_darkshift.png"" style= ""width:200px""alt=""img"">
                            </div>
                        </div>","-12","","0","images/G_L_U_26_darkshift.png","","","","negative","1","G","L","U","darkshift","",""
"","","","","","html-slider-response","100","402071","0.0-94.0","cqzj7k5b77","3","NaN","<div style=""width:500px;"">
                            <p style=""font-size:50px; font-weight:bold;""
                            >negative</p>
                            <div style=""width:240px; margin: auto;"">
                                <img src=""images/G_D_U_28_lightshift.png"" style= ""width:200px""alt=""img"">
                            </div>
                        </div>","19","","0","images/G_D_U_28_lightshift.png","","","","negative","1","G","D","U","lightshift","",""
"","","","","","html-slider-response","101","405003","0.0-95.0","cqzj7k5b77","3","NaN","<div style=""width:500px;"">
                            <p style=""font-size:50px; font-weight:bold;""
                            >negative</p>
                            <div style=""width:240px; margin: auto;"">
                                <img src=""images/R_D_S_13_lightshift.png"" style= ""width:200px""alt=""img"">
                            </div>
                        </div>","-31","","0","images/R_D_S_13_lightshift.png","","","","negative","2","R","D","S","lightshift","",""
"","","","","","html-slider-response","102","406952","0.0-96.0","cqzj7k5b77","3","NaN","<div style=""width:500px;"">
                            <p style=""font-size:50px; font-weight:bold;""
                            >negative</p>
                            <div style=""width:240px; margin: auto;"">
                                <img src=""images/G_L_S_23_lightshift.png"" style= ""width:200px""alt=""img"">
                            </div>
                        </div>","-118","","0","images/G_L_S_23_lightshift.png","","","","negative","2","G","L","S","lightshift","",""
"","","","","","html-slider-response","103","408950","0.0-97.0","cqzj7k5b77","3","NaN","<div style=""width:500px;"">
                            <p style=""font-size:50px; font-weight:bold;""
                            >negative</p>
                            <div style=""width:240px; margin: auto;"">
                                <img src=""images/B_D_U_41_darkshift.png"" style= ""width:200px""alt=""img"">
                            </div>
                        </div>","66","","0","images/B_D_U_41_darkshift.png","","","","negative","1","B","D","U","darkshift","",""
"","","","","","html-slider-response","104","411435","0.0-98.0","cqzj7k5b77","3","NaN","<div style=""width:500px;"">
                            <p style=""font-size:50px; font-weight:bold;""
                            >negative</p>
                            <div style=""width:240px; margin: auto;"">
                                <img src=""images/Y_L_S_44_lightshift.png"" style= ""width:200px""alt=""img"">
                            </div>
                        </div>","-50","","0","images/Y_L_S_44_lightshift.png","","","","negative","1","Y","L","S","lightshift","",""
"","","","","","html-slider-response","105","413903","0.0-99.0","cqzj7k5b77","3","NaN","<div style=""width:500px;"">
                            <p style=""font-size:50px; font-weight:bold;""
                            >negative</p>
                            <div style=""width:240px; margin: auto;"">
                                <img src=""images/R_L_U_12_darkshift.png"" style= ""width:200px""alt=""img"">
                            </div>
                        </div>","-56","","0","images/R_L_U_12_darkshift.png","","","","negative","1","R","L","U","darkshift","",""
"","","","","","html-slider-response","106","417007","0.0-100.0","cqzj7k5b77","3","NaN","<div style=""width:500px;"">
                            <p style=""font-size:50px; font-weight:bold;""
                            >negative</p>
                            <div style=""width:240px; margin: auto;"">
                                <img src=""images/Y_L_U_2_lightshift.png"" style= ""width:200px""alt=""img"">
                            </div>
                        </div>","17","","0","images/Y_L_U_2_lightshift.png","","","","negative","2","Y","L","U","lightshift","",""
"","","","","","html-slider-response","107","419054","0.0-101.0","cqzj7k5b77","3","NaN","<div style=""width:500px;"">
                            <p style=""font-size:50px; font-weight:bold;""
                            >negative</p>
                            <div style=""width:240px; margin: auto;"">
                                <img src=""images/Y_D_U_7_darkshift.png"" style= ""width:200px""alt=""img"">
                            </div>
                        </div>","180","","0","images/Y_D_U_7_darkshift.png","","","","negative","1","Y","D","U","darkshift","",""
"","","","","","html-slider-response","108","421307","0.0-102.0","cqzj7k5b77","3","NaN","<div style=""width:500px;"">
                            <p style=""font-size:50px; font-weight:bold;""
                            >negative</p>
                            <div style=""width:240px; margin: auto;"">
                                <img src=""images/B_L_S_30_darkshift.png"" style= ""width:200px""alt=""img"">
                            </div>
                        </div>","-42","","0","images/B_L_S_30_darkshift.png","","","","negative","2","B","L","S","darkshift","",""
"","","","","","html-slider-response","109","423057","0.0-103.0","cqzj7k5b77","3","NaN","<div style=""width:500px;"">
                            <p style=""font-size:50px; font-weight:bold;""
                            >negative</p>
                            <div style=""width:240px; margin: auto;"">
                                <img src=""images/R_D_U_15_darkshift.png"" style= ""width:200px""alt=""img"">
                            </div>
                        </div>","69","","0","images/R_D_U_15_darkshift.png","","","","negative","1","R","D","U","darkshift","",""
"","","","","","html-slider-response","110","424856","0.0-104.0","cqzj7k5b77","3","NaN","<div style=""width:500px;"">
                            <p style=""font-size:50px; font-weight:bold;""
                            >negative</p>
                            <div style=""width:240px; margin: auto;"">
                                <img src=""images/B_D_S_37_darkshift.png"" style= ""width:200px""alt=""img"">
                            </div>
                        </div>","25","","0","images/B_D_S_37_darkshift.png","","","","negative","2","B","D","S","darkshift","",""
"","","","","","html-slider-response","111","426857","0.0-105.0","cqzj7k5b77","3","NaN","<div style=""width:500px;"">
                            <p style=""font-size:50px; font-weight:bold;""
                            >negative</p>
                            <div style=""width:240px; margin: auto;"">
                                <img src=""images/B_L_U_33_lightshift.png"" style= ""width:200px""alt=""img"">
                            </div>
                        </div>","-182","","0","images/B_L_U_33_lightshift.png","","","","negative","1","B","L","U","lightshift","",""
"","","","","","html-slider-response","112","429122","0.0-106.0","cqzj7k5b77","3","NaN","<div style=""width:500px;"">
                            <p style=""font-size:50px; font-weight:bold;""
                            >negative</p>
                            <div style=""width:240px; margin: auto;"">
                                <img src=""images/Y_D_U_7_lightshift.png"" style= ""width:200px""alt=""img"">
                            </div>
                        </div>","150","","0","images/Y_D_U_7_lightshift.png","","","","negative","2","Y","D","U","lightshift","",""
"","","","","","html-slider-response","113","433627","0.0-107.0","cqzj7k5b77","3","NaN","<div style=""width:500px;"">
                            <p style=""font-size:50px; font-weight:bold;""
                            >negative</p>
                            <div style=""width:240px; margin: auto;"">
                                <img src=""images/G_L_U_26_lightshift.png"" style= ""width:200px""alt=""img"">
                            </div>
                        </div>","-89","","0","images/G_L_U_26_lightshift.png","","","","negative","1","G","L","U","lightshift","",""
"","","","","","html-slider-response","114","435656","0.0-108.0","cqzj7k5b77","3","NaN","<div style=""width:500px;"">
                            <p style=""font-size:50px; font-weight:bold;""
                            >negative</p>
                            <div style=""width:240px; margin: auto;"">
                                <img src=""images/B_D_S_37_darkshift.png"" style= ""width:200px""alt=""img"">
                            </div>
                        </div>","14","","0","images/B_D_S_37_darkshift.png","","","","negative","1","B","D","S","darkshift","",""
"","","","","","html-slider-response","115","437659","0.0-109.0","cqzj7k5b77","3","NaN","<div style=""width:500px;"">
                            <p style=""font-size:50px; font-weight:bold;""
                            >negative</p>
                            <div style=""width:240px; margin: auto;"">
                                <img src=""images/R_L_S_10_lightshift.png"" style= ""width:200px""alt=""img"">
                            </div>
                        </div>","-29","","0","images/R_L_S_10_lightshift.png","","","","negative","1","R","L","S","lightshift","",""
"","","","","","html-slider-response","116","439421","0.0-110.0","cqzj7k5b77","3","NaN","<div style=""width:500px;"">
                            <p style=""font-size:50px; font-weight:bold;""
                            >negative</p>
                            <div style=""width:240px; margin: auto;"">
                                <img src=""images/B_L_U_33_darkshift.png"" style= ""width:200px""alt=""img"">
                            </div>
                        </div>","-52","","0","images/B_L_U_33_darkshift.png","","","","negative","2","B","L","U","darkshift","",""
"","","","","","html-slider-response","117","440938","0.0-111.0","cqzj7k5b77","3","NaN","<div style=""width:500px;"">
                            <p style=""font-size:50px; font-weight:bold;""
                            >negative</p>
                            <div style=""width:240px; margin: auto;"">
                                <img src=""images/B_L_S_30_lightshift.png"" style= ""width:200px""alt=""img"">
                            </div>
                        </div>","-123","","0","images/B_L_S_30_lightshift.png","","","","negative","2","B","L","S","lightshift","",""
"","","","","","html-slider-response","118","442877","0.0-112.0","cqzj7k5b77","3","NaN","<div style=""width:500px;"">
                            <p style=""font-size:50px; font-weight:bold;""
                            >negative</p>
                            <div style=""width:240px; margin: auto;"">
                                <img src=""images/G_D_S_27_lightshift.png"" style= ""width:200px""alt=""img"">
                            </div>
                        </div>","13","","0","images/G_D_S_27_lightshift.png","","","","negative","1","G","D","S","lightshift","",""
"","","","","","html-slider-response","119","444637","0.0-113.0","cqzj7k5b77","3","NaN","<div style=""width:500px;"">
                            <p style=""font-size:50px; font-weight:bold;""
                            >negative</p>
                            <div style=""width:240px; margin: auto;"">
                                <img src=""images/R_L_S_10_darkshift.png"" style= ""width:200px""alt=""img"">
                            </div>
                        </div>","-42","","0","images/R_L_S_10_darkshift.png","","","","negative","2","R","L","S","darkshift","",""
"","","","","","html-slider-response","120","446826","0.0-114.0","cqzj7k5b77","3","NaN","<div style=""width:500px;"">
                            <p style=""font-size:50px; font-weight:bold;""
                            >negative</p>
                            <div style=""width:240px; margin: auto;"">
                                <img src=""images/Y_D_S_5_darkshift.png"" style= ""width:200px""alt=""img"">
                            </div>
                        </div>","146","","0","images/Y_D_S_5_darkshift.png","","","","negative","2","Y","D","S","darkshift","",""
"","","","","","html-slider-response","121","449333","0.0-115.0","cqzj7k5b77","3","NaN","<div style=""width:500px;"">
                            <p style=""font-size:50px; font-weight:bold;""
                            >negative</p>
                            <div style=""width:240px; margin: auto;"">
                                <img src=""images/G_D_U_28_lightshift.png"" style= ""width:200px""alt=""img"">
                            </div>
                        </div>","14","","0","images/G_D_U_28_lightshift.png","","","","negative","2","G","D","U","lightshift","",""
"","","","","","html-slider-response","122","451512","0.0-116.0","cqzj7k5b77","3","NaN","<div style=""width:500px;"">
                            <p style=""font-size:50px; font-weight:bold;""
                            >negative</p>
                            <div style=""width:240px; margin: auto;"">
                                <img src=""images/B_D_U_41_darkshift.png"" style= ""width:200px""alt=""img"">
                            </div>
                        </div>","162","","0","images/B_D_U_41_darkshift.png","","","","negative","2","B","D","U","darkshift","",""
"","","","","","html-slider-response","123","453340","0.0-117.0","cqzj7k5b77","3","NaN","<div style=""width:500px;"">
                            <p style=""font-size:50px; font-weight:bold;""
                            >negative</p>
                            <div style=""width:240px; margin: auto;"">
                                <img src=""images/Y_L_U_2_darkshift.png"" style= ""width:200px""alt=""img"">
                            </div>
                        </div>","20","","0","images/Y_L_U_2_darkshift.png","","","","negative","2","Y","L","U","darkshift","",""
"","","","","","html-slider-response","124","455142","0.0-118.0","cqzj7k5b77","3","NaN","<div style=""width:500px;"">
                            <p style=""font-size:50px; font-weight:bold;""
                            >negative</p>
                            <div style=""width:240px; margin: auto;"">
                                <img src=""images/G_D_S_27_lightshift.png"" style= ""width:200px""alt=""img"">
                            </div>
                        </div>","72","","0","images/G_D_S_27_lightshift.png","","","","negative","2","G","D","S","lightshift","",""
"","","","","","html-slider-response","125","457408","0.0-119.0","cqzj7k5b77","3","NaN","<div style=""width:500px;"">
                            <p style=""font-size:50px; font-weight:bold;""
                            >negative</p>
                            <div style=""width:240px; margin: auto;"">
                                <img src=""images/G_L_S_23_darkshift.png"" style= ""width:200px""alt=""img"">
                            </div>
                        </div>","-23","","0","images/G_L_S_23_darkshift.png","","","","negative","1","G","L","S","darkshift","",""
"","","","","","html-slider-response","126","459224","0.0-120.0","cqzj7k5b77","3","NaN","<div style=""width:500px;"">
                            <p style=""font-size:50px; font-weight:bold;""
                            >negative</p>
                            <div style=""width:240px; margin: auto;"">
                                <img src=""images/R_D_S_13_darkshift.png"" style= ""width:200px""alt=""img"">
                            </div>
                        </div>","51","","0","images/R_D_S_13_darkshift.png","","","","negative","2","R","D","S","darkshift","",""
"","","","","","html-slider-response","127","461010","0.0-121.0","cqzj7k5b77","3","NaN","<div style=""width:500px;"">
                            <p style=""font-size:50px; font-weight:bold;""
                            >negative</p>
                            <div style=""width:240px; margin: auto;"">
                                <img src=""images/B_D_U_41_lightshift.png"" style= ""width:200px""alt=""img"">
                            </div>
                        </div>","-131","","0","images/B_D_U_41_lightshift.png","","","","negative","1","B","D","U","lightshift","",""
"","","","","","html-slider-response","128","463245","0.0-122.0","cqzj7k5b77","3","NaN","<div style=""width:500px;"">
                            <p style=""font-size:50px; font-weight:bold;""
                            >negative</p>
                            <div style=""width:240px; margin: auto;"">
                                <img src=""images/G_L_S_23_darkshift.png"" style= ""width:200px""alt=""img"">
                            </div>
                        </div>","18","","0","images/G_L_S_23_darkshift.png","","","","negative","2","G","L","S","darkshift","",""
"","","","","","html-slider-response","129","465951","0.0-123.0","cqzj7k5b77","3","NaN","<div style=""width:500px;"">
                            <p style=""font-size:50px; font-weight:bold;""
                            >negative</p>
                            <div style=""width:240px; margin: auto;"">
                                <img src=""images/Y_D_U_7_darkshift.png"" style= ""width:200px""alt=""img"">
                            </div>
                        </div>","174","","0","images/Y_D_U_7_darkshift.png","","","","negative","2","Y","D","U","darkshift","",""
"","","","","","html-slider-response","130","468208","0.0-124.0","cqzj7k5b77","3","NaN","<div style=""width:500px;"">
                            <p style=""font-size:50px; font-weight:bold;""
                            >negative</p>
                            <div style=""width:240px; margin: auto;"">
                                <img src=""images/B_L_S_30_darkshift.png"" style= ""width:200px""alt=""img"">
                            </div>
                        </div>","-30","","0","images/B_L_S_30_darkshift.png","","","","negative","1","B","L","S","darkshift","",""
"","","","","","html-slider-response","131","470411","0.0-125.0","cqzj7k5b77","3","NaN","<div style=""width:500px;"">
                            <p style=""font-size:50px; font-weight:bold;""
                            >negative</p>
                            <div style=""width:240px; margin: auto;"">
                                <img src=""images/Y_L_S_44_darkshift.png"" style= ""width:200px""alt=""img"">
                            </div>
                        </div>","-35","","0","images/Y_L_S_44_darkshift.png","","","","negative","2","Y","L","S","darkshift","",""
"","","","","","html-slider-response","132","472084","0.0-126.0","cqzj7k5b77","3","NaN","<div style=""width:500px;"">
                            <p style=""font-size:50px; font-weight:bold;""
                            >negative</p>
                            <div style=""width:240px; margin: auto;"">
                                <img src=""images/B_D_U_41_lightshift.png"" style= ""width:200px""alt=""img"">
                            </div>
                        </div>","-73","","0","images/B_D_U_41_lightshift.png","","","","negative","2","B","D","U","lightshift","",""
"","","","","","html-slider-response","133","474426","0.0-127.0","cqzj7k5b77","3","NaN","<div style=""width:500px;"">
                            <p style=""font-size:50px; font-weight:bold;""
                            >negative</p>
                            <div style=""width:240px; margin: auto;"">
                                <img src=""images/B_L_U_33_lightshift.png"" style= ""width:200px""alt=""img"">
                            </div>
                        </div>","-150","","0","images/B_L_U_33_lightshift.png","","","","negative","2","B","L","U","lightshift","",""
"","","","","","html-slider-response","134","477428","0.0-128.0","cqzj7k5b77","3","NaN","<div style=""width:500px;"">
                            <p style=""font-size:50px; font-weight:bold;""
                            >negative</p>
                            <div style=""width:240px; margin: auto;"">
                                <img src=""images/Y_L_S_44_lightshift.png"" style= ""width:200px""alt=""img"">
                            </div>
                        </div>","17","","0","images/Y_L_S_44_lightshift.png","","","","negative","2","Y","L","S","lightshift","",""
"","","","","","html-slider-response","135","479822","0.0-129.0","cqzj7k5b77","3","NaN","<div style=""width:500px;"">
                            <p style=""font-size:50px; font-weight:bold;""
                            >negative</p>
                            <div style=""width:240px; margin: auto;"">
                                <img src=""images/B_L_U_33_darkshift.png"" style= ""width:200px""alt=""img"">
                            </div>
                        </div>","-131","","0","images/B_L_U_33_darkshift.png","","","","negative","1","B","L","U","darkshift","",""
"","","","","","html-slider-response","136","482280","0.0-130.0","cqzj7k5b77","3","NaN","<div style=""width:500px;"">
                            <p style=""font-size:50px; font-weight:bold;""
                            >negative</p>
                            <div style=""width:240px; margin: auto;"">
                                <img src=""images/G_L_U_26_lightshift.png"" style= ""width:200px""alt=""img"">
                            </div>
                        </div>","-153","","0","images/G_L_U_26_lightshift.png","","","","negative","2","G","L","U","lightshift","",""
"","","","","","html-slider-response","137","484278","0.0-131.0","cqzj7k5b77","3","NaN","<div style=""width:500px;"">
                            <p style=""font-size:50px; font-weight:bold;""
                            >negative</p>
                            <div style=""width:240px; margin: auto;"">
                                <img src=""images/R_D_U_15_darkshift.png"" style= ""width:200px""alt=""img"">
                            </div>
                        </div>","109","","0","images/R_D_U_15_darkshift.png","","","","negative","2","R","D","U","darkshift","",""
"","","","","","html-slider-response","138","486623","0.0-132.0","cqzj7k5b77","3","NaN","<div style=""width:500px;"">
                            <p style=""font-size:50px; font-weight:bold;""
                            >negative</p>
                            <div style=""width:240px; margin: auto;"">
                                <img src=""images/B_D_S_37_lightshift.png"" style= ""width:200px""alt=""img"">
                            </div>
                        </div>","-14","","0","images/B_D_S_37_lightshift.png","","","","negative","2","B","D","S","lightshift","",""
"","","","","","html-slider-response","139","489321","0.0-133.0","cqzj7k5b77","3","NaN","<div style=""width:500px;"">
                            <p style=""font-size:50px; font-weight:bold;""
                            >negative</p>
                            <div style=""width:240px; margin: auto;"">
                                <img src=""images/Y_L_U_2_lightshift.png"" style= ""width:200px""alt=""img"">
                            </div>
                        </div>","-26","","0","images/Y_L_U_2_lightshift.png","","","","negative","1","Y","L","U","lightshift","",""
"","","","","","html-slider-response","140","492184","0.0-134.0","cqzj7k5b77","3","NaN","<div style=""width:500px;"">
                            <p style=""font-size:50px; font-weight:bold;""
                            >negative</p>
                            <div style=""width:240px; margin: auto;"">
                                <img src=""images/Y_D_S_5_darkshift.png"" style= ""width:200px""alt=""img"">
                            </div>
                        </div>","182","","0","images/Y_D_S_5_darkshift.png","","","","negative","1","Y","D","S","darkshift","",""
"","","","","","html-slider-response","141","494688","0.0-135.0","cqzj7k5b77","3","NaN","<div style=""width:500px;"">
                            <p style=""font-size:50px; font-weight:bold;""
                            >negative</p>
                            <div style=""width:240px; margin: auto;"">
                                <img src=""images/R_L_S_10_lightshift.png"" style= ""width:200px""alt=""img"">
                            </div>
                        </div>","-55","","0","images/R_L_S_10_lightshift.png","","","","negative","2","R","L","S","lightshift","",""
"","","","","","html-slider-response","142","497139","0.0-136.0","cqzj7k5b77","3","NaN","<div style=""width:500px;"">
                            <p style=""font-size:50px; font-weight:bold;""
                            >negative</p>
                            <div style=""width:240px; margin: auto;"">
                                <img src=""images/R_L_U_12_darkshift.png"" style= ""width:200px""alt=""img"">
                            </div>
                        </div>","15","","0","images/R_L_U_12_darkshift.png","","","","negative","2","R","L","U","darkshift","",""
"","","","","","html-slider-response","143","499572","0.0-137.0","cqzj7k5b77","3","NaN","<div style=""width:500px;"">
                            <p style=""font-size:50px; font-weight:bold;""
                            >negative</p>
                            <div style=""width:240px; margin: auto;"">
                                <img src=""images/R_L_S_10_darkshift.png"" style= ""width:200px""alt=""img"">
                            </div>
                        </div>","-24","","0","images/R_L_S_10_darkshift.png","","","","negative","1","R","L","S","darkshift","",""
"","","","","","html-slider-response","144","501473","0.0-138.0","cqzj7k5b77","3","NaN","<div style=""width:500px;"">
                            <p style=""font-size:50px; font-weight:bold;""
                            >negative</p>
                            <div style=""width:240px; margin: auto;"">
                                <img src=""images/Y_D_U_7_lightshift.png"" style= ""width:200px""alt=""img"">
                            </div>
                        </div>","198","","0","images/Y_D_U_7_lightshift.png","","","","negative","1","Y","D","U","lightshift","",""
"","","","","","html-slider-response","145","503456","0.0-139.0","cqzj7k5b77","3","NaN","<div style=""width:500px;"">
                            <p style=""font-size:50px; font-weight:bold;""
                            >negative</p>
                            <div style=""width:240px; margin: auto;"">
                                <img src=""images/Y_L_U_2_darkshift.png"" style= ""width:200px""alt=""img"">
                            </div>
                        </div>","17","","0","images/Y_L_U_2_darkshift.png","","","","negative","1","Y","L","U","darkshift","",""
"","","","","","html-slider-response","146","505345","0.0-140.0","cqzj7k5b77","3","NaN","<div style=""width:500px;"">
                            <p style=""font-size:50px; font-weight:bold;""
                            >negative</p>
                            <div style=""width:240px; margin: auto;"">
                                <img src=""images/G_L_U_26_darkshift.png"" style= ""width:200px""alt=""img"">
                            </div>
                        </div>","-38","","0","images/G_L_U_26_darkshift.png","","","","negative","2","G","L","U","darkshift","",""
"","","","","","html-slider-response","147","507073","0.0-141.0","cqzj7k5b77","3","NaN","<div style=""width:500px;"">
                            <p style=""font-size:50px; font-weight:bold;""
                            >negative</p>
                            <div style=""width:240px; margin: auto;"">
                                <img src=""images/R_L_U_12_lightshift.png"" style= ""width:200px""alt=""img"">
                            </div>
                        </div>","-70","","0","images/R_L_U_12_lightshift.png","","","","negative","2","R","L","U","lightshift","",""
"","","","","","html-slider-response","148","509022","0.0-142.0","cqzj7k5b77","3","NaN","<div style=""width:500px;"">
                            <p style=""font-size:50px; font-weight:bold;""
                            >negative</p>
                            <div style=""width:240px; margin: auto;"">
                                <img src=""images/R_D_S_13_lightshift.png"" style= ""width:200px""alt=""img"">
                            </div>
                        </div>","-9","","0","images/R_D_S_13_lightshift.png","","","","negative","1","R","D","S","lightshift","",""
"","","","","","html-slider-response","149","510724","0.0-143.0","cqzj7k5b77","3","NaN","<div style=""width:500px;"">
                            <p style=""font-size:50px; font-weight:bold;""
                            >negative</p>
                            <div style=""width:240px; margin: auto;"">
                                <img src=""images/Y_D_S_5_lightshift.png"" style= ""width:200px""alt=""img"">
                            </div>
                        </div>","164","","0","images/Y_D_S_5_lightshift.png","","","","negative","1","Y","D","S","lightshift","",""
"","","","","","html-button-response","150","512267","0.0-144.0","cqzj7k5b77","3","1042","<p>Great Job! You've finished block 2.<br></br> You have 2 block(s) left to go.<br></br></p>","0","","","","","","","","","","","","","",""
"","","","","","html-button-response","151","513217","0.0-145.0","cqzj7k5b77","3","949","<p>In this block of trials, you will be asked to rate how much you associate each map with:</p > <p style = 'font-size:150%; font-weight: bold'>calm</p><br></br>","0","","","","","","","","","","","","","",""
"","","","","","html-slider-response","152","516370","0.0-146.0","cqzj7k5b77","3","NaN","<div style=""width:500px;"">
                            <p style=""font-size:50px; font-weight:bold;""
                            >calm</p>
                            <div style=""width:240px; margin: auto;"">
                                <img src=""images/R_D_U_15_darkshift.png"" style= ""width:200px""alt=""img"">
                            </div>
                        </div>","-96","","0","images/R_D_U_15_darkshift.png","","","","calm","2","R","D","U","darkshift","",""
"","","","","","html-slider-response","153","519512","0.0-147.0","cqzj7k5b77","3","NaN","<div style=""width:500px;"">
                            <p style=""font-size:50px; font-weight:bold;""
                            >calm</p>
                            <div style=""width:240px; margin: auto;"">
                                <img src=""images/G_L_U_26_darkshift.png"" style= ""width:200px""alt=""img"">
                            </div>
                        </div>","158","","0","images/G_L_U_26_darkshift.png","","","","calm","1","G","L","U","darkshift","",""
"","","","","","html-slider-response","154","522216","0.0-148.0","cqzj7k5b77","3","NaN","<div style=""width:500px;"">
                            <p style=""font-size:50px; font-weight:bold;""
                            >calm</p>
                            <div style=""width:240px; margin: auto;"">
                                <img src=""images/R_D_S_13_lightshift.png"" style= ""width:200px""alt=""img"">
                            </div>
                        </div>","59","","0","images/R_D_S_13_lightshift.png","","","","calm","2","R","D","S","lightshift","",""
"","","","","","html-slider-response","155","524533","0.0-149.0","cqzj7k5b77","3","NaN","<div style=""width:500px;"">
                            <p style=""font-size:50px; font-weight:bold;""
                            >calm</p>
                            <div style=""width:240px; margin: auto;"">
                                <img src=""images/R_D_S_13_darkshift.png"" style= ""width:200px""alt=""img"">
                            </div>
                        </div>","-69","","0","images/R_D_S_13_darkshift.png","","","","calm","2","R","D","S","darkshift","",""
"","","","","","html-slider-response","156","526619","0.0-150.0","cqzj7k5b77","3","NaN","<div style=""width:500px;"">
                            <p style=""font-size:50px; font-weight:bold;""
                            >calm</p>
                            <div style=""width:240px; margin: auto;"">
                                <img src=""images/Y_D_U_7_darkshift.png"" style= ""width:200px""alt=""img"">
                            </div>
                        </div>","-145","","0","images/Y_D_U_7_darkshift.png","","","","calm","2","Y","D","U","darkshift","",""
"","","","","","html-slider-response","157","529357","0.0-151.0","cqzj7k5b77","3","NaN","<div style=""width:500px;"">
                            <p style=""font-size:50px; font-weight:bold;""
                            >calm</p>
                            <div style=""width:240px; margin: auto;"">
                                <img src=""images/Y_L_U_2_darkshift.png"" style= ""width:200px""alt=""img"">
                            </div>
                        </div>","-13","","0","images/Y_L_U_2_darkshift.png","","","","calm","2","Y","L","U","darkshift","",""
"","","","","","html-slider-response","158","531505","0.0-152.0","cqzj7k5b77","3","NaN","<div style=""width:500px;"">
                            <p style=""font-size:50px; font-weight:bold;""
                            >calm</p>
                            <div style=""width:240px; margin: auto;"">
                                <img src=""images/B_L_S_30_lightshift.png"" style= ""width:200px""alt=""img"">
                            </div>
                        </div>","179","","0","images/B_L_S_30_lightshift.png","","","","calm","2","B","L","S","lightshift","",""
"","","","","","html-slider-response","159","533937","0.0-153.0","cqzj7k5b77","3","NaN","<div style=""width:500px;"">
                            <p style=""font-size:50px; font-weight:bold;""
                            >calm</p>
                            <div style=""width:240px; margin: auto;"">
                                <img src=""images/Y_L_U_2_darkshift.png"" style= ""width:200px""alt=""img"">
                            </div>
                        </div>","-78","","0","images/Y_L_U_2_darkshift.png","","","","calm","1","Y","L","U","darkshift","",""
"","","","","","html-slider-response","160","536385","0.0-154.0","cqzj7k5b77","3","NaN","<div style=""width:500px;"">
                            <p style=""font-size:50px; font-weight:bold;""
                            >calm</p>
                            <div style=""width:240px; margin: auto;"">
                                <img src=""images/G_L_S_23_lightshift.png"" style= ""width:200px""alt=""img"">
                            </div>
                        </div>","166","","0","images/G_L_S_23_lightshift.png","","","","calm","2","G","L","S","lightshift","",""
"","","","","","html-slider-response","161","538936","0.0-155.0","cqzj7k5b77","3","NaN","<div style=""width:500px;"">
                            <p style=""font-size:50px; font-weight:bold;""
                            >calm</p>
                            <div style=""width:240px; margin: auto;"">
                                <img src=""images/Y_L_S_44_darkshift.png"" style= ""width:200px""alt=""img"">
                            </div>
                        </div>","-74","","0","images/Y_L_S_44_darkshift.png","","","","calm","1","Y","L","S","darkshift","",""
"","","","","","html-slider-response","162","540955","0.0-156.0","cqzj7k5b77","3","NaN","<div style=""width:500px;"">
                            <p style=""font-size:50px; font-weight:bold;""
                            >calm</p>
                            <div style=""width:240px; margin: auto;"">
                                <img src=""images/G_D_U_28_lightshift.png"" style= ""width:200px""alt=""img"">
                            </div>
                        </div>","41","","0","images/G_D_U_28_lightshift.png","","","","calm","2","G","D","U","lightshift","",""
"","","","","","html-slider-response","163","543470","0.0-157.0","cqzj7k5b77","3","NaN","<div style=""width:500px;"">
                            <p style=""font-size:50px; font-weight:bold;""
                            >calm</p>
                            <div style=""width:240px; margin: auto;"">
                                <img src=""images/B_D_U_41_darkshift.png"" style= ""width:200px""alt=""img"">
                            </div>
                        </div>","157","","0","images/B_D_U_41_darkshift.png","","","","calm","1","B","D","U","darkshift","",""
"","","","","","html-slider-response","164","545554","0.0-158.0","cqzj7k5b77","3","NaN","<div style=""width:500px;"">
                            <p style=""font-size:50px; font-weight:bold;""
                            >calm</p>
                            <div style=""width:240px; margin: auto;"">
                                <img src=""images/R_D_S_13_darkshift.png"" style= ""width:200px""alt=""img"">
                            </div>
                        </div>","-146","","0","images/R_D_S_13_darkshift.png","","","","calm","1","R","D","S","darkshift","",""
"","","","","","html-slider-response","165","548460","0.0-159.0","cqzj7k5b77","3","NaN","<div style=""width:500px;"">
                            <p style=""font-size:50px; font-weight:bold;""
                            >calm</p>
                            <div style=""width:240px; margin: auto;"">
                                <img src=""images/R_L_U_12_lightshift.png"" style= ""width:200px""alt=""img"">
                            </div>
                        </div>","-21","","0","images/R_L_U_12_lightshift.png","","","","calm","1","R","L","U","lightshift","",""
"","","","","","html-slider-response","166","550404","0.0-160.0","cqzj7k5b77","3","NaN","<div style=""width:500px;"">
                            <p style=""font-size:50px; font-weight:bold;""
                            >calm</p>
                            <div style=""width:240px; margin: auto;"">
                                <img src=""images/G_D_S_27_lightshift.png"" style= ""width:200px""alt=""img"">
                            </div>
                        </div>","126","","0","images/G_D_S_27_lightshift.png","","","","calm","1","G","D","S","lightshift","",""
"","","","","","html-slider-response","167","552149","0.0-161.0","cqzj7k5b77","3","NaN","<div style=""width:500px;"">
                            <p style=""font-size:50px; font-weight:bold;""
                            >calm</p>
                            <div style=""width:240px; margin: auto;"">
                                <img src=""images/B_L_S_30_darkshift.png"" style= ""width:200px""alt=""img"">
                            </div>
                        </div>","200","","0","images/B_L_S_30_darkshift.png","","","","calm","1","B","L","S","darkshift","",""
"","","","","","html-slider-response","168","554190","0.0-162.0","cqzj7k5b77","3","NaN","<div style=""width:500px;"">
                            <p style=""font-size:50px; font-weight:bold;""
                            >calm</p>
                            <div style=""width:240px; margin: auto;"">
                                <img src=""images/Y_D_S_5_lightshift.png"" style= ""width:200px""alt=""img"">
                            </div>
                        </div>","-50","","0","images/Y_D_S_5_lightshift.png","","","","calm","2","Y","D","S","lightshift","",""
"","","","","","html-slider-response","169","556172","0.0-163.0","cqzj7k5b77","3","NaN","<div style=""width:500px;"">
                            <p style=""font-size:50px; font-weight:bold;""
                            >calm</p>
                            <div style=""width:240px; margin: auto;"">
                                <img src=""images/R_L_S_10_lightshift.png"" style= ""width:200px""alt=""img"">
                            </div>
                        </div>","-52","","0","images/R_L_S_10_lightshift.png","","","","calm","2","R","L","S","lightshift","",""
"","","","","","html-slider-response","170","558028","0.0-164.0","cqzj7k5b77","3","NaN","<div style=""width:500px;"">
                            <p style=""font-size:50px; font-weight:bold;""
                            >calm</p>
                            <div style=""width:240px; margin: auto;"">
                                <img src=""images/B_D_S_37_darkshift.png"" style= ""width:200px""alt=""img"">
                            </div>
                        </div>","179","","0","images/B_D_S_37_darkshift.png","","","","calm","2","B","D","S","darkshift","",""
"","","","","","html-slider-response","171","560003","0.0-165.0","cqzj7k5b77","3","NaN","<div style=""width:500px;"">
                            <p style=""font-size:50px; font-weight:bold;""
                            >calm</p>
                            <div style=""width:240px; margin: auto;"">
                                <img src=""images/Y_D_S_5_lightshift.png"" style= ""width:200px""alt=""img"">
                            </div>
                        </div>","-62","","0","images/Y_D_S_5_lightshift.png","","","","calm","1","Y","D","S","lightshift","",""
"","","","","","html-slider-response","172","561708","0.0-166.0","cqzj7k5b77","3","NaN","<div style=""width:500px;"">
                            <p style=""font-size:50px; font-weight:bold;""
                            >calm</p>
                            <div style=""width:240px; margin: auto;"">
                                <img src=""images/G_L_S_23_darkshift.png"" style= ""width:200px""alt=""img"">
                            </div>
                        </div>","141","","0","images/G_L_S_23_darkshift.png","","","","calm","1","G","L","S","darkshift","",""
"","","","","","html-slider-response","173","563524","0.0-167.0","cqzj7k5b77","3","NaN","<div style=""width:500px;"">
                            <p style=""font-size:50px; font-weight:bold;""
                            >calm</p>
                            <div style=""width:240px; margin: auto;"">
                                <img src=""images/B_D_U_41_darkshift.png"" style= ""width:200px""alt=""img"">
                            </div>
                        </div>","200","","0","images/B_D_U_41_darkshift.png","","","","calm","2","B","D","U","darkshift","",""
"","","","","","html-slider-response","174","566291","0.0-168.0","cqzj7k5b77","3","NaN","<div style=""width:500px;"">
