"success","timeout","failed_images","failed_audio","failed_video","trial_type","trial_index","time_elapsed","internal_node_id","subject_id","condition_num","rt","stimulus","response","question_order","slider_start","image_path","practiceTrial","practiceTrialNum","correct","concept","repetition","hue","lightness","saturation","shift","ishihara_plate","correct_response"
"true","false","[]","[]","[]","preload","0","681","0.0-0.0","ez6655c7c9","2","","","","","","","","","","","","","","","","",""
"","","","","","html-button-response","1","6741","0.0-1.0","ez6655c7c9","2","6057","Welcome to our experiment!<p>At the bottom of this screen, you will see a button that says ""Begin Experiment"".<br>Please only click that button when you are ready to complete the 25 minute experiment in one sitting.</p><p> Once you click that button, it will not be possible to restart the experiment.","0","","","","","","","","","","","","","",""
"true","","","","","fullscreen","2","9132","0.0-2.0","ez6655c7c9","2","1385","","","","","","","","","","","","","","","",""
"","","","","","survey-multi-select","3","47492","0.0-3.0","ez6655c7c9","2","38352","","{""Consent"":[""<strong>I consent</strong>""]}","[0]","","","","","","","","","","","","",""
"","","","","","html-button-response","4","50969","0.0-4.0","ez6655c7c9","2","3475","Welcome! <p> This experiment involves two parts: demographic information, followed by the experimental task.<p> It will take about 25 minutes to complete both parts.","0","","","","","","","","","","","","","",""
"","","","","","survey-text","5","66191","0.0-5.0","ez6655c7c9","2","15207","","{""Age"":""20"",""Gender"":""female"",""Race/ethnicity"":""white"",""Languages"":""english, french""}","","","","","","","","","","","","","",""
"","","","","","html-slider-response","6","118019","0.0-6.0","ez6655c7c9","2","51821","
                            <div style='text-align:left; font-size:20px; line-height:25px; width: 1400px;'>
                                During this experiment you will be asked to rate how much you associate maps with                    different concepts.<br> Below, you can see some examples of the maps you will be asked to rate. Next to the maps
                    is the list of concepts.<br>You will be asked                    to rate how much you associate each map with each concept on a scale from 'not at all' to 'very much' like the
                    one below. <br><br>
                    Now, please look at the list of concepts and maps. For each concept, think about the map you associate 'very
                    much' with the concept.<br>                     When you see that map during the experiment, please rate it near the 'very much' endpoint of the
                    scale.<br>Now, please think about which map you associate 'not at all'                     with each concept. When you see that map during the experiment, please rate it near the 'not at all' endpoint
                    of the scale.<br>
                    Please use the full range of the scale. That is, if a map is somewhat associated with the concept, you would
                    click partway between the middle point and right side of the scale.                    You will be asked to rate each map for a given concept before moving on to the next concept.<br><br>Press the
                    'Continue' button for instructions on how to use the slider.                    <br><br>
                </div>

                <div style=""width: 500px; margin: 0 auto;"">
                    <!-- Centered text paragraphs -->
                    <div style=""text-align: center; width: 500px;"">
                        <p style=""font-size:25px; line-height:18px;"">calm</p>
                        <p style=""font-size:25px; line-height:18px;"">positive</p>
                        <p style=""font-size:25px;line-height:18px;"">negative</p>
                        <p style=""font-size:25px;line-height:18px;"">startling</p>
                    </div>

                    <!-- Grid section -->
                   <div style=""display: flex; justify-content: center; padding-top: 15px;"">
                    <div style=""display: grid; grid-template-columns: repeat(8, 80px); grid-gap: 5px; width: auto;"">
                        <img src=""images/Y_L_U_44_lightshift.png"" alt=""map"" style=""width: 100%;""><img src=""images/G_L_S_15_darkshift.png"" alt=""map"" style=""width: 100%;""><img src=""images/R_L_S_7_darkshift.png"" alt=""map"" style=""width: 100%;""><img src=""images/Y_D_S_2_lightshift.png"" alt=""map"" style=""width: 100%;""><img src=""images/G_D_S_26_darkshift.png"" alt=""map"" style=""width: 100%;""><img src=""images/G_L_U_23_darkshift.png"" alt=""map"" style=""width: 100%;""><img src=""images/B_D_S_33_lightshift.png"" alt=""map"" style=""width: 100%;""><img src=""images/R_D_S_12_darkshift.png"" alt=""map"" style=""width: 100%;""><img src=""images/R_D_S_12_lightshift.png"" alt=""map"" style=""width: 100%;""><img src=""images/B_L_S_28_lightshift.png"" alt=""map"" style=""width: 100%;""><img src=""images/Y_L_S_41_lightshift.png"" alt=""map"" style=""width: 100%;""><img src=""images/G_D_U_27_darkshift.png"" alt=""map"" style=""width: 100%;""><img src=""images/G_L_U_23_lightshift.png"" alt=""map"" style=""width: 100%;""><img src=""images/B_D_U_37_lightshift.png"" alt=""map"" style=""width: 100%;""><img src=""images/Y_L_S_41_darkshift.png"" alt=""map"" style=""width: 100%;""><img src=""images/R_L_S_7_lightshift.png"" alt=""map"" style=""width: 100%;""><img src=""images/Y_D_U_5_lightshift.png"" alt=""map"" style=""width: 100%;""><img src=""images/R_D_U_13_lightshift.png"" alt=""map"" style=""width: 100%;""><img src=""images/Y_D_S_2_darkshift.png"" alt=""map"" style=""width: 100%;""><img src=""images/R_L_U_10_darkshift.png"" alt=""map"" style=""width: 100%;""><img src=""images/Y_D_U_5_darkshift.png"" alt=""map"" style=""width: 100%;""><img src=""images/B_L_U_30_darkshift.png"" alt=""map"" style=""width: 100%;""><img src=""images/R_L_U_10_lightshift.png"" alt=""map"" style=""width: 100%;""><img src=""images/G_D_U_27_lightshift.png"" alt=""map"" style=""width: 100%;""><img src=""images/Y_L_U_44_darkshift.png"" alt=""map"" style=""width: 100%;""><img src=""images/G_D_S_26_lightshift.png"" alt=""map"" style=""width: 100%;""><img src=""images/B_L_U_30_lightshift.png"" alt=""map"" style=""width: 100%;""><img src=""images/R_D_U_13_darkshift.png"" alt=""map"" style=""width: 100%;""><img src=""images/B_D_U_37_darkshift.png"" alt=""map"" style=""width: 100%;""><img src=""images/B_D_S_33_darkshift.png"" alt=""map"" style=""width: 100%;""><img src=""images/G_L_S_15_lightshift.png"" alt=""map"" style=""width: 100%;""><img src=""images/B_L_S_28_darkshift.png"" alt=""map"" style=""width: 100%;"">
                    </div>
                </div>

                    <!-- Clear floats -->
                    <div style=""clear: both;""></div>
                </div>
                            ","39","","0","maps_anchoring.png","true","","","","","","","","","",""
"","","","","","html-button-response","7","123403","0.0-7.0","ez6655c7c9","2","5382","<div style=""width:800px;""><p style=""text-align:left"">To move the slider, click and drag your cursor to the location of the scale where you would like to make your rating and then let go. When you let go of the slider, your response will be recorded and the next trial will begin. <br>
                    We are interested in your initial impressions of each map for the given concept, so please go with your first intuition. <br>
                    Before you begin the experiment, there will be four training trials for you to practice using the scale. <br>
                     When you are ready to start the training trials, please click ""Continue"".</p><br></div>","0","","","","","","","","","","","","","",""
"","","","","","html-slider-response","8","127377","0.0-8.0-0.0","ez6655c7c9","2","NaN","<div style=""width:500px;"">
                                    <p style=""font-size:25px;"">Please move the slider all the way to the <br> right endpoint of the scale</p>

                                    </div>
                                </div>","200","","0","","true","0","true","","","","","","","",""
"","","","","","html-button-response","9","128893","0.0-8.0-1.0","ez6655c7c9","2","1012","<p align='center'><b>Good job!</b> Click on 'Continue' to proceed.</p>","0","","","","","","","","","","","","","",""
"","","","","","html-slider-response","10","130802","0.0-9.0-0.0","ez6655c7c9","2","NaN","<div style=""width:500px;"">
                                    <p style=""font-size:25px;"">Please move the slider all the way to the <br> left endpoint of the scale</p>

                                    </div>
                                </div>","-194","","0","","true","1","true","","","","","","","",""
"","","","","","html-button-response","11","131904","0.0-9.0-1.0","ez6655c7c9","2","598","<p align='center'><b>Good job!</b> Click on 'Continue' to proceed.</p>","0","","","","","","","","","","","","","",""
"","","","","","html-slider-response","12","135323","0.0-10.0-0.0","ez6655c7c9","2","NaN","<div style=""width:500px;"">
                                    <p style=""font-size:25px;"">Please move the slider halfway between the center and right endpoint of the scale</p>

                                    </div>
                                </div>","105","","0","","true","2","true","","","","","","","",""
"","","","","","html-button-response","13","136418","0.0-10.0-1.0","ez6655c7c9","2","593","<p align='center'><b>Good job!</b> Click on 'Continue' to proceed.</p>","0","","","","","","","","","","","","","",""
"","","","","","html-slider-response","14","137632","0.0-11.0-0.0","ez6655c7c9","2","NaN","<div style=""width:500px;"">
                                    <p style=""font-size:25px;"">Please move the slider halfway between the center and left endpoint of the scale</p>

                                    </div>
                                </div>","-102","","0","","true","3","true","","","","","","","",""
"","","","","","html-button-response","15","138670","0.0-11.0-1.0","ez6655c7c9","2","535","<p align='center'><b>Good job!</b> Click on 'Continue' to proceed.</p>","0","","","","","","","","","","","","","",""
"","","","","","html-button-response","16","140139","0.0-12.0","ez6655c7c9","2","1467","<p>Great job! You've completed the practice trials. Now you will begin the main task.</p>","0","","","","","","","","","","","","","",""
"","","","","","html-button-response","17","142521","0.0-13.0","ez6655c7c9","2","2380","<p>In this block of trials, you will be asked to rate how much you associate each map with:</p > <p style = 'font-size:150%; font-weight: bold'>positive</p><br></br>","0","","","","","","","","","","","","","",""
"","","","","","html-slider-response","18","144792","0.0-14.0","ez6655c7c9","2","NaN","<div style=""width:500px;"">
                            <p style=""font-size:50px; font-weight:bold;""
                            >positive</p>
                            <div style=""width:240px; margin: auto;"">
                                <img src=""images/G_L_S_15_lightshift.png"" style= ""width:200px""alt=""img"">
                            </div>
                        </div>","-66","","0","images/G_L_S_15_lightshift.png","","","","positive","2","G","L","S","lightshift","",""
"","","","","","html-slider-response","19","147294","0.0-15.0","ez6655c7c9","2","NaN","<div style=""width:500px;"">
                            <p style=""font-size:50px; font-weight:bold;""
                            >positive</p>
                            <div style=""width:240px; margin: auto;"">
                                <img src=""images/Y_D_U_5_darkshift.png"" style= ""width:200px""alt=""img"">
                            </div>
                        </div>","-65","","0","images/Y_D_U_5_darkshift.png","","","","positive","2","Y","D","U","darkshift","",""
"","","","","","html-slider-response","20","149394","0.0-16.0","ez6655c7c9","2","NaN","<div style=""width:500px;"">
                            <p style=""font-size:50px; font-weight:bold;""
                            >positive</p>
                            <div style=""width:240px; margin: auto;"">
                                <img src=""images/Y_L_U_44_darkshift.png"" style= ""width:200px""alt=""img"">
                            </div>
                        </div>","76","","0","images/Y_L_U_44_darkshift.png","","","","positive","1","Y","L","U","darkshift","",""
"","","","","","html-slider-response","21","151306","0.0-17.0","ez6655c7c9","2","NaN","<div style=""width:500px;"">
                            <p style=""font-size:50px; font-weight:bold;""
                            >positive</p>
                            <div style=""width:240px; margin: auto;"">
                                <img src=""images/G_D_S_26_lightshift.png"" style= ""width:200px""alt=""img"">
                            </div>
                        </div>","95","","0","images/G_D_S_26_lightshift.png","","","","positive","2","G","D","S","lightshift","",""
"","","","","","html-slider-response","22","152817","0.0-18.0","ez6655c7c9","2","NaN","<div style=""width:500px;"">
                            <p style=""font-size:50px; font-weight:bold;""
                            >positive</p>
                            <div style=""width:240px; margin: auto;"">
                                <img src=""images/R_L_U_10_lightshift.png"" style= ""width:200px""alt=""img"">
                            </div>
                        </div>","95","","0","images/R_L_U_10_lightshift.png","","","","positive","2","R","L","U","lightshift","",""
"","","","","","html-slider-response","23","154656","0.0-19.0","ez6655c7c9","2","NaN","<div style=""width:500px;"">
                            <p style=""font-size:50px; font-weight:bold;""
                            >positive</p>
                            <div style=""width:240px; margin: auto;"">
                                <img src=""images/Y_D_U_5_lightshift.png"" style= ""width:200px""alt=""img"">
                            </div>
                        </div>","-48","","0","images/Y_D_U_5_lightshift.png","","","","positive","2","Y","D","U","lightshift","",""
"","","","","","html-slider-response","24","156312","0.0-20.0","ez6655c7c9","2","NaN","<div style=""width:500px;"">
                            <p style=""font-size:50px; font-weight:bold;""
                            >positive</p>
                            <div style=""width:240px; margin: auto;"">
                                <img src=""images/B_L_S_28_lightshift.png"" style= ""width:200px""alt=""img"">
                            </div>
                        </div>","42","","0","images/B_L_S_28_lightshift.png","","","","positive","1","B","L","S","lightshift","",""
"","","","","","html-slider-response","25","158557","0.0-21.0","ez6655c7c9","2","NaN","<div style=""width:500px;"">
                            <p style=""font-size:50px; font-weight:bold;""
                            >positive</p>
                            <div style=""width:240px; margin: auto;"">
                                <img src=""images/G_D_S_26_darkshift.png"" style= ""width:200px""alt=""img"">
                            </div>
                        </div>","-151","","0","images/G_D_S_26_darkshift.png","","","","positive","2","G","D","S","darkshift","",""
"","","","","","html-slider-response","26","160688","0.0-22.0","ez6655c7c9","2","NaN","<div style=""width:500px;"">
                            <p style=""font-size:50px; font-weight:bold;""
                            >positive</p>
                            <div style=""width:240px; margin: auto;"">
                                <img src=""images/Y_L_S_41_darkshift.png"" style= ""width:200px""alt=""img"">
                            </div>
                        </div>","48","","0","images/Y_L_S_41_darkshift.png","","","","positive","2","Y","L","S","darkshift","",""
"","","","","","html-slider-response","27","162480","0.0-23.0","ez6655c7c9","2","NaN","<div style=""width:500px;"">
                            <p style=""font-size:50px; font-weight:bold;""
                            >positive</p>
                            <div style=""width:240px; margin: auto;"">
                                <img src=""images/R_L_S_7_lightshift.png"" style= ""width:200px""alt=""img"">
                            </div>
                        </div>","101","","0","images/R_L_S_7_lightshift.png","","","","positive","1","R","L","S","lightshift","",""
"","","","","","html-slider-response","28","164088","0.0-24.0","ez6655c7c9","2","NaN","<div style=""width:500px;"">
                            <p style=""font-size:50px; font-weight:bold;""
                            >positive</p>
                            <div style=""width:240px; margin: auto;"">
                                <img src=""images/G_L_U_23_darkshift.png"" style= ""width:200px""alt=""img"">
                            </div>
                        </div>","138","","0","images/G_L_U_23_darkshift.png","","","","positive","1","G","L","U","darkshift","",""
"","","","","","html-slider-response","29","166953","0.0-25.0","ez6655c7c9","2","NaN","<div style=""width:500px;"">
                            <p style=""font-size:50px; font-weight:bold;""
                            >positive</p>
                            <div style=""width:240px; margin: auto;"">
                                <img src=""images/B_D_S_33_darkshift.png"" style= ""width:200px""alt=""img"">
                            </div>
                        </div>","1","","0","images/B_D_S_33_darkshift.png","","","","positive","1","B","D","S","darkshift","",""
"","","","","","html-slider-response","30","168590","0.0-26.0","ez6655c7c9","2","NaN","<div style=""width:500px;"">
                            <p style=""font-size:50px; font-weight:bold;""
                            >positive</p>
                            <div style=""width:240px; margin: auto;"">
                                <img src=""images/R_D_U_13_lightshift.png"" style= ""width:200px""alt=""img"">
                            </div>
                        </div>","71","","0","images/R_D_U_13_lightshift.png","","","","positive","2","R","D","U","lightshift","",""
"","","","","","html-slider-response","31","170578","0.0-27.0","ez6655c7c9","2","NaN","<div style=""width:500px;"">
                            <p style=""font-size:50px; font-weight:bold;""
                            >positive</p>
                            <div style=""width:240px; margin: auto;"">
                                <img src=""images/B_L_S_28_darkshift.png"" style= ""width:200px""alt=""img"">
                            </div>
                        </div>","58","","0","images/B_L_S_28_darkshift.png","","","","positive","1","B","L","S","darkshift","",""
"","","","","","html-slider-response","32","171934","0.0-28.0","ez6655c7c9","2","NaN","<div style=""width:500px;"">
                            <p style=""font-size:50px; font-weight:bold;""
                            >positive</p>
                            <div style=""width:240px; margin: auto;"">
                                <img src=""images/B_L_S_28_darkshift.png"" style= ""width:200px""alt=""img"">
                            </div>
                        </div>","97","","0","images/B_L_S_28_darkshift.png","","","","positive","2","B","L","S","darkshift","",""
"","","","","","html-slider-response","33","173378","0.0-29.0","ez6655c7c9","2","NaN","<div style=""width:500px;"">
                            <p style=""font-size:50px; font-weight:bold;""
                            >positive</p>
                            <div style=""width:240px; margin: auto;"">
                                <img src=""images/G_D_S_26_lightshift.png"" style= ""width:200px""alt=""img"">
                            </div>
                        </div>","126","","0","images/G_D_S_26_lightshift.png","","","","positive","1","G","D","S","lightshift","",""
"","","","","","html-slider-response","34","174719","0.0-30.0","ez6655c7c9","2","NaN","<div style=""width:500px;"">
                            <p style=""font-size:50px; font-weight:bold;""
                            >positive</p>
                            <div style=""width:240px; margin: auto;"">
                                <img src=""images/R_D_S_12_lightshift.png"" style= ""width:200px""alt=""img"">
                            </div>
                        </div>","122","","0","images/R_D_S_12_lightshift.png","","","","positive","1","R","D","S","lightshift","",""
"","","","","","html-slider-response","35","176842","0.0-31.0","ez6655c7c9","2","NaN","<div style=""width:500px;"">
                            <p style=""font-size:50px; font-weight:bold;""
                            >positive</p>
                            <div style=""width:240px; margin: auto;"">
                                <img src=""images/G_D_S_26_darkshift.png"" style= ""width:200px""alt=""img"">
                            </div>
                        </div>","-64","","0","images/G_D_S_26_darkshift.png","","","","positive","1","G","D","S","darkshift","",""
"","","","","","html-slider-response","36","178473","0.0-32.0","ez6655c7c9","2","NaN","<div style=""width:500px;"">
                            <p style=""font-size:50px; font-weight:bold;""
                            >positive</p>
                            <div style=""width:240px; margin: auto;"">
                                <img src=""images/Y_L_U_44_lightshift.png"" style= ""width:200px""alt=""img"">
                            </div>
                        </div>","136","","0","images/Y_L_U_44_lightshift.png","","","","positive","1","Y","L","U","lightshift","",""
"","","","","","html-slider-response","37","180087","0.0-33.0","ez6655c7c9","2","NaN","<div style=""width:500px;"">
                            <p style=""font-size:50px; font-weight:bold;""
                            >positive</p>
                            <div style=""width:240px; margin: auto;"">
                                <img src=""images/R_D_S_12_lightshift.png"" style= ""width:200px""alt=""img"">
                            </div>
                        </div>","112","","0","images/R_D_S_12_lightshift.png","","","","positive","2","R","D","S","lightshift","",""
"","","","","","html-slider-response","38","181904","0.0-34.0","ez6655c7c9","2","NaN","<div style=""width:500px;"">
                            <p style=""font-size:50px; font-weight:bold;""
                            >positive</p>
                            <div style=""width:240px; margin: auto;"">
                                <img src=""images/Y_L_U_44_darkshift.png"" style= ""width:200px""alt=""img"">
                            </div>
                        </div>","162","","0","images/Y_L_U_44_darkshift.png","","","","positive","2","Y","L","U","darkshift","",""
"","","","","","html-slider-response","39","184269","0.0-35.0","ez6655c7c9","2","NaN","<div style=""width:500px;"">
                            <p style=""font-size:50px; font-weight:bold;""
                            >positive</p>
                            <div style=""width:240px; margin: auto;"">
                                <img src=""images/B_L_U_30_lightshift.png"" style= ""width:200px""alt=""img"">
                            </div>
                        </div>","147","","0","images/B_L_U_30_lightshift.png","","","","positive","1","B","L","U","lightshift","",""
"","","","","","html-slider-response","40","185956","0.0-36.0","ez6655c7c9","2","NaN","<div style=""width:500px;"">
                            <p style=""font-size:50px; font-weight:bold;""
                            >positive</p>
                            <div style=""width:240px; margin: auto;"">
                                <img src=""images/Y_D_S_2_darkshift.png"" style= ""width:200px""alt=""img"">
                            </div>
                        </div>","-135","","0","images/Y_D_S_2_darkshift.png","","","","positive","1","Y","D","S","darkshift","",""
"","","","","","html-slider-response","41","187200","0.0-37.0","ez6655c7c9","2","NaN","<div style=""width:500px;"">
                            <p style=""font-size:50px; font-weight:bold;""
                            >positive</p>
                            <div style=""width:240px; margin: auto;"">
                                <img src=""images/G_D_U_27_darkshift.png"" style= ""width:200px""alt=""img"">
                            </div>
                        </div>","-135","","0","images/G_D_U_27_darkshift.png","","","","positive","1","G","D","U","darkshift","",""
"","","","","","html-slider-response","42","188992","0.0-38.0","ez6655c7c9","2","NaN","<div style=""width:500px;"">
                            <p style=""font-size:50px; font-weight:bold;""
                            >positive</p>
                            <div style=""width:240px; margin: auto;"">
                                <img src=""images/G_L_S_15_darkshift.png"" style= ""width:200px""alt=""img"">
                            </div>
                        </div>","-33","","0","images/G_L_S_15_darkshift.png","","","","positive","1","G","L","S","darkshift","",""
"","","","","","html-slider-response","43","190460","0.0-39.0","ez6655c7c9","2","NaN","<div style=""width:500px;"">
                            <p style=""font-size:50px; font-weight:bold;""
                            >positive</p>
                            <div style=""width:240px; margin: auto;"">
                                <img src=""images/R_L_U_10_darkshift.png"" style= ""width:200px""alt=""img"">
                            </div>
                        </div>","74","","0","images/R_L_U_10_darkshift.png","","","","positive","1","R","L","U","darkshift","",""
"","","","","","html-slider-response","44","192157","0.0-40.0","ez6655c7c9","2","NaN","<div style=""width:500px;"">
                            <p style=""font-size:50px; font-weight:bold;""
                            >positive</p>
                            <div style=""width:240px; margin: auto;"">
                                <img src=""images/G_D_U_27_lightshift.png"" style= ""width:200px""alt=""img"">
                            </div>
                        </div>","-57","","0","images/G_D_U_27_lightshift.png","","","","positive","1","G","D","U","lightshift","",""
"","","","","","html-slider-response","45","193974","0.0-41.0","ez6655c7c9","2","NaN","<div style=""width:500px;"">
                            <p style=""font-size:50px; font-weight:bold;""
                            >positive</p>
                            <div style=""width:240px; margin: auto;"">
                                <img src=""images/Y_D_S_2_lightshift.png"" style= ""width:200px""alt=""img"">
                            </div>
                        </div>","-49","","0","images/Y_D_S_2_lightshift.png","","","","positive","2","Y","D","S","lightshift","",""
"","","","","","html-slider-response","46","195563","0.0-42.0","ez6655c7c9","2","NaN","<div style=""width:500px;"">
                            <p style=""font-size:50px; font-weight:bold;""
                            >positive</p>
                            <div style=""width:240px; margin: auto;"">
                                <img src=""images/Y_D_U_5_lightshift.png"" style= ""width:200px""alt=""img"">
                            </div>
                        </div>","-69","","0","images/Y_D_U_5_lightshift.png","","","","positive","1","Y","D","U","lightshift","",""
"","","","","","html-slider-response","47","197437","0.0-43.0","ez6655c7c9","2","NaN","<div style=""width:500px;"">
                            <p style=""font-size:50px; font-weight:bold;""
                            >positive</p>
                            <div style=""width:240px; margin: auto;"">
                                <img src=""images/Y_D_U_5_darkshift.png"" style= ""width:200px""alt=""img"">
                            </div>
                        </div>","-155","","0","images/Y_D_U_5_darkshift.png","","","","positive","1","Y","D","U","darkshift","",""
"","","","","","html-slider-response","48","199074","0.0-44.0","ez6655c7c9","2","NaN","<div style=""width:500px;"">
                            <p style=""font-size:50px; font-weight:bold;""
                            >positive</p>
                            <div style=""width:240px; margin: auto;"">
                                <img src=""images/Y_D_S_2_darkshift.png"" style= ""width:200px""alt=""img"">
                            </div>
                        </div>","-187","","0","images/Y_D_S_2_darkshift.png","","","","positive","2","Y","D","S","darkshift","",""
"","","","","","html-slider-response","49","200803","0.0-45.0","ez6655c7c9","2","NaN","<div style=""width:500px;"">
                            <p style=""font-size:50px; font-weight:bold;""
                            >positive</p>
                            <div style=""width:240px; margin: auto;"">
                                <img src=""images/Y_L_S_41_lightshift.png"" style= ""width:200px""alt=""img"">
                            </div>
                        </div>","162","","0","images/Y_L_S_41_lightshift.png","","","","positive","1","Y","L","S","lightshift","",""
"","","","","","html-slider-response","50","202642","0.0-46.0","ez6655c7c9","2","NaN","<div style=""width:500px;"">
                            <p style=""font-size:50px; font-weight:bold;""
                            >positive</p>
                            <div style=""width:240px; margin: auto;"">
                                <img src=""images/R_D_U_13_darkshift.png"" style= ""width:200px""alt=""img"">
                            </div>
                        </div>","-154","","0","images/R_D_U_13_darkshift.png","","","","positive","2","R","D","U","darkshift","",""
"","","","","","html-slider-response","51","204540","0.0-47.0","ez6655c7c9","2","NaN","<div style=""width:500px;"">
                            <p style=""font-size:50px; font-weight:bold;""
                            >positive</p>
                            <div style=""width:240px; margin: auto;"">
                                <img src=""images/R_L_U_10_lightshift.png"" style= ""width:200px""alt=""img"">
                            </div>
                        </div>","94","","0","images/R_L_U_10_lightshift.png","","","","positive","1","R","L","U","lightshift","",""
"","","","","","html-slider-response","52","206001","0.0-48.0","ez6655c7c9","2","NaN","<div style=""width:500px;"">
                            <p style=""font-size:50px; font-weight:bold;""
                            >positive</p>
                            <div style=""width:240px; margin: auto;"">
                                <img src=""images/G_L_U_23_darkshift.png"" style= ""width:200px""alt=""img"">
                            </div>
                        </div>","128","","0","images/G_L_U_23_darkshift.png","","","","positive","2","G","L","U","darkshift","",""
"","","","","","html-slider-response","53","207769","0.0-49.0","ez6655c7c9","2","NaN","<div style=""width:500px;"">
                            <p style=""font-size:50px; font-weight:bold;""
                            >positive</p>
                            <div style=""width:240px; margin: auto;"">
                                <img src=""images/G_L_U_23_lightshift.png"" style= ""width:200px""alt=""img"">
                            </div>
                        </div>","118","","0","images/G_L_U_23_lightshift.png","","","","positive","1","G","L","U","lightshift","",""
"","","","","","html-slider-response","54","209803","0.0-50.0","ez6655c7c9","2","NaN","<div style=""width:500px;"">
                            <p style=""font-size:50px; font-weight:bold;""
                            >positive</p>
                            <div style=""width:240px; margin: auto;"">
                                <img src=""images/B_D_U_37_lightshift.png"" style= ""width:200px""alt=""img"">
                            </div>
                        </div>","72","","0","images/B_D_U_37_lightshift.png","","","","positive","1","B","D","U","lightshift","",""
"","","","","","html-slider-response","55","211611","0.0-51.0","ez6655c7c9","2","NaN","<div style=""width:500px;"">
                            <p style=""font-size:50px; font-weight:bold;""
                            >positive</p>
                            <div style=""width:240px; margin: auto;"">
                                <img src=""images/G_L_S_15_lightshift.png"" style= ""width:200px""alt=""img"">
                            </div>
                        </div>","78","","0","images/G_L_S_15_lightshift.png","","","","positive","1","G","L","S","lightshift","",""
"","","","","","html-slider-response","56","212911","0.0-52.0","ez6655c7c9","2","NaN","<div style=""width:500px;"">
                            <p style=""font-size:50px; font-weight:bold;""
                            >positive</p>
                            <div style=""width:240px; margin: auto;"">
                                <img src=""images/B_D_S_33_lightshift.png"" style= ""width:200px""alt=""img"">
                            </div>
                        </div>","78","","0","images/B_D_S_33_lightshift.png","","","","positive","1","B","D","S","lightshift","",""
"","","","","","html-slider-response","57","214301","0.0-53.0","ez6655c7c9","2","NaN","<div style=""width:500px;"">
                            <p style=""font-size:50px; font-weight:bold;""
                            >positive</p>
                            <div style=""width:240px; margin: auto;"">
                                <img src=""images/B_L_U_30_lightshift.png"" style= ""width:200px""alt=""img"">
                            </div>
                        </div>","78","","0","images/B_L_U_30_lightshift.png","","","","positive","2","B","L","U","lightshift","",""
"","","","","","html-slider-response","58","215979","0.0-54.0","ez6655c7c9","2","NaN","<div style=""width:500px;"">
                            <p style=""font-size:50px; font-weight:bold;""
                            >positive</p>
                            <div style=""width:240px; margin: auto;"">
                                <img src=""images/B_D_S_33_lightshift.png"" style= ""width:200px""alt=""img"">
                            </div>
                        </div>","101","","0","images/B_D_S_33_lightshift.png","","","","positive","2","B","D","S","lightshift","",""
"","","","","","html-slider-response","59","218368","0.0-55.0","ez6655c7c9","2","NaN","<div style=""width:500px;"">
                            <p style=""font-size:50px; font-weight:bold;""
                            >positive</p>
                            <div style=""width:240px; margin: auto;"">
                                <img src=""images/R_D_S_12_darkshift.png"" style= ""width:200px""alt=""img"">
                            </div>
                        </div>","-59","","0","images/R_D_S_12_darkshift.png","","","","positive","2","R","D","S","darkshift","",""
"","","","","","html-slider-response","60","220427","0.0-56.0","ez6655c7c9","2","NaN","<div style=""width:500px;"">
                            <p style=""font-size:50px; font-weight:bold;""
                            >positive</p>
                            <div style=""width:240px; margin: auto;"">
                                <img src=""images/G_L_S_15_darkshift.png"" style= ""width:200px""alt=""img"">
                            </div>
                        </div>","-17","","0","images/G_L_S_15_darkshift.png","","","","positive","2","G","L","S","darkshift","",""
"","","","","","html-slider-response","61","221896","0.0-57.0","ez6655c7c9","2","NaN","<div style=""width:500px;"">
                            <p style=""font-size:50px; font-weight:bold;""
                            >positive</p>
                            <div style=""width:240px; margin: auto;"">
                                <img src=""images/Y_L_U_44_lightshift.png"" style= ""width:200px""alt=""img"">
                            </div>
                        </div>","77","","0","images/Y_L_U_44_lightshift.png","","","","positive","2","Y","L","U","lightshift","",""
"","","","","","html-slider-response","62","223672","0.0-58.0","ez6655c7c9","2","NaN","<div style=""width:500px;"">
                            <p style=""font-size:50px; font-weight:bold;""
                            >positive</p>
                            <div style=""width:240px; margin: auto;"">
                                <img src=""images/B_D_S_33_darkshift.png"" style= ""width:200px""alt=""img"">
                            </div>
                        </div>","-55","","0","images/B_D_S_33_darkshift.png","","","","positive","2","B","D","S","darkshift","",""
"","","","","","html-slider-response","63","225303","0.0-59.0","ez6655c7c9","2","NaN","<div style=""width:500px;"">
                            <p style=""font-size:50px; font-weight:bold;""
                            >positive</p>
                            <div style=""width:240px; margin: auto;"">
                                <img src=""images/Y_L_S_41_lightshift.png"" style= ""width:200px""alt=""img"">
                            </div>
                        </div>","116","","0","images/Y_L_S_41_lightshift.png","","","","positive","2","Y","L","S","lightshift","",""
"","","","","","html-slider-response","64","227144","0.0-60.0","ez6655c7c9","2","NaN","<div style=""width:500px;"">
                            <p style=""font-size:50px; font-weight:bold;""
                            >positive</p>
                            <div style=""width:240px; margin: auto;"">
                                <img src=""images/B_D_U_37_darkshift.png"" style= ""width:200px""alt=""img"">
                            </div>
                        </div>","-174","","0","images/B_D_U_37_darkshift.png","","","","positive","1","B","D","U","darkshift","",""
"","","","","","html-slider-response","65","228872","0.0-61.0","ez6655c7c9","2","NaN","<div style=""width:500px;"">
                            <p style=""font-size:50px; font-weight:bold;""
                            >positive</p>
                            <div style=""width:240px; margin: auto;"">
                                <img src=""images/B_D_U_37_lightshift.png"" style= ""width:200px""alt=""img"">
                            </div>
                        </div>","-18","","0","images/B_D_U_37_lightshift.png","","","","positive","2","B","D","U","lightshift","",""
"","","","","","html-slider-response","66","230817","0.0-62.0","ez6655c7c9","2","NaN","<div style=""width:500px;"">
                            <p style=""font-size:50px; font-weight:bold;""
                            >positive</p>
                            <div style=""width:240px; margin: auto;"">
                                <img src=""images/B_L_U_30_darkshift.png"" style= ""width:200px""alt=""img"">
                            </div>
                        </div>","125","","0","images/B_L_U_30_darkshift.png","","","","positive","2","B","L","U","darkshift","",""
"","","","","","html-slider-response","67","232455","0.0-63.0","ez6655c7c9","2","NaN","<div style=""width:500px;"">
                            <p style=""font-size:50px; font-weight:bold;""
                            >positive</p>
                            <div style=""width:240px; margin: auto;"">
                                <img src=""images/R_L_S_7_lightshift.png"" style= ""width:200px""alt=""img"">
                            </div>
                        </div>","164","","0","images/R_L_S_7_lightshift.png","","","","positive","2","R","L","S","lightshift","",""
"","","","","","html-slider-response","68","235393","0.0-64.0","ez6655c7c9","2","NaN","<div style=""width:500px;"">
                            <p style=""font-size:50px; font-weight:bold;""
                            >positive</p>
                            <div style=""width:240px; margin: auto;"">
                                <img src=""images/R_D_U_13_lightshift.png"" style= ""width:200px""alt=""img"">
                            </div>
                        </div>","22","","0","images/R_D_U_13_lightshift.png","","","","positive","1","R","D","U","lightshift","",""
"","","","","","html-slider-response","69","236791","0.0-65.0","ez6655c7c9","2","NaN","<div style=""width:500px;"">
                            <p style=""font-size:50px; font-weight:bold;""
                            >positive</p>
                            <div style=""width:240px; margin: auto;"">
                                <img src=""images/Y_L_S_41_darkshift.png"" style= ""width:200px""alt=""img"">
                            </div>
                        </div>","114","","0","images/Y_L_S_41_darkshift.png","","","","positive","1","Y","L","S","darkshift","",""
"","","","","","html-slider-response","70","238041","0.0-66.0","ez6655c7c9","2","NaN","<div style=""width:500px;"">
                            <p style=""font-size:50px; font-weight:bold;""
                            >positive</p>
                            <div style=""width:240px; margin: auto;"">
                                <img src=""images/B_L_U_30_darkshift.png"" style= ""width:200px""alt=""img"">
                            </div>
                        </div>","37","","0","images/B_L_U_30_darkshift.png","","","","positive","1","B","L","U","darkshift","",""
"","","","","","html-slider-response","71","239478","0.0-67.0","ez6655c7c9","2","NaN","<div style=""width:500px;"">
                            <p style=""font-size:50px; font-weight:bold;""
                            >positive</p>
                            <div style=""width:240px; margin: auto;"">
                                <img src=""images/R_L_S_7_darkshift.png"" style= ""width:200px""alt=""img"">
                            </div>
                        </div>","80","","0","images/R_L_S_7_darkshift.png","","","","positive","1","R","L","S","darkshift","",""
"","","","","","html-slider-response","72","241077","0.0-68.0","ez6655c7c9","2","NaN","<div style=""width:500px;"">
                            <p style=""font-size:50px; font-weight:bold;""
                            >positive</p>
                            <div style=""width:240px; margin: auto;"">
                                <img src=""images/B_L_S_28_lightshift.png"" style= ""width:200px""alt=""img"">
                            </div>
                        </div>","76","","0","images/B_L_S_28_lightshift.png","","","","positive","2","B","L","S","lightshift","",""
"","","","","","html-slider-response","73","242611","0.0-69.0","ez6655c7c9","2","NaN","<div style=""width:500px;"">
                            <p style=""font-size:50px; font-weight:bold;""
                            >positive</p>
                            <div style=""width:240px; margin: auto;"">
                                <img src=""images/R_D_S_12_darkshift.png"" style= ""width:200px""alt=""img"">
                            </div>
                        </div>","-81","","0","images/R_D_S_12_darkshift.png","","","","positive","1","R","D","S","darkshift","",""
"","","","","","html-slider-response","74","244136","0.0-70.0","ez6655c7c9","2","NaN","<div style=""width:500px;"">
                            <p style=""font-size:50px; font-weight:bold;""
                            >positive</p>
                            <div style=""width:240px; margin: auto;"">
                                <img src=""images/B_D_U_37_darkshift.png"" style= ""width:200px""alt=""img"">
                            </div>
                        </div>","-115","","0","images/B_D_U_37_darkshift.png","","","","positive","2","B","D","U","darkshift","",""
"","","","","","html-slider-response","75","245346","0.0-71.0","ez6655c7c9","2","NaN","<div style=""width:500px;"">
                            <p style=""font-size:50px; font-weight:bold;""
                            >positive</p>
                            <div style=""width:240px; margin: auto;"">
                                <img src=""images/G_D_U_27_lightshift.png"" style= ""width:200px""alt=""img"">
                            </div>
                        </div>","-114","","0","images/G_D_U_27_lightshift.png","","","","positive","2","G","D","U","lightshift","",""
"","","","","","html-slider-response","76","246439","0.0-72.0","ez6655c7c9","2","NaN","<div style=""width:500px;"">
                            <p style=""font-size:50px; font-weight:bold;""
                            >positive</p>
                            <div style=""width:240px; margin: auto;"">
                                <img src=""images/R_D_U_13_darkshift.png"" style= ""width:200px""alt=""img"">
                            </div>
                        </div>","-114","","0","images/R_D_U_13_darkshift.png","","","","positive","1","R","D","U","darkshift","",""
"","","","","","html-slider-response","77","248245","0.0-73.0","ez6655c7c9","2","NaN","<div style=""width:500px;"">
                            <p style=""font-size:50px; font-weight:bold;""
                            >positive</p>
                            <div style=""width:240px; margin: auto;"">
                                <img src=""images/R_L_U_10_darkshift.png"" style= ""width:200px""alt=""img"">
                            </div>
                        </div>","64","","0","images/R_L_U_10_darkshift.png","","","","positive","2","R","L","U","darkshift","",""
"","","","","","html-slider-response","78","249619","0.0-74.0","ez6655c7c9","2","NaN","<div style=""width:500px;"">
                            <p style=""font-size:50px; font-weight:bold;""
                            >positive</p>
                            <div style=""width:240px; margin: auto;"">
                                <img src=""images/G_L_U_23_lightshift.png"" style= ""width:200px""alt=""img"">
                            </div>
                        </div>","50","","0","images/G_L_U_23_lightshift.png","","","","positive","2","G","L","U","lightshift","",""
"","","","","","html-slider-response","79","250949","0.0-75.0","ez6655c7c9","2","NaN","<div style=""width:500px;"">
                            <p style=""font-size:50px; font-weight:bold;""
                            >positive</p>
                            <div style=""width:240px; margin: auto;"">
                                <img src=""images/R_L_S_7_darkshift.png"" style= ""width:200px""alt=""img"">
                            </div>
                        </div>","105","","0","images/R_L_S_7_darkshift.png","","","","positive","2","R","L","S","darkshift","",""
"","","","","","html-slider-response","80","252596","0.0-76.0","ez6655c7c9","2","NaN","<div style=""width:500px;"">
                            <p style=""font-size:50px; font-weight:bold;""
                            >positive</p>
                            <div style=""width:240px; margin: auto;"">
                                <img src=""images/Y_D_S_2_lightshift.png"" style= ""width:200px""alt=""img"">
                            </div>
                        </div>","-82","","0","images/Y_D_S_2_lightshift.png","","","","positive","1","Y","D","S","lightshift","",""
"","","","","","html-slider-response","81","254147","0.0-77.0","ez6655c7c9","2","NaN","<div style=""width:500px;"">
                            <p style=""font-size:50px; font-weight:bold;""
                            >positive</p>
                            <div style=""width:240px; margin: auto;"">
                                <img src=""images/G_D_U_27_darkshift.png"" style= ""width:200px""alt=""img"">
                            </div>
                        </div>","-82","","0","images/G_D_U_27_darkshift.png","","","","positive","2","G","D","U","darkshift","",""
"","","","","","html-button-response","82","256872","0.0-78.0","ez6655c7c9","2","2224","<p>Great Job! You've finished block 1.<br></br> You have 3 block(s) left to go.<br></br></p>","0","","","","","","","","","","","","","",""
"","","","","","html-button-response","83","259109","0.0-79.0","ez6655c7c9","2","2235","<p>In this block of trials, you will be asked to rate how much you associate each map with:</p > <p style = 'font-size:150%; font-weight: bold'>calm</p><br></br>","0","","","","","","","","","","","","","",""
"","","","","","html-slider-response","84","260782","0.0-80.0","ez6655c7c9","2","NaN","<div style=""width:500px;"">
                            <p style=""font-size:50px; font-weight:bold;""
                            >calm</p>
                            <div style=""width:240px; margin: auto;"">
                                <img src=""images/B_L_S_28_darkshift.png"" style= ""width:200px""alt=""img"">
                            </div>
                        </div>","25","","0","images/B_L_S_28_darkshift.png","","","","calm","1","B","L","S","darkshift","",""
"","","","","","html-slider-response","85","263156","0.0-81.0","ez6655c7c9","2","NaN","<div style=""width:500px;"">
                            <p style=""font-size:50px; font-weight:bold;""
                            >calm</p>
                            <div style=""width:240px; margin: auto;"">
                                <img src=""images/G_D_U_27_darkshift.png"" style= ""width:200px""alt=""img"">
                            </div>
                        </div>","54","","0","images/G_D_U_27_darkshift.png","","","","calm","1","G","D","U","darkshift","",""
"","","","","","html-slider-response","86","264827","0.0-82.0","ez6655c7c9","2","NaN","<div style=""width:500px;"">
                            <p style=""font-size:50px; font-weight:bold;""
                            >calm</p>
                            <div style=""width:240px; margin: auto;"">
                                <img src=""images/B_D_U_37_darkshift.png"" style= ""width:200px""alt=""img"">
                            </div>
                        </div>","78","","0","images/B_D_U_37_darkshift.png","","","","calm","2","B","D","U","darkshift","",""
"","","","","","html-slider-response","87","266466","0.0-83.0","ez6655c7c9","2","NaN","<div style=""width:500px;"">
                            <p style=""font-size:50px; font-weight:bold;""
                            >calm</p>
                            <div style=""width:240px; margin: auto;"">
                                <img src=""images/G_L_U_23_lightshift.png"" style= ""width:200px""alt=""img"">
                            </div>
                        </div>","79","","0","images/G_L_U_23_lightshift.png","","","","calm","1","G","L","U","lightshift","",""
"","","","","","html-slider-response","88","268661","0.0-84.0","ez6655c7c9","2","NaN","<div style=""width:500px;"">
                            <p style=""font-size:50px; font-weight:bold;""
                            >calm</p>
                            <div style=""width:240px; margin: auto;"">
                                <img src=""images/Y_D_S_2_darkshift.png"" style= ""width:200px""alt=""img"">
                            </div>
                        </div>","21","","0","images/Y_D_S_2_darkshift.png","","","","calm","2","Y","D","S","darkshift","",""
"","","","","","html-slider-response","89","270591","0.0-85.0","ez6655c7c9","2","NaN","<div style=""width:500px;"">
                            <p style=""font-size:50px; font-weight:bold;""
                            >calm</p>
                            <div style=""width:240px; margin: auto;"">
                                <img src=""images/Y_D_U_5_lightshift.png"" style= ""width:200px""alt=""img"">
                            </div>
                        </div>","-18","","0","images/Y_D_U_5_lightshift.png","","","","calm","1","Y","D","U","lightshift","",""
"","","","","","html-slider-response","90","272044","0.0-86.0","ez6655c7c9","2","NaN","<div style=""width:500px;"">
                            <p style=""font-size:50px; font-weight:bold;""
                            >calm</p>
                            <div style=""width:240px; margin: auto;"">
                                <img src=""images/G_L_S_15_darkshift.png"" style= ""width:200px""alt=""img"">
                            </div>
                        </div>","-44","","0","images/G_L_S_15_darkshift.png","","","","calm","2","G","L","S","darkshift","",""
"","","","","","html-slider-response","91","273795","0.0-87.0","ez6655c7c9","2","NaN","<div style=""width:500px;"">
                            <p style=""font-size:50px; font-weight:bold;""
                            >calm</p>
                            <div style=""width:240px; margin: auto;"">
                                <img src=""images/B_L_U_30_lightshift.png"" style= ""width:200px""alt=""img"">
                            </div>
                        </div>","-35","","0","images/B_L_U_30_lightshift.png","","","","calm","2","B","L","U","lightshift","",""
"","","","","","html-slider-response","92","275773","0.0-88.0","ez6655c7c9","2","NaN","<div style=""width:500px;"">
                            <p style=""font-size:50px; font-weight:bold;""
                            >calm</p>
                            <div style=""width:240px; margin: auto;"">
                                <img src=""images/G_D_U_27_lightshift.png"" style= ""width:200px""alt=""img"">
                            </div>
                        </div>","14","","0","images/G_D_U_27_lightshift.png","","","","calm","1","G","D","U","lightshift","",""
"","","","","","html-slider-response","93","277621","0.0-89.0","ez6655c7c9","2","NaN","<div style=""width:500px;"">
                            <p style=""font-size:50px; font-weight:bold;""
                            >calm</p>
                            <div style=""width:240px; margin: auto;"">
                                <img src=""images/Y_D_S_2_lightshift.png"" style= ""width:200px""alt=""img"">
                            </div>
                        </div>","-16","","0","images/Y_D_S_2_lightshift.png","","","","calm","1","Y","D","S","lightshift","",""
"","","","","","html-slider-response","94","279228","0.0-90.0","ez6655c7c9","2","NaN","<div style=""width:500px;"">
                            <p style=""font-size:50px; font-weight:bold;""
                            >calm</p>
                            <div style=""width:240px; margin: auto;"">
                                <img src=""images/Y_D_U_5_darkshift.png"" style= ""width:200px""alt=""img"">
                            </div>
                        </div>","-41","","0","images/Y_D_U_5_darkshift.png","","","","calm","1","Y","D","U","darkshift","",""
"","","","","","html-slider-response","95","281140","0.0-91.0","ez6655c7c9","2","NaN","<div style=""width:500px;"">
                            <p style=""font-size:50px; font-weight:bold;""
                            >calm</p>
                            <div style=""width:240px; margin: auto;"">
                                <img src=""images/B_D_U_37_lightshift.png"" style= ""width:200px""alt=""img"">
                            </div>
                        </div>","65","","0","images/B_D_U_37_lightshift.png","","","","calm","1","B","D","U","lightshift","",""
"","","","","","html-slider-response","96","283085","0.0-92.0","ez6655c7c9","2","NaN","<div style=""width:500px;"">
                            <p style=""font-size:50px; font-weight:bold;""
                            >calm</p>
                            <div style=""width:240px; margin: auto;"">
                                <img src=""images/Y_L_S_41_lightshift.png"" style= ""width:200px""alt=""img"">
                            </div>
                        </div>","-89","","0","images/Y_L_S_41_lightshift.png","","","","calm","2","Y","L","S","lightshift","",""
"","","","","","html-slider-response","97","284619","0.0-93.0","ez6655c7c9","2","NaN","<div style=""width:500px;"">
                            <p style=""font-size:50px; font-weight:bold;""
                            >calm</p>
                            <div style=""width:240px; margin: auto;"">
                                <img src=""images/R_D_S_12_lightshift.png"" style= ""width:200px""alt=""img"">
                            </div>
                        </div>","-136","","0","images/R_D_S_12_lightshift.png","","","","calm","2","R","D","S","lightshift","",""
"","","","","","html-slider-response","98","285735","0.0-94.0","ez6655c7c9","2","NaN","<div style=""width:500px;"">
                            <p style=""font-size:50px; font-weight:bold;""
                            >calm</p>
                            <div style=""width:240px; margin: auto;"">
                                <img src=""images/Y_L_S_41_darkshift.png"" style= ""width:200px""alt=""img"">
                            </div>
                        </div>","-136","","0","images/Y_L_S_41_darkshift.png","","","","calm","1","Y","L","S","darkshift","",""
"","","","","","html-slider-response","99","287792","0.0-95.0","ez6655c7c9","2","NaN","<div style=""width:500px;"">
                            <p style=""font-size:50px; font-weight:bold;""
                            >calm</p>
                            <div style=""width:240px; margin: auto;"">
                                <img src=""images/G_D_S_26_lightshift.png"" style= ""width:200px""alt=""img"">
                            </div>
                        </div>","-74","","0","images/G_D_S_26_lightshift.png","","","","calm","2","G","D","S","lightshift","",""
"","","","","","html-slider-response","100","289737","0.0-96.0","ez6655c7c9","2","NaN","<div style=""width:500px;"">
                            <p style=""font-size:50px; font-weight:bold;""
                            >calm</p>
                            <div style=""width:240px; margin: auto;"">
                                <img src=""images/G_L_S_15_lightshift.png"" style= ""width:200px""alt=""img"">
                            </div>
                        </div>","-166","","0","images/G_L_S_15_lightshift.png","","","","calm","1","G","L","S","lightshift","",""
"","","","","","html-slider-response","101","291223","0.0-97.0","ez6655c7c9","2","NaN","<div style=""width:500px;"">
                            <p style=""font-size:50px; font-weight:bold;""
                            >calm</p>
                            <div style=""width:240px; margin: auto;"">
                                <img src=""images/R_L_U_10_darkshift.png"" style= ""width:200px""alt=""img"">
                            </div>
                        </div>","-126","","0","images/R_L_U_10_darkshift.png","","","","calm","1","R","L","U","darkshift","",""
"","","","","","html-slider-response","102","292716","0.0-98.0","ez6655c7c9","2","NaN","<div style=""width:500px;"">
                            <p style=""font-size:50px; font-weight:bold;""
                            >calm</p>
                            <div style=""width:240px; margin: auto;"">
                                <img src=""images/Y_L_U_44_lightshift.png"" style= ""width:200px""alt=""img"">
                            </div>
                        </div>","-58","","0","images/Y_L_U_44_lightshift.png","","","","calm","1","Y","L","U","lightshift","",""
"","","","","","html-slider-response","103","294176","0.0-99.0","ez6655c7c9","2","NaN","<div style=""width:500px;"">
                            <p style=""font-size:50px; font-weight:bold;""
                            >calm</p>
                            <div style=""width:240px; margin: auto;"">
                                <img src=""images/B_L_U_30_darkshift.png"" style= ""width:200px""alt=""img"">
                            </div>
                        </div>","-42","","0","images/B_L_U_30_darkshift.png","","","","calm","1","B","L","U","darkshift","",""
"","","","","","html-slider-response","104","296170","0.0-100.0","ez6655c7c9","2","NaN","<div style=""width:500px;"">
                            <p style=""font-size:50px; font-weight:bold;""
                            >calm</p>
                            <div style=""width:240px; margin: auto;"">
                                <img src=""images/B_D_U_37_lightshift.png"" style= ""width:200px""alt=""img"">
                            </div>
                        </div>","156","","0","images/B_D_U_37_lightshift.png","","","","calm","2","B","D","U","lightshift","",""
"","","","","","html-slider-response","105","297760","0.0-101.0","ez6655c7c9","2","NaN","<div style=""width:500px;"">
                            <p style=""font-size:50px; font-weight:bold;""
                            >calm</p>
                            <div style=""width:240px; margin: auto;"">
                                <img src=""images/R_D_U_13_darkshift.png"" style= ""width:200px""alt=""img"">
                            </div>
                        </div>","118","","0","images/R_D_U_13_darkshift.png","","","","calm","2","R","D","U","darkshift","",""
"","","","","","html-slider-response","106","299439","0.0-102.0","ez6655c7c9","2","NaN","<div style=""width:500px;"">
                            <p style=""font-size:50px; font-weight:bold;""
                            >calm</p>
                            <div style=""width:240px; margin: auto;"">
                                <img src=""images/R_L_S_7_lightshift.png"" style= ""width:200px""alt=""img"">
                            </div>
                        </div>","-21","","0","images/R_L_S_7_lightshift.png","","","","calm","2","R","L","S","lightshift","",""
"","","","","","html-slider-response","107","300772","0.0-103.0","ez6655c7c9","2","NaN","<div style=""width:500px;"">
                            <p style=""font-size:50px; font-weight:bold;""
                            >calm</p>
                            <div style=""width:240px; margin: auto;"">
                                <img src=""images/B_L_S_28_lightshift.png"" style= ""width:200px""alt=""img"">
                            </div>
                        </div>","-61","","0","images/B_L_S_28_lightshift.png","","","","calm","2","B","L","S","lightshift","",""
"","","","","","html-slider-response","108","302401","0.0-104.0","ez6655c7c9","2","NaN","<div style=""width:500px;"">
                            <p style=""font-size:50px; font-weight:bold;""
                            >calm</p>
                            <div style=""width:240px; margin: auto;"">
                                <img src=""images/B_D_S_33_darkshift.png"" style= ""width:200px""alt=""img"">
                            </div>
                        </div>","112","","0","images/B_D_S_33_darkshift.png","","","","calm","2","B","D","S","darkshift","",""
"","","","","","html-slider-response","109","303726","0.0-105.0","ez6655c7c9","2","NaN","<div style=""width:500px;"">
                            <p style=""font-size:50px; font-weight:bold;""
                            >calm</p>
                            <div style=""width:240px; margin: auto;"">
                                <img src=""images/R_L_U_10_lightshift.png"" style= ""width:200px""alt=""img"">
                            </div>
                        </div>","-102","","0","images/R_L_U_10_lightshift.png","","","","calm","2","R","L","U","lightshift","",""
"","","","","","html-slider-response","110","305638","0.0-106.0","ez6655c7c9","2","NaN","<div style=""width:500px;"">
                            <p style=""font-size:50px; font-weight:bold;""
                            >calm</p>
                            <div style=""width:240px; margin: auto;"">
                                <img src=""images/R_D_U_13_darkshift.png"" style= ""width:200px""alt=""img"">
                            </div>
                        </div>","77","","0","images/R_D_U_13_darkshift.png","","","","calm","1","R","D","U","darkshift","",""
"","","","","","html-slider-response","111","307173","0.0-107.0","ez6655c7c9","2","NaN","<div style=""width:500px;"">
                            <p style=""font-size:50px; font-weight:bold;""
                            >calm</p>
                            <div style=""width:240px; margin: auto;"">
                                <img src=""images/R_L_S_7_darkshift.png"" style= ""width:200px""alt=""img"">
                            </div>
                        </div>","-64","","0","images/R_L_S_7_darkshift.png","","","","calm","2","R","L","S","darkshift","",""
"","","","","","html-slider-response","112","308617","0.0-108.0","ez6655c7c9","2","NaN","<div style=""width:500px;"">
                            <p style=""font-size:50px; font-weight:bold;""
                            >calm</p>
                            <div style=""width:240px; margin: auto;"">
                                <img src=""images/Y_L_U_44_darkshift.png"" style= ""width:200px""alt=""img"">
                            </div>
                        </div>","-115","","0","images/Y_L_U_44_darkshift.png","","","","calm","2","Y","L","U","darkshift","",""
"","","","","","html-slider-response","113","310071","0.0-109.0","ez6655c7c9","2","NaN","<div style=""width:500px;"">
                            <p style=""font-size:50px; font-weight:bold;""
                            >calm</p>
                            <div style=""width:240px; margin: auto;"">
                                <img src=""images/Y_L_S_41_lightshift.png"" style= ""width:200px""alt=""img"">
                            </div>
                        </div>","-106","","0","images/Y_L_S_41_lightshift.png","","","","calm","1","Y","L","S","lightshift","",""
"","","","","","html-slider-response","114","312048","0.0-110.0","ez6655c7c9","2","NaN","<div style=""width:500px;"">
                            <p style=""font-size:50px; font-weight:bold;""
                            >calm</p>
                            <div style=""width:240px; margin: auto;"">
                                <img src=""images/Y_D_S_2_lightshift.png"" style= ""width:200px""alt=""img"">
                            </div>
                        </div>","-10","","0","images/Y_D_S_2_lightshift.png","","","","calm","2","Y","D","S","lightshift","",""
"","","","","","html-slider-response","115","314090","0.0-111.0","ez6655c7c9","2","NaN","<div style=""width:500px;"">
                            <p style=""font-size:50px; font-weight:bold;""
                            >calm</p>
                            <div style=""width:240px; margin: auto;"">
                                <img src=""images/Y_L_S_41_darkshift.png"" style= ""width:200px""alt=""img"">
                            </div>
                        </div>","-167","","0","images/Y_L_S_41_darkshift.png","","","","calm","2","Y","L","S","darkshift","",""
"","","","","","html-slider-response","116","315833","0.0-112.0","ez6655c7c9","2","NaN","<div style=""width:500px;"">
                            <p style=""font-size:50px; font-weight:bold;""
                            >calm</p>
                            <div style=""width:240px; margin: auto;"">
                                <img src=""images/G_L_S_15_lightshift.png"" style= ""width:200px""alt=""img"">
                            </div>
                        </div>","-95","","0","images/G_L_S_15_lightshift.png","","","","calm","2","G","L","S","lightshift","",""
"","","","","","html-slider-response","117","317892","0.0-113.0","ez6655c7c9","2","NaN","<div style=""width:500px;"">
                            <p style=""font-size:50px; font-weight:bold;""
                            >calm</p>
                            <div style=""width:240px; margin: auto;"">
                                <img src=""images/Y_D_U_5_darkshift.png"" style= ""width:200px""alt=""img"">
                            </div>
                        </div>","10","","0","images/Y_D_U_5_darkshift.png","","","","calm","2","Y","D","U","darkshift","",""
"","","","","","html-slider-response","118","319942","0.0-114.0","ez6655c7c9","2","NaN","<div style=""width:500px;"">
                            <p style=""font-size:50px; font-weight:bold;""
                            >calm</p>
                            <div style=""width:240px; margin: auto;"">
                                <img src=""images/G_L_S_15_darkshift.png"" style= ""width:200px""alt=""img"">
                            </div>
                        </div>","-7","","0","images/G_L_S_15_darkshift.png","","","","calm","1","G","L","S","darkshift","",""
"","","","","","html-slider-response","119","321921","0.0-115.0","ez6655c7c9","2","NaN","<div style=""width:500px;"">
                            <p style=""font-size:50px; font-weight:bold;""
                            >calm</p>
                            <div style=""width:240px; margin: auto;"">
                                <img src=""images/R_D_U_13_lightshift.png"" style= ""width:200px""alt=""img"">
                            </div>
                        </div>","24","","0","images/R_D_U_13_lightshift.png","","","","calm","2","R","D","U","lightshift","",""
"","","","","","html-slider-response","120","323784","0.0-116.0","ez6655c7c9","2","NaN","<div style=""width:500px;"">
                            <p style=""font-size:50px; font-weight:bold;""
                            >calm</p>
                            <div style=""width:240px; margin: auto;"">
                                <img src=""images/G_L_U_23_darkshift.png"" style= ""width:200px""alt=""img"">
                            </div>
                        </div>","-2","","0","images/G_L_U_23_darkshift.png","","","","calm","1","G","L","U","darkshift","",""
"","","","","","html-slider-response","121","325883","0.0-117.0","ez6655c7c9","2","NaN","<div style=""width:500px;"">
                            <p style=""font-size:50px; font-weight:bold;""
                            >calm</p>
                            <div style=""width:240px; margin: auto;"">
                                <img src=""images/G_D_U_27_darkshift.png"" style= ""width:200px""alt=""img"">
                            </div>
                        </div>","50","","0","images/G_D_U_27_darkshift.png","","","","calm","2","G","D","U","darkshift","",""
"","","","","","html-slider-response","122","327013","0.0-118.0","ez6655c7c9","2","NaN","<div style=""width:500px;"">
                            <p style=""font-size:50px; font-weight:bold;""
                            >calm</p>
                            <div style=""width:240px; margin: auto;"">
                                <img src=""images/G_D_S_26_darkshift.png"" style= ""width:200px""alt=""img"">
                            </div>
                        </div>","50","","0","images/G_D_S_26_darkshift.png","","","","calm","2","G","D","S","darkshift","",""
"","","","","","html-slider-response","123","328845","0.0-119.0","ez6655c7c9","2","NaN","<div style=""width:500px;"">
                            <p style=""font-size:50px; font-weight:bold;""
                            >calm</p>
                            <div style=""width:240px; margin: auto;"">
                                <img src=""images/G_D_S_26_lightshift.png"" style= ""width:200px""alt=""img"">
                            </div>
                        </div>","-80","","0","images/G_D_S_26_lightshift.png","","","","calm","1","G","D","S","lightshift","",""
"","","","","","html-slider-response","124","331082","0.0-120.0","ez6655c7c9","2","NaN","<div style=""width:500px;"">
                            <p style=""font-size:50px; font-weight:bold;""
                            >calm</p>
                            <div style=""width:240px; margin: auto;"">
                                <img src=""images/Y_L_U_44_lightshift.png"" style= ""width:200px""alt=""img"">
                            </div>
                        </div>","-142","","0","images/Y_L_U_44_lightshift.png","","","","calm","2","Y","L","U","lightshift","",""
"","","","","","html-slider-response","125","332091","0.0-121.0","ez6655c7c9","2","NaN","<div style=""width:500px;"">
                            <p style=""font-size:50px; font-weight:bold;""
                            >calm</p>
                            <div style=""width:240px; margin: auto;"">
                                <img src=""images/R_L_S_7_lightshift.png"" style= ""width:200px""alt=""img"">
                            </div>
                        </div>","-142","","0","images/R_L_S_7_lightshift.png","","","","calm","1","R","L","S","lightshift","",""
"","","","","","html-slider-response","126","333326","0.0-122.0","ez6655c7c9","2","NaN","<div style=""width:500px;"">
                            <p style=""font-size:50px; font-weight:bold;""
                            >calm</p>
                            <div style=""width:240px; margin: auto;"">
                                <img src=""images/R_D_S_12_lightshift.png"" style= ""width:200px""alt=""img"">
                            </div>
                        </div>","-142","","0","images/R_D_S_12_lightshift.png","","","","calm","1","R","D","S","lightshift","",""
"","","","","","html-slider-response","127","335843","0.0-123.0","ez6655c7c9","2","NaN","<div style=""width:500px;"">
                            <p style=""font-size:50px; font-weight:bold;""
                            >calm</p>
                            <div style=""width:240px; margin: auto;"">
                                <img src=""images/B_D_U_37_darkshift.png"" style= ""width:200px""alt=""img"">
                            </div>
                        </div>","158","","0","images/B_D_U_37_darkshift.png","","","","calm","1","B","D","U","darkshift","",""
"","","","","","html-slider-response","128","337627","0.0-124.0","ez6655c7c9","2","NaN","<div style=""width:500px;"">
                            <p style=""font-size:50px; font-weight:bold;""
                            >calm</p>
                            <div style=""width:240px; margin: auto;"">
                                <img src=""images/R_D_S_12_darkshift.png"" style= ""width:200px""alt=""img"">
                            </div>
                        </div>","5","","0","images/R_D_S_12_darkshift.png","","","","calm","2","R","D","S","darkshift","",""
"","","","","","html-slider-response","129","339606","0.0-125.0","ez6655c7c9","2","NaN","<div style=""width:500px;"">
                            <p style=""font-size:50px; font-weight:bold;""
                            >calm</p>
                            <div style=""width:240px; margin: auto;"">
                                <img src=""images/R_L_U_10_darkshift.png"" style= ""width:200px""alt=""img"">
                            </div>
                        </div>","-110","","0","images/R_L_U_10_darkshift.png","","","","calm","2","R","L","U","darkshift","",""
"","","","","","html-slider-response","130","341389","0.0-126.0","ez6655c7c9","2","NaN","<div style=""width:500px;"">
                            <p style=""font-size:50px; font-weight:bold;""
                            >calm</p>
                            <div style=""width:240px; margin: auto;"">
                                <img src=""images/R_D_U_13_lightshift.png"" style= ""width:200px""alt=""img"">
                            </div>
                        </div>","-62","","0","images/R_D_U_13_lightshift.png","","","","calm","1","R","D","U","lightshift","",""
"","","","","","html-slider-response","131","342786","0.0-127.0","ez6655c7c9","2","NaN","<div style=""width:500px;"">
                            <p style=""font-size:50px; font-weight:bold;""
                            >calm</p>
                            <div style=""width:240px; margin: auto;"">
                                <img src=""images/G_D_S_26_darkshift.png"" style= ""width:200px""alt=""img"">
                            </div>
                        </div>","-158","","0","images/G_D_S_26_darkshift.png","","","","calm","1","G","D","S","darkshift","",""
"","","","","","html-slider-response","132","346168","0.0-128.0","ez6655c7c9","2","NaN","<div style=""width:500px;"">
                            <p style=""font-size:50px; font-weight:bold;""
                            >calm</p>
                            <div style=""width:240px; margin: auto;"">
                                <img src=""images/B_L_U_30_darkshift.png"" style= ""width:200px""alt=""img"">
                            </div>
                        </div>","-115","","0","images/B_L_U_30_darkshift.png","","","","calm","2","B","L","U","darkshift","",""
"","","","","","html-slider-response","133","347894","0.0-129.0","ez6655c7c9","2","NaN","<div style=""width:500px;"">
                            <p style=""font-size:50px; font-weight:bold;""
                            >calm</p>
                            <div style=""width:240px; margin: auto;"">
                                <img src=""images/G_D_U_27_lightshift.png"" style= ""width:200px""alt=""img"">
                            </div>
                        </div>","32","","0","images/G_D_U_27_lightshift.png","","","","calm","2","G","D","U","lightshift","",""
"","","","","","html-slider-response","134","349315","0.0-130.0","ez6655c7c9","2","NaN","<div style=""width:500px;"">
                            <p style=""font-size:50px; font-weight:bold;""
                            >calm</p>
                            <div style=""width:240px; margin: auto;"">
                                <img src=""images/R_L_S_7_darkshift.png"" style= ""width:200px""alt=""img"">
                            </div>
                        </div>","-70","","0","images/R_L_S_7_darkshift.png","","","","calm","1","R","L","S","darkshift","",""
"","","","","","html-slider-response","135","352117","0.0-131.0","ez6655c7c9","2","NaN","<div style=""width:500px;"">
                            <p style=""font-size:50px; font-weight:bold;""
                            >calm</p>
                            <div style=""width:240px; margin: auto;"">
                                <img src=""images/Y_D_S_2_darkshift.png"" style= ""width:200px""alt=""img"">
                            </div>
                        </div>","42","","0","images/Y_D_S_2_darkshift.png","","","","calm","1","Y","D","S","darkshift","",""
"","","","","","html-slider-response","136","353675","0.0-132.0","ez6655c7c9","2","NaN","<div style=""width:500px;"">
                            <p style=""font-size:50px; font-weight:bold;""
                            >calm</p>
                            <div style=""width:240px; margin: auto;"">
                                <img src=""images/R_D_S_12_darkshift.png"" style= ""width:200px""alt=""img"">
                            </div>
                        </div>","18","","0","images/R_D_S_12_darkshift.png","","","","calm","1","R","D","S","darkshift","",""
"","","","","","html-slider-response","137","355434","0.0-133.0","ez6655c7c9","2","NaN","<div style=""width:500px;"">
                            <p style=""font-size:50px; font-weight:bold;""
                            >calm</p>
                            <div style=""width:240px; margin: auto;"">
                                <img src=""images/Y_D_U_5_lightshift.png"" style= ""width:200px""alt=""img"">
                            </div>
                        </div>","98","","0","images/Y_D_U_5_lightshift.png","","","","calm","2","Y","D","U","lightshift","",""
"","","","","","html-slider-response","138","357565","0.0-134.0","ez6655c7c9","2","NaN","<div style=""width:500px;"">
                            <p style=""font-size:50px; font-weight:bold;""
                            >calm</p>
                            <div style=""width:240px; margin: auto;"">
                                <img src=""images/B_L_S_28_darkshift.png"" style= ""width:200px""alt=""img"">
                            </div>
                        </div>","26","","0","images/B_L_S_28_darkshift.png","","","","calm","2","B","L","S","darkshift","",""
"","","","","","html-slider-response","139","359220","0.0-135.0","ez6655c7c9","2","NaN","<div style=""width:500px;"">
                            <p style=""font-size:50px; font-weight:bold;""
                            >calm</p>
                            <div style=""width:240px; margin: auto;"">
                                <img src=""images/R_L_U_10_lightshift.png"" style= ""width:200px""alt=""img"">
                            </div>
                        </div>","-99","","0","images/R_L_U_10_lightshift.png","","","","calm","1","R","L","U","lightshift","",""
"","","","","","html-slider-response","140","360939","0.0-136.0","ez6655c7c9","2","NaN","<div style=""width:500px;"">
                            <p style=""font-size:50px; font-weight:bold;""
                            >calm</p>
                            <div style=""width:240px; margin: auto;"">
                                <img src=""images/B_D_S_33_lightshift.png"" style= ""width:200px""alt=""img"">
                            </div>
                        </div>","43","","0","images/B_D_S_33_lightshift.png","","","","calm","2","B","D","S","lightshift","",""
"","","","","","html-slider-response","141","363587","0.0-137.0","ez6655c7c9","2","NaN","<div style=""width:500px;"">
                            <p style=""font-size:50px; font-weight:bold;""
                            >calm</p>
                            <div style=""width:240px; margin: auto;"">
                                <img src=""images/G_L_U_23_darkshift.png"" style= ""width:200px""alt=""img"">
                            </div>
                        </div>","-1","","0","images/G_L_U_23_darkshift.png","","","","calm","2","G","L","U","darkshift","",""
"","","","","","html-slider-response","142","365177","0.0-138.0","ez6655c7c9","2","NaN","<div style=""width:500px;"">
                            <p style=""font-size:50px; font-weight:bold;""
                            >calm</p>
                            <div style=""width:240px; margin: auto;"">
                                <img src=""images/B_L_S_28_lightshift.png"" style= ""width:200px""alt=""img"">
                            </div>
                        </div>","-54","","0","images/B_L_S_28_lightshift.png","","","","calm","1","B","L","S","lightshift","",""
"","","","","","html-slider-response","143","366621","0.0-139.0","ez6655c7c9","2","NaN","<div style=""width:500px;"">
                            <p style=""font-size:50px; font-weight:bold;""
                            >calm</p>
                            <div style=""width:240px; margin: auto;"">
                                <img src=""images/B_L_U_30_lightshift.png"" style= ""width:200px""alt=""img"">
                            </div>
                        </div>","-124","","0","images/B_L_U_30_lightshift.png","","","","calm","1","B","L","U","lightshift","",""
"","","","","","html-slider-response","144","368260","0.0-140.0","ez6655c7c9","2","NaN","<div style=""width:500px;"">
                            <p style=""font-size:50px; font-weight:bold;""
                            >calm</p>
                            <div style=""width:240px; margin: auto;"">
                                <img src=""images/Y_L_U_44_darkshift.png"" style= ""width:200px""alt=""img"">
                            </div>
                        </div>","-133","","0","images/Y_L_U_44_darkshift.png","","","","calm","1","Y","L","U","darkshift","",""
"","","","","","html-slider-response","145","369317","0.0-141.0","ez6655c7c9","2","NaN","<div style=""width:500px;"">
                            <p style=""font-size:50px; font-weight:bold;""
                            >calm</p>
                            <div style=""width:240px; margin: auto;"">
                                <img src=""images/B_D_S_33_lightshift.png"" style= ""width:200px""alt=""img"">
                            </div>
                        </div>","-134","","0","images/B_D_S_33_lightshift.png","","","","calm","1","B","D","S","lightshift","",""
"","","","","","html-slider-response","146","370924","0.0-142.0","ez6655c7c9","2","NaN","<div style=""width:500px;"">
                            <p style=""font-size:50px; font-weight:bold;""
                            >calm</p>
                            <div style=""width:240px; margin: auto;"">
                                <img src=""images/B_D_S_33_darkshift.png"" style= ""width:200px""alt=""img"">
                            </div>
                        </div>","160","","0","images/B_D_S_33_darkshift.png","","","","calm","1","B","D","S","darkshift","",""
"","","","","","html-slider-response","147","373854","0.0-143.0","ez6655c7c9","2","NaN","<div style=""width:500px;"">
                            <p style=""font-size:50px; font-weight:bold;""
                            >calm</p>
                            <div style=""width:240px; margin: auto;"">
                                <img src=""images/G_L_U_23_lightshift.png"" style= ""width:200px""alt=""img"">
                            </div>
                        </div>","-159","","0","images/G_L_U_23_lightshift.png","","","","calm","2","G","L","U","lightshift","",""
"","","","","","html-button-response","148","377870","0.0-144.0","ez6655c7c9","2","3514","<p>Great Job! You've finished block 2.<br></br> You have 2 block(s) left to go.<br></br></p>","0","","","","","","","","","","","","","",""
"","","","","","html-button-response","149","378783","0.0-145.0","ez6655c7c9","2","910","<p>In this block of trials, you will be asked to rate how much you associate each map with:</p > <p style = 'font-size:150%; font-weight: bold'>startling</p><br></br>","0","","","","","","","","","","","","","",""
"","","","","","html-slider-response","150","379867","0.0-146.0","ez6655c7c9","2","NaN","<div style=""width:500px;"">
                            <p style=""font-size:50px; font-weight:bold;""
                            >startling</p>
                            <div style=""width:240px; margin: auto;"">
                                <img src=""images/R_D_U_13_darkshift.png"" style= ""width:200px""alt=""img"">
                            </div>
                        </div>","-42","","0","images/R_D_U_13_darkshift.png","","","","startling","1","R","D","U","darkshift","",""
"","","","","","html-slider-response","151","381522","0.0-147.0","ez6655c7c9","2","NaN","<div style=""width:500px;"">
                            <p style=""font-size:50px; font-weight:bold;""
                            >startling</p>
                            <div style=""width:240px; margin: auto;"">
                                <img src=""images/B_L_S_28_darkshift.png"" style= ""width:200px""alt=""img"">
                            </div>
                        </div>","7","","0","images/B_L_S_28_darkshift.png","","","","startling","1","B","L","S","darkshift","",""
"","","","","","html-slider-response","152","382958","0.0-148.0","ez6655c7c9","2","NaN","<div style=""width:500px;"">
                            <p style=""font-size:50px; font-weight:bold;""
                            >startling</p>
                            <div style=""width:240px; margin: auto;"">
                                <img src=""images/G_D_U_27_lightshift.png"" style= ""width:200px""alt=""img"">
                            </div>
                        </div>","-117","","0","images/G_D_U_27_lightshift.png","","","","startling","1","G","D","U","lightshift","",""
"","","","","","html-slider-response","153","384040","0.0-149.0","ez6655c7c9","2","NaN","<div style=""width:500px;"">
                            <p style=""font-size:50px; font-weight:bold;""
                            >startling</p>
                            <div style=""width:240px; margin: auto;"">
                                <img src=""images/B_D_S_33_lightshift.png"" style= ""width:200px""alt=""img"">
                            </div>
                        </div>","-114","","0","images/B_D_S_33_lightshift.png","","","","startling","2","B","D","S","lightshift","",""
"","","","","","html-slider-response","154","385428","0.0-150.0","ez6655c7c9","2","NaN","<div style=""width:500px;"">
                            <p style=""font-size:50px; font-weight:bold;""
                            >startling</p>
                            <div style=""width:240px; margin: auto;"">
                                <img src=""images/G_D_U_27_darkshift.png"" style= ""width:200px""alt=""img"">
                            </div>
                        </div>","-114","","0","images/G_D_U_27_darkshift.png","","","","startling","1","G","D","U","darkshift","",""
"","","","","","html-slider-response","155","386551","0.0-151.0","ez6655c7c9","2","NaN","<div style=""width:500px;"">
                            <p style=""font-size:50px; font-weight:bold;""
                            >startling</p>
                            <div style=""width:240px; margin: auto;"">
                                <img src=""images/G_L_U_23_darkshift.png"" style= ""width:200px""alt=""img"">
                            </div>
                        </div>","-114","","0","images/G_L_U_23_darkshift.png","","","","startling","1","G","L","U","darkshift","",""
"","","","","","html-slider-response","156","387962","0.0-152.0","ez6655c7c9","2","NaN","<div style=""width:500px;"">
                            <p style=""font-size:50px; font-weight:bold;""
                            >startling</p>
                            <div style=""width:240px; margin: auto;"">
                                <img src=""images/Y_D_S_2_lightshift.png"" style= ""width:200px""alt=""img"">
                            </div>
                        </div>","-113","","0","images/Y_D_S_2_lightshift.png","","","","startling","2","Y","D","S","lightshift","",""
"","","","","","html-slider-response","157","389045","0.0-153.0","ez6655c7c9","2","NaN","<div style=""width:500px;"">
                            <p style=""font-size:50px; font-weight:bold;""
                            >startling</p>
                            <div style=""width:240px; margin: auto;"">
                                <img src=""images/G_D_U_27_darkshift.png"" style= ""width:200px""alt=""img"">
                            </div>
                        </div>","-113","","0","images/G_D_U_27_darkshift.png","","","","startling","2","G","D","U","darkshift","",""
"","","","","","html-slider-response","158","390037","0.0-154.0","ez6655c7c9","2","NaN","<div style=""width:500px;"">
                            <p style=""font-size:50px; font-weight:bold;""
                            >startling</p>
                            <div style=""width:240px; margin: auto;"">
                                <img src=""images/Y_D_S_2_lightshift.png"" style= ""width:200px""alt=""img"">
                            </div>
                        </div>","-91","","0","images/Y_D_S_2_lightshift.png","","","","startling","1","Y","D","S","lightshift","",""
"","","","","","html-slider-response","159","391127","0.0-155.0","ez6655c7c9","2","NaN","<div style=""width:500px;"">
                            <p style=""font-size:50px; font-weight:bold;""
                            >startling</p>
                            <div style=""width:240px; margin: auto;"">
                                <img src=""images/Y_D_U_5_darkshift.png"" style= ""width:200px""alt=""img"">
                            </div>
                        </div>","-165","","0","images/Y_D_U_5_darkshift.png","","","","startling","1","Y","D","U","darkshift","",""
"","","","","","html-slider-response","160","392887","0.0-156.0","ez6655c7c9","2","NaN","<div style=""width:500px;"">
                            <p style=""font-size:50px; font-weight:bold;""
                            >startling</p>
                            <div style=""width:240px; margin: auto;"">
                                <img src=""images/R_L_U_10_darkshift.png"" style= ""width:200px""alt=""img"">
                            </div>
                        </div>","15","","0","images/R_L_U_10_darkshift.png","","","","startling","2","R","L","U","darkshift","",""
"","","","","","html-slider-response","161","394017","0.0-157.0","ez6655c7c9","2","NaN","<div style=""width:500px;"">
                            <p style=""font-size:50px; font-weight:bold;""
                            >startling</p>
                            <div style=""width:240px; margin: auto;"">
                                <img src=""images/Y_D_U_5_lightshift.png"" style= ""width:200px""alt=""img"">
                            </div>
                        </div>","-73","","0","images/Y_D_U_5_lightshift.png","","","","startling","1","Y","D","U","lightshift","",""
"","","","","","html-slider-response","162","395597","0.0-158.0","ez6655c7c9","2","NaN","<div style=""width:500px;"">
                            <p style=""font-size:50px; font-weight:bold;""
                            >startling</p>
                            <div style=""width:240px; margin: auto;"">
                                <img src=""images/G_L_S_15_lightshift.png"" style= ""width:200px""alt=""img"">
                            </div>
                        </div>","101","","0","images/G_L_S_15_lightshift.png","","","","startling","2","G","L","S","lightshift","",""
"","","","","","html-slider-response","163","397036","0.0-159.0","ez6655c7c9","2","NaN","<div style=""width:500px;"">
                            <p style=""font-size:50px; font-weight:bold;""
                            >startling</p>
                            <div style=""width:240px; margin: auto;"">
                                <img src=""images/B_L_U_30_lightshift.png"" style= ""width:200px""alt=""img"">
                            </div>
                        </div>","163","","0","images/B_L_U_30_lightshift.png","","","","startling","2","B","L","U","lightshift","",""
"","","","","","html-slider-response","164","398213","0.0-160.0","ez6655c7c9","2","NaN","<div style=""width:500px;"">
                            <p style=""font-size:50px; font-weight:bold;""
                            >startling</p>
                            <div style=""width:240px; margin: auto;"">
                                <img src=""images/R_L_S_7_lightshift.png"" style= ""width:200px""alt=""img"">
                            </div>
                        </div>","101","","0","images/R_L_S_7_lightshift.png","","","","startling","2","R","L","S","lightshift","",""
"","","","","","html-slider-response","165","399295","0.0-161.0","ez6655c7c9","2","NaN","<div style=""width:500px;"">
                            <p style=""font-size:50px; font-weight:bold;""
                            >startling</p>
                            <div style=""width:240px; margin: auto;"">
                                <img src=""images/B_L_S_28_darkshift.png"" style= ""width:200px""alt=""img"">
                            </div>
                        </div>","156","","0","images/B_L_S_28_darkshift.png","","","","startling","2","B","L","S","darkshift","",""
"","","","","","html-slider-response","166","400498","0.0-162.0","ez6655c7c9","2","NaN","<div style=""width:500px;"">
                            <p style=""font-size:50px; font-weight:bold;""
                            >startling</p>
                            <div style=""width:240px; margin: auto;"">
                                <img src=""images/Y_L_S_41_lightshift.png"" style= ""width:200px""alt=""img"">
                            </div>
                        </div>","104","","0","images/Y_L_S_41_lightshift.png","","","","startling","1","Y","L","S","lightshift","",""
"","","","","","html-slider-response","167","401523","0.0-163.0","ez6655c7c9","2","NaN","<div style=""width:500px;"">
                            <p style=""font-size:50px; font-weight:bold;""
                            >startling</p>
                            <div style=""width:240px; margin: auto;"">
                                <img src=""images/R_D_S_12_lightshift.png"" style= ""width:200px""alt=""img"">
                            </div>
                        </div>","186","","0","images/R_D_S_12_lightshift.png","","","","startling","1","R","D","S","lightshift","",""
"","","","","","html-slider-response","168","402564","0.0-164.0","ez6655c7c9","2","NaN","<div style=""width:500px;"">
                            <p style=""font-size:50px; font-weight:bold;""
                            >startling</p>
                            <div style=""width:240px; margin: auto;"">
                                <img src=""images/Y_L_U_44_lightshift.png"" style= ""width:200px""alt=""img"">
                            </div>
                        </div>","144","","0","images/Y_L_U_44_lightshift.png","","","","startling","2","Y","L","U","lightshift","",""
"","","","","","html-slider-response","169","403645","0.0-165.0","ez6655c7c9","2","NaN","<div style=""width:500px;"">
                            <p style=""font-size:50px; font-weight:bold;""
                            >startling</p>
                            <div style=""width:240px; margin: auto;"">
                                <img src=""images/R_L_S_7_darkshift.png"" style= ""width:200px""alt=""img"">
                            </div>
                        </div>","56","","0","images/R_L_S_7_darkshift.png","","","","startling","2","R","L","S","darkshift","",""
"","","","","","html-slider-response","170","404945","0.0-166.0","ez6655c7c9","2","NaN","<div style=""width:500px;"">
                            <p style=""font-size:50px; font-weight:bold;""
                            >startling</p>
                            <div style=""width:240px; margin: auto;"">
                                <img src=""images/R_L_S_7_lightshift.png"" style= ""width:200px""alt=""img"">
                            </div>
                        </div>","154","","0","images/R_L_S_7_lightshift.png","","","","startling","1","R","L","S","lightshift","",""
"","","","","","html-slider-response","171","406512","0.0-167.0","ez6655c7c9","2","NaN","<div style=""width:500px;"">
                            <p style=""font-size:50px; font-weight:bold;""
                            >startling</p>
                            <div style=""width:240px; margin: auto;"">
                                <img src=""images/R_D_U_13_lightshift.png"" style= ""width:200px""alt=""img"">
                            </div>
                        </div>","-122","","0","images/R_D_U_13_lightshift.png","","","","startling","2","R","D","U","lightshift","",""
"","","","","","html-slider-response","172","408192","0.0-168.0","ez6655c7c9","2","NaN","<div style=""width:500px;"">
                            <p style=""font-size:50px; font-weight:bold;""
                            >startling</p>
                            <div style=""width:240px; margin: auto;"">
                                <img src=""images/G_L_S_15_darkshift.png"" style= ""width:200px""alt=""img"">
                            </div>
                        </div>","46","","0","images/G_L_S_15_darkshift.png","","","","startling","2","G","L","S","darkshift","",""
"","","","","","html-slider-response","173","410030","0.0-169.0","ez6655c7c9","2","NaN","<div style=""width:500px;"">
                            <p style=""font-size:50px; font-weight:bold;""
                            >startling</p>
                            <div style=""width:240px; margin: auto;"">
                                <img src=""images/B_L_U_30_lightshift.png"" style= ""width:200px""alt=""img"">
                            </div>
                        </div>","102","","0","images/B_L_U_30_lightshift.png","","","","startling","1","B","L","U","lightshift","",""
