"success","timeout","failed_images","failed_audio","failed_video","trial_type","trial_index","time_elapsed","internal_node_id","subject_id","condition_num","rt","stimulus","response","question_order","slider_start","image_path","practiceTrial","practiceTrialNum","correct","concept","repetition","hue","lightness","saturation","shift","ishihara_plate","correct_response"
"true","false","[]","[]","[]","preload","0","351","0.0-0.0","hlk42mg12e","6","","","","","","","","","","","","","","","","",""
"","","","","","html-button-response","1","5433","0.0-1.0","hlk42mg12e","6","5081","Welcome to our experiment!<p>At the bottom of this screen, you will see a button that says ""Begin Experiment"".<br>Please only click that button when you are ready to complete the 25 minute experiment in one sitting.</p><p> Once you click that button, it will not be possible to restart the experiment.","0","","","","","","","","","","","","","",""
"true","","","","","fullscreen","2","8048","0.0-2.0","hlk42mg12e","6","1609","","","","","","","","","","","","","","","",""
"","","","","","survey-multi-select","3","16478","0.0-3.0","hlk42mg12e","6","8424","","{""Consent"":[""<strong>I consent</strong>""]}","[0]","","","","","","","","","","","","",""
"","","","","","html-button-response","4","20472","0.0-4.0","hlk42mg12e","6","3993","Welcome! <p> This experiment involves two parts: demographic information, followed by the experimental task.<p> It will take about 25 minutes to complete both parts.","0","","","","","","","","","","","","","",""
"","","","","","survey-text","5","32407","0.0-5.0","hlk42mg12e","6","11923","","{""Age"":""20"",""Gender"":""Female"",""Race/ethnicity"":""white"",""Languages"":""English""}","","","","","","","","","","","","","",""
"","","","","","html-slider-response","6","80419","0.0-6.0","hlk42mg12e","6","48008","
                            <div style='text-align:left; font-size:20px; line-height:25px; width: 1400px;'>
                                During this experiment you will be asked to rate how much you associate maps with                    different concepts.<br> Below, you can see some examples of the maps you will be asked to rate. Next to the maps
                    is the list of concepts.<br>You will be asked                    to rate how much you associate each map with each concept on a scale from 'not at all' to 'very much' like the
                    one below. <br><br>
                    Now, please look at the list of concepts and maps. For each concept, think about the map you associate 'very
                    much' with the concept.<br>                     When you see that map during the experiment, please rate it near the 'very much' endpoint of the
                    scale.<br>Now, please think about which map you associate 'not at all'                     with each concept. When you see that map during the experiment, please rate it near the 'not at all' endpoint
                    of the scale.<br>
                    Please use the full range of the scale. That is, if a map is somewhat associated with the concept, you would
                    click partway between the middle point and right side of the scale.                    You will be asked to rate each map for a given concept before moving on to the next concept.<br><br>Press the
                    'Continue' button for instructions on how to use the slider.                    <br><br>
                </div>

                <div style=""width: 500px; margin: 0 auto;"">
                    <!-- Centered text paragraphs -->
                    <div style=""text-align: center; width: 500px;"">
                        <p style=""font-size:25px; line-height:18px;"">calm</p>
                        <p style=""font-size:25px; line-height:18px;"">positive</p>
                        <p style=""font-size:25px;line-height:18px;"">negative</p>
                        <p style=""font-size:25px;line-height:18px;"">startling</p>
                    </div>

                    <!-- Grid section -->
                   <div style=""display: flex; justify-content: center; padding-top: 15px;"">
                    <div style=""display: grid; grid-template-columns: repeat(8, 80px); grid-gap: 5px; width: auto;"">
                        <img src=""images/B_L_U_44_lightshift.png"" alt=""map"" style=""width: 100%;""><img src=""images/G_D_S_33_darkshift.png"" alt=""map"" style=""width: 100%;""><img src=""images/B_L_S_41_lightshift.png"" alt=""map"" style=""width: 100%;""><img src=""images/B_D_U_5_lightshift.png"" alt=""map"" style=""width: 100%;""><img src=""images/Y_L_U_10_lightshift.png"" alt=""map"" style=""width: 100%;""><img src=""images/Y_D_S_12_lightshift.png"" alt=""map"" style=""width: 100%;""><img src=""images/Y_D_U_13_lightshift.png"" alt=""map"" style=""width: 100%;""><img src=""images/B_D_U_5_darkshift.png"" alt=""map"" style=""width: 100%;""><img src=""images/Y_L_U_10_darkshift.png"" alt=""map"" style=""width: 100%;""><img src=""images/G_L_U_30_darkshift.png"" alt=""map"" style=""width: 100%;""><img src=""images/G_L_S_28_lightshift.png"" alt=""map"" style=""width: 100%;""><img src=""images/R_L_S_15_darkshift.png"" alt=""map"" style=""width: 100%;""><img src=""images/Y_L_S_7_darkshift.png"" alt=""map"" style=""width: 100%;""><img src=""images/R_D_U_27_lightshift.png"" alt=""map"" style=""width: 100%;""><img src=""images/B_D_S_2_darkshift.png"" alt=""map"" style=""width: 100%;""><img src=""images/R_L_S_15_lightshift.png"" alt=""map"" style=""width: 100%;""><img src=""images/R_L_U_23_lightshift.png"" alt=""map"" style=""width: 100%;""><img src=""images/Y_D_U_13_darkshift.png"" alt=""map"" style=""width: 100%;""><img src=""images/Y_L_S_7_lightshift.png"" alt=""map"" style=""width: 100%;""><img src=""images/G_D_S_33_lightshift.png"" alt=""map"" style=""width: 100%;""><img src=""images/R_D_S_26_lightshift.png"" alt=""map"" style=""width: 100%;""><img src=""images/B_D_S_2_lightshift.png"" alt=""map"" style=""width: 100%;""><img src=""images/G_L_S_28_darkshift.png"" alt=""map"" style=""width: 100%;""><img src=""images/Y_D_S_12_darkshift.png"" alt=""map"" style=""width: 100%;""><img src=""images/G_L_U_30_lightshift.png"" alt=""map"" style=""width: 100%;""><img src=""images/R_L_U_23_darkshift.png"" alt=""map"" style=""width: 100%;""><img src=""images/R_D_U_27_darkshift.png"" alt=""map"" style=""width: 100%;""><img src=""images/B_L_U_44_darkshift.png"" alt=""map"" style=""width: 100%;""><img src=""images/G_D_U_37_darkshift.png"" alt=""map"" style=""width: 100%;""><img src=""images/R_D_S_26_darkshift.png"" alt=""map"" style=""width: 100%;""><img src=""images/G_D_U_37_lightshift.png"" alt=""map"" style=""width: 100%;""><img src=""images/B_L_S_41_darkshift.png"" alt=""map"" style=""width: 100%;"">
                    </div>
                </div>

                    <!-- Clear floats -->
                    <div style=""clear: both;""></div>
                </div>
                            ","null","","0","maps_anchoring.png","true","","","","","","","","","",""
"","","","","","html-button-response","7","85567","0.0-7.0","hlk42mg12e","6","5147","<div style=""width:800px;""><p style=""text-align:left"">To move the slider, click and drag your cursor to the location of the scale where you would like to make your rating and then let go. When you let go of the slider, your response will be recorded and the next trial will begin. <br>
                    We are interested in your initial impressions of each map for the given concept, so please go with your first intuition. <br>
                    Before you begin the experiment, there will be four training trials for you to practice using the scale. <br>
                     When you are ready to start the training trials, please click ""Continue"".</p><br></div>","0","","","","","","","","","","","","","",""
"","","","","","html-slider-response","8","88376","0.0-8.0-0.0","hlk42mg12e","6","NaN","<div style=""width:500px;"">
                                    <p style=""font-size:25px;"">Please move the slider all the way to the <br> right endpoint of the scale</p>

                                    </div>
                                </div>","200","","0","","true","0","true","","","","","","","",""
"","","","","","html-button-response","9","89911","0.0-8.0-1.0","hlk42mg12e","6","1032","<p align='center'><b>Good job!</b> Click on 'Continue' to proceed.</p>","0","","","","","","","","","","","","","",""
"","","","","","html-slider-response","10","91591","0.0-9.0-0.0","hlk42mg12e","6","NaN","<div style=""width:500px;"">
                                    <p style=""font-size:25px;"">Please move the slider all the way to the <br> left endpoint of the scale</p>

                                    </div>
                                </div>","-200","","0","","true","1","true","","","","","","","",""
"","","","","","html-button-response","11","93069","0.0-9.0-1.0","hlk42mg12e","6","976","<p align='center'><b>Good job!</b> Click on 'Continue' to proceed.</p>","0","","","","","","","","","","","","","",""
"","","","","","html-slider-response","12","97664","0.0-10.0-0.0","hlk42mg12e","6","NaN","<div style=""width:500px;"">
                                    <p style=""font-size:25px;"">Please move the slider halfway between the center and right endpoint of the scale</p>

                                    </div>
                                </div>","104","","0","","true","2","true","","","","","","","",""
"","","","","","html-button-response","13","98851","0.0-10.0-1.0","hlk42mg12e","6","684","<p align='center'><b>Good job!</b> Click on 'Continue' to proceed.</p>","0","","","","","","","","","","","","","",""
"","","","","","html-slider-response","14","101605","0.0-11.0-0.0","hlk42mg12e","6","NaN","<div style=""width:500px;"">
                                    <p style=""font-size:25px;"">Please move the slider halfway between the center and left endpoint of the scale</p>

                                    </div>
                                </div>","-102","","0","","true","3","true","","","","","","","",""
"","","","","","html-button-response","15","102801","0.0-11.0-1.0","hlk42mg12e","6","693","<p align='center'><b>Good job!</b> Click on 'Continue' to proceed.</p>","0","","","","","","","","","","","","","",""
"","","","","","html-button-response","16","105264","0.0-12.0","hlk42mg12e","6","2462","<p>Great job! You've completed the practice trials. Now you will begin the main task.</p>","0","","","","","","","","","","","","","",""
"","","","","","html-button-response","17","109144","0.0-13.0","hlk42mg12e","6","3880","<p>In this block of trials, you will be asked to rate how much you associate each map with:</p > <p style = 'font-size:150%; font-weight: bold'>startling</p><br></br>","0","","","","","","","","","","","","","",""
"","","","","","html-slider-response","18","114051","0.0-14.0","hlk42mg12e","6","NaN","<div style=""width:500px;"">
                            <p style=""font-size:50px; font-weight:bold;""
                            >startling</p>
                            <div style=""width:240px; margin: auto;"">
                                <img src=""images/G_D_U_37_lightshift.png"" style= ""width:200px""alt=""img"">
                            </div>
                        </div>","-55","","0","images/G_D_U_37_lightshift.png","","","","startling","2","G","D","U","lightshift","",""
"","","","","","html-slider-response","19","116686","0.0-15.0","hlk42mg12e","6","NaN","<div style=""width:500px;"">
                            <p style=""font-size:50px; font-weight:bold;""
                            >startling</p>
                            <div style=""width:240px; margin: auto;"">
                                <img src=""images/Y_L_S_7_darkshift.png"" style= ""width:200px""alt=""img"">
                            </div>
                        </div>","47","","0","images/Y_L_S_7_darkshift.png","","","","startling","2","Y","L","S","darkshift","",""
"","","","","","html-slider-response","20","118847","0.0-16.0","hlk42mg12e","6","NaN","<div style=""width:500px;"">
                            <p style=""font-size:50px; font-weight:bold;""
                            >startling</p>
                            <div style=""width:240px; margin: auto;"">
                                <img src=""images/Y_L_S_7_lightshift.png"" style= ""width:200px""alt=""img"">
                            </div>
                        </div>","-172","","0","images/Y_L_S_7_lightshift.png","","","","startling","2","Y","L","S","lightshift","",""
"","","","","","html-slider-response","21","121687","0.0-17.0","hlk42mg12e","6","NaN","<div style=""width:500px;"">
                            <p style=""font-size:50px; font-weight:bold;""
                            >startling</p>
                            <div style=""width:240px; margin: auto;"">
                                <img src=""images/Y_L_S_7_darkshift.png"" style= ""width:200px""alt=""img"">
                            </div>
                        </div>","88","","0","images/Y_L_S_7_darkshift.png","","","","startling","1","Y","L","S","darkshift","",""
"","","","","","html-slider-response","22","123653","0.0-18.0","hlk42mg12e","6","NaN","<div style=""width:500px;"">
                            <p style=""font-size:50px; font-weight:bold;""
                            >startling</p>
                            <div style=""width:240px; margin: auto;"">
                                <img src=""images/R_D_S_26_darkshift.png"" style= ""width:200px""alt=""img"">
                            </div>
                        </div>","-109","","0","images/R_D_S_26_darkshift.png","","","","startling","2","R","D","S","darkshift","",""
"","","","","","html-slider-response","23","125623","0.0-19.0","hlk42mg12e","6","NaN","<div style=""width:500px;"">
                            <p style=""font-size:50px; font-weight:bold;""
                            >startling</p>
                            <div style=""width:240px; margin: auto;"">
                                <img src=""images/R_D_U_27_darkshift.png"" style= ""width:200px""alt=""img"">
                            </div>
                        </div>","-168","","0","images/R_D_U_27_darkshift.png","","","","startling","1","R","D","U","darkshift","",""
"","","","","","html-slider-response","24","127900","0.0-20.0","hlk42mg12e","6","NaN","<div style=""width:500px;"">
                            <p style=""font-size:50px; font-weight:bold;""
                            >startling</p>
                            <div style=""width:240px; margin: auto;"">
                                <img src=""images/G_D_S_33_lightshift.png"" style= ""width:200px""alt=""img"">
                            </div>
                        </div>","74","","0","images/G_D_S_33_lightshift.png","","","","startling","2","G","D","S","lightshift","",""
"","","","","","html-slider-response","25","129848","0.0-21.0","hlk42mg12e","6","NaN","<div style=""width:500px;"">
                            <p style=""font-size:50px; font-weight:bold;""
                            >startling</p>
                            <div style=""width:240px; margin: auto;"">
                                <img src=""images/R_L_S_15_darkshift.png"" style= ""width:200px""alt=""img"">
                            </div>
                        </div>","-124","","0","images/R_L_S_15_darkshift.png","","","","startling","1","R","L","S","darkshift","",""
"","","","","","html-slider-response","26","131546","0.0-22.0","hlk42mg12e","6","NaN","<div style=""width:500px;"">
                            <p style=""font-size:50px; font-weight:bold;""
                            >startling</p>
                            <div style=""width:240px; margin: auto;"">
                                <img src=""images/G_D_U_37_darkshift.png"" style= ""width:200px""alt=""img"">
                            </div>
                        </div>","200","","0","images/G_D_U_37_darkshift.png","","","","startling","2","G","D","U","darkshift","",""
"","","","","","html-slider-response","27","133237","0.0-23.0","hlk42mg12e","6","NaN","<div style=""width:500px;"">
                            <p style=""font-size:50px; font-weight:bold;""
                            >startling</p>
                            <div style=""width:240px; margin: auto;"">
                                <img src=""images/R_D_U_27_darkshift.png"" style= ""width:200px""alt=""img"">
                            </div>
                        </div>","200","","0","images/R_D_U_27_darkshift.png","","","","startling","2","R","D","U","darkshift","",""
"","","","","","html-slider-response","28","136729","0.0-24.0","hlk42mg12e","6","NaN","<div style=""width:500px;"">
                            <p style=""font-size:50px; font-weight:bold;""
                            >startling</p>
                            <div style=""width:240px; margin: auto;"">
                                <img src=""images/G_D_S_33_darkshift.png"" style= ""width:200px""alt=""img"">
                            </div>
                        </div>","-135","","0","images/G_D_S_33_darkshift.png","","","","startling","2","G","D","S","darkshift","",""
"","","","","","html-slider-response","29","138722","0.0-25.0","hlk42mg12e","6","NaN","<div style=""width:500px;"">
                            <p style=""font-size:50px; font-weight:bold;""
                            >startling</p>
                            <div style=""width:240px; margin: auto;"">
                                <img src=""images/Y_L_U_10_lightshift.png"" style= ""width:200px""alt=""img"">
                            </div>
                        </div>","-200","","0","images/Y_L_U_10_lightshift.png","","","","startling","2","Y","L","U","lightshift","",""
"","","","","","html-slider-response","30","141635","0.0-26.0","hlk42mg12e","6","NaN","<div style=""width:500px;"">
                            <p style=""font-size:50px; font-weight:bold;""
                            >startling</p>
                            <div style=""width:240px; margin: auto;"">
                                <img src=""images/R_L_S_15_lightshift.png"" style= ""width:200px""alt=""img"">
                            </div>
                        </div>","-109","","0","images/R_L_S_15_lightshift.png","","","","startling","1","R","L","S","lightshift","",""
"","","","","","html-slider-response","31","143811","0.0-27.0","hlk42mg12e","6","NaN","<div style=""width:500px;"">
                            <p style=""font-size:50px; font-weight:bold;""
                            >startling</p>
                            <div style=""width:240px; margin: auto;"">
                                <img src=""images/G_D_U_37_lightshift.png"" style= ""width:200px""alt=""img"">
                            </div>
                        </div>","-158","","0","images/G_D_U_37_lightshift.png","","","","startling","1","G","D","U","lightshift","",""
"","","","","","html-slider-response","32","145652","0.0-28.0","hlk42mg12e","6","NaN","<div style=""width:500px;"">
                            <p style=""font-size:50px; font-weight:bold;""
                            >startling</p>
                            <div style=""width:240px; margin: auto;"">
                                <img src=""images/B_D_S_2_darkshift.png"" style= ""width:200px""alt=""img"">
                            </div>
                        </div>","-55","","0","images/B_D_S_2_darkshift.png","","","","startling","2","B","D","S","darkshift","",""
"","","","","","html-slider-response","33","148301","0.0-29.0","hlk42mg12e","6","NaN","<div style=""width:500px;"">
                            <p style=""font-size:50px; font-weight:bold;""
                            >startling</p>
                            <div style=""width:240px; margin: auto;"">
                                <img src=""images/B_D_U_5_darkshift.png"" style= ""width:200px""alt=""img"">
                            </div>
                        </div>","168","","0","images/B_D_U_5_darkshift.png","","","","startling","1","B","D","U","darkshift","",""
"","","","","","html-slider-response","34","150240","0.0-30.0","hlk42mg12e","6","NaN","<div style=""width:500px;"">
                            <p style=""font-size:50px; font-weight:bold;""
                            >startling</p>
                            <div style=""width:240px; margin: auto;"">
                                <img src=""images/G_L_U_30_darkshift.png"" style= ""width:200px""alt=""img"">
                            </div>
                        </div>","-59","","0","images/G_L_U_30_darkshift.png","","","","startling","1","G","L","U","darkshift","",""
"","","","","","html-slider-response","35","152440","0.0-31.0","hlk42mg12e","6","NaN","<div style=""width:500px;"">
                            <p style=""font-size:50px; font-weight:bold;""
                            >startling</p>
                            <div style=""width:240px; margin: auto;"">
                                <img src=""images/R_L_S_15_lightshift.png"" style= ""width:200px""alt=""img"">
                            </div>
                        </div>","-200","","0","images/R_L_S_15_lightshift.png","","","","startling","2","R","L","S","lightshift","",""
"","","","","","html-slider-response","36","154271","0.0-32.0","hlk42mg12e","6","NaN","<div style=""width:500px;"">
                            <p style=""font-size:50px; font-weight:bold;""
                            >startling</p>
                            <div style=""width:240px; margin: auto;"">
                                <img src=""images/G_L_S_28_lightshift.png"" style= ""width:200px""alt=""img"">
                            </div>
                        </div>","-200","","0","images/G_L_S_28_lightshift.png","","","","startling","2","G","L","S","lightshift","",""
"","","","","","html-slider-response","37","157216","0.0-33.0","hlk42mg12e","6","NaN","<div style=""width:500px;"">
                            <p style=""font-size:50px; font-weight:bold;""
                            >startling</p>
                            <div style=""width:240px; margin: auto;"">
                                <img src=""images/G_D_U_37_darkshift.png"" style= ""width:200px""alt=""img"">
                            </div>
                        </div>","122","","0","images/G_D_U_37_darkshift.png","","","","startling","1","G","D","U","darkshift","",""
"","","","","","html-slider-response","38","159262","0.0-34.0","hlk42mg12e","6","NaN","<div style=""width:500px;"">
                            <p style=""font-size:50px; font-weight:bold;""
                            >startling</p>
                            <div style=""width:240px; margin: auto;"">
                                <img src=""images/Y_D_U_13_lightshift.png"" style= ""width:200px""alt=""img"">
                            </div>
                        </div>","48","","0","images/Y_D_U_13_lightshift.png","","","","startling","1","Y","D","U","lightshift","",""
"","","","","","html-slider-response","39","161166","0.0-35.0","hlk42mg12e","6","NaN","<div style=""width:500px;"">
                            <p style=""font-size:50px; font-weight:bold;""
                            >startling</p>
                            <div style=""width:240px; margin: auto;"">
                                <img src=""images/G_D_S_33_lightshift.png"" style= ""width:200px""alt=""img"">
                            </div>
                        </div>","-145","","0","images/G_D_S_33_lightshift.png","","","","startling","1","G","D","S","lightshift","",""
"","","","","","html-slider-response","40","162870","0.0-36.0","hlk42mg12e","6","NaN","<div style=""width:500px;"">
                            <p style=""font-size:50px; font-weight:bold;""
                            >startling</p>
                            <div style=""width:240px; margin: auto;"">
                                <img src=""images/R_L_U_23_darkshift.png"" style= ""width:200px""alt=""img"">
                            </div>
                        </div>","-143","","0","images/R_L_U_23_darkshift.png","","","","startling","1","R","L","U","darkshift","",""
"","","","","","html-slider-response","41","164944","0.0-37.0","hlk42mg12e","6","NaN","<div style=""width:500px;"">
                            <p style=""font-size:50px; font-weight:bold;""
                            >startling</p>
                            <div style=""width:240px; margin: auto;"">
                                <img src=""images/B_L_U_44_darkshift.png"" style= ""width:200px""alt=""img"">
                            </div>
                        </div>","-130","","0","images/B_L_U_44_darkshift.png","","","","startling","1","B","L","U","darkshift","",""
"","","","","","html-slider-response","42","166620","0.0-38.0","hlk42mg12e","6","NaN","<div style=""width:500px;"">
                            <p style=""font-size:50px; font-weight:bold;""
                            >startling</p>
                            <div style=""width:240px; margin: auto;"">
                                <img src=""images/Y_L_S_7_lightshift.png"" style= ""width:200px""alt=""img"">
                            </div>
                        </div>","-169","","0","images/Y_L_S_7_lightshift.png","","","","startling","1","Y","L","S","lightshift","",""
"","","","","","html-slider-response","43","169104","0.0-39.0","hlk42mg12e","6","NaN","<div style=""width:500px;"">
                            <p style=""font-size:50px; font-weight:bold;""
                            >startling</p>
                            <div style=""width:240px; margin: auto;"">
                                <img src=""images/R_D_S_26_lightshift.png"" style= ""width:200px""alt=""img"">
                            </div>
                        </div>","-155","","0","images/R_D_S_26_lightshift.png","","","","startling","2","R","D","S","lightshift","",""
"","","","","","html-slider-response","44","171196","0.0-40.0","hlk42mg12e","6","NaN","<div style=""width:500px;"">
                            <p style=""font-size:50px; font-weight:bold;""
                            >startling</p>
                            <div style=""width:240px; margin: auto;"">
                                <img src=""images/Y_D_S_12_darkshift.png"" style= ""width:200px""alt=""img"">
                            </div>
                        </div>","138","","0","images/Y_D_S_12_darkshift.png","","","","startling","2","Y","D","S","darkshift","",""
"","","","","","html-slider-response","45","173081","0.0-41.0","hlk42mg12e","6","NaN","<div style=""width:500px;"">
                            <p style=""font-size:50px; font-weight:bold;""
                            >startling</p>
                            <div style=""width:240px; margin: auto;"">
                                <img src=""images/R_L_U_23_lightshift.png"" style= ""width:200px""alt=""img"">
                            </div>
                        </div>","-200","","0","images/R_L_U_23_lightshift.png","","","","startling","1","R","L","U","lightshift","",""
"","","","","","html-slider-response","46","174960","0.0-42.0","hlk42mg12e","6","NaN","<div style=""width:500px;"">
                            <p style=""font-size:50px; font-weight:bold;""
                            >startling</p>
                            <div style=""width:240px; margin: auto;"">
                                <img src=""images/R_D_U_27_lightshift.png"" style= ""width:200px""alt=""img"">
                            </div>
                        </div>","-200","","0","images/R_D_U_27_lightshift.png","","","","startling","2","R","D","U","lightshift","",""
"","","","","","html-slider-response","47","176895","0.0-43.0","hlk42mg12e","6","NaN","<div style=""width:500px;"">
                            <p style=""font-size:50px; font-weight:bold;""
                            >startling</p>
                            <div style=""width:240px; margin: auto;"">
                                <img src=""images/B_D_U_5_darkshift.png"" style= ""width:200px""alt=""img"">
                            </div>
                        </div>","78","","0","images/B_D_U_5_darkshift.png","","","","startling","2","B","D","U","darkshift","",""
"","","","","","html-slider-response","48","178465","0.0-44.0","hlk42mg12e","6","NaN","<div style=""width:500px;"">
                            <p style=""font-size:50px; font-weight:bold;""
                            >startling</p>
                            <div style=""width:240px; margin: auto;"">
                                <img src=""images/Y_D_S_12_darkshift.png"" style= ""width:200px""alt=""img"">
                            </div>
                        </div>","34","","0","images/Y_D_S_12_darkshift.png","","","","startling","1","Y","D","S","darkshift","",""
"","","","","","html-slider-response","49","180393","0.0-45.0","hlk42mg12e","6","NaN","<div style=""width:500px;"">
                            <p style=""font-size:50px; font-weight:bold;""
                            >startling</p>
                            <div style=""width:240px; margin: auto;"">
                                <img src=""images/R_L_U_23_darkshift.png"" style= ""width:200px""alt=""img"">
                            </div>
                        </div>","-133","","0","images/R_L_U_23_darkshift.png","","","","startling","2","R","L","U","darkshift","",""
"","","","","","html-slider-response","50","182120","0.0-46.0","hlk42mg12e","6","NaN","<div style=""width:500px;"">
                            <p style=""font-size:50px; font-weight:bold;""
                            >startling</p>
                            <div style=""width:240px; margin: auto;"">
                                <img src=""images/B_L_U_44_lightshift.png"" style= ""width:200px""alt=""img"">
                            </div>
                        </div>","-200","","0","images/B_L_U_44_lightshift.png","","","","startling","2","B","L","U","lightshift","",""
"","","","","","html-slider-response","51","184738","0.0-47.0","hlk42mg12e","6","NaN","<div style=""width:500px;"">
                            <p style=""font-size:50px; font-weight:bold;""
                            >startling</p>
                            <div style=""width:240px; margin: auto;"">
                                <img src=""images/B_D_U_5_lightshift.png"" style= ""width:200px""alt=""img"">
                            </div>
                        </div>","-102","","0","images/B_D_U_5_lightshift.png","","","","startling","2","B","D","U","lightshift","",""
"","","","","","html-slider-response","52","186672","0.0-48.0","hlk42mg12e","6","NaN","<div style=""width:500px;"">
                            <p style=""font-size:50px; font-weight:bold;""
                            >startling</p>
                            <div style=""width:240px; margin: auto;"">
                                <img src=""images/B_D_U_5_lightshift.png"" style= ""width:200px""alt=""img"">
                            </div>
                        </div>","-115","","0","images/B_D_U_5_lightshift.png","","","","startling","1","B","D","U","lightshift","",""
"","","","","","html-slider-response","53","188907","0.0-49.0","hlk42mg12e","6","NaN","<div style=""width:500px;"">
                            <p style=""font-size:50px; font-weight:bold;""
                            >startling</p>
                            <div style=""width:240px; margin: auto;"">
                                <img src=""images/G_L_U_30_darkshift.png"" style= ""width:200px""alt=""img"">
                            </div>
                        </div>","-145","","0","images/G_L_U_30_darkshift.png","","","","startling","2","G","L","U","darkshift","",""
"","","","","","html-slider-response","54","191388","0.0-50.0","hlk42mg12e","6","NaN","<div style=""width:500px;"">
                            <p style=""font-size:50px; font-weight:bold;""
                            >startling</p>
                            <div style=""width:240px; margin: auto;"">
                                <img src=""images/B_D_S_2_lightshift.png"" style= ""width:200px""alt=""img"">
                            </div>
                        </div>","-122","","0","images/B_D_S_2_lightshift.png","","","","startling","1","B","D","S","lightshift","",""
"","","","","","html-slider-response","55","192955","0.0-51.0","hlk42mg12e","6","NaN","<div style=""width:500px;"">
                            <p style=""font-size:50px; font-weight:bold;""
                            >startling</p>
                            <div style=""width:240px; margin: auto;"">
                                <img src=""images/B_L_S_41_darkshift.png"" style= ""width:200px""alt=""img"">
                            </div>
                        </div>","-142","","0","images/B_L_S_41_darkshift.png","","","","startling","2","B","L","S","darkshift","",""
"","","","","","html-slider-response","56","194832","0.0-52.0","hlk42mg12e","6","NaN","<div style=""width:500px;"">
                            <p style=""font-size:50px; font-weight:bold;""
                            >startling</p>
                            <div style=""width:240px; margin: auto;"">
                                <img src=""images/G_L_U_30_lightshift.png"" style= ""width:200px""alt=""img"">
                            </div>
                        </div>","-132","","0","images/G_L_U_30_lightshift.png","","","","startling","1","G","L","U","lightshift","",""
"","","","","","html-slider-response","57","196337","0.0-53.0","hlk42mg12e","6","NaN","<div style=""width:500px;"">
                            <p style=""font-size:50px; font-weight:bold;""
                            >startling</p>
                            <div style=""width:240px; margin: auto;"">
                                <img src=""images/B_L_U_44_lightshift.png"" style= ""width:200px""alt=""img"">
                            </div>
                        </div>","-147","","0","images/B_L_U_44_lightshift.png","","","","startling","1","B","L","U","lightshift","",""
"","","","","","html-slider-response","58","197993","0.0-54.0","hlk42mg12e","6","NaN","<div style=""width:500px;"">
                            <p style=""font-size:50px; font-weight:bold;""
                            >startling</p>
                            <div style=""width:240px; margin: auto;"">
                                <img src=""images/B_L_S_41_lightshift.png"" style= ""width:200px""alt=""img"">
                            </div>
                        </div>","-112","","0","images/B_L_S_41_lightshift.png","","","","startling","2","B","L","S","lightshift","",""
"","","","","","html-slider-response","59","200383","0.0-55.0","hlk42mg12e","6","NaN","<div style=""width:500px;"">
                            <p style=""font-size:50px; font-weight:bold;""
                            >startling</p>
                            <div style=""width:240px; margin: auto;"">
                                <img src=""images/Y_D_U_13_darkshift.png"" style= ""width:200px""alt=""img"">
                            </div>
                        </div>","119","","0","images/Y_D_U_13_darkshift.png","","","","startling","1","Y","D","U","darkshift","",""
"","","","","","html-slider-response","60","201975","0.0-56.0","hlk42mg12e","6","NaN","<div style=""width:500px;"">
                            <p style=""font-size:50px; font-weight:bold;""
                            >startling</p>
                            <div style=""width:240px; margin: auto;"">
                                <img src=""images/B_L_S_41_lightshift.png"" style= ""width:200px""alt=""img"">
                            </div>
                        </div>","-150","","0","images/B_L_S_41_lightshift.png","","","","startling","1","B","L","S","lightshift","",""
"","","","","","html-slider-response","61","203612","0.0-57.0","hlk42mg12e","6","NaN","<div style=""width:500px;"">
                            <p style=""font-size:50px; font-weight:bold;""
                            >startling</p>
                            <div style=""width:240px; margin: auto;"">
                                <img src=""images/R_D_U_27_lightshift.png"" style= ""width:200px""alt=""img"">
                            </div>
                        </div>","-94","","0","images/R_D_U_27_lightshift.png","","","","startling","1","R","D","U","lightshift","",""
"","","","","","html-slider-response","62","205113","0.0-58.0","hlk42mg12e","6","NaN","<div style=""width:500px;"">
                            <p style=""font-size:50px; font-weight:bold;""
                            >startling</p>
                            <div style=""width:240px; margin: auto;"">
                                <img src=""images/G_L_U_30_lightshift.png"" style= ""width:200px""alt=""img"">
                            </div>
                        </div>","-114","","0","images/G_L_U_30_lightshift.png","","","","startling","2","G","L","U","lightshift","",""
"","","","","","html-slider-response","63","206624","0.0-59.0","hlk42mg12e","6","NaN","<div style=""width:500px;"">
                            <p style=""font-size:50px; font-weight:bold;""
                            >startling</p>
                            <div style=""width:240px; margin: auto;"">
                                <img src=""images/B_D_S_2_darkshift.png"" style= ""width:200px""alt=""img"">
                            </div>
                        </div>","-135","","0","images/B_D_S_2_darkshift.png","","","","startling","1","B","D","S","darkshift","",""
"","","","","","html-slider-response","64","208096","0.0-60.0","hlk42mg12e","6","NaN","<div style=""width:500px;"">
                            <p style=""font-size:50px; font-weight:bold;""
                            >startling</p>
                            <div style=""width:240px; margin: auto;"">
                                <img src=""images/G_L_S_28_darkshift.png"" style= ""width:200px""alt=""img"">
                            </div>
                        </div>","-107","","0","images/G_L_S_28_darkshift.png","","","","startling","1","G","L","S","darkshift","",""
"","","","","","html-slider-response","65","209567","0.0-61.0","hlk42mg12e","6","NaN","<div style=""width:500px;"">
                            <p style=""font-size:50px; font-weight:bold;""
                            >startling</p>
                            <div style=""width:240px; margin: auto;"">
                                <img src=""images/Y_L_U_10_darkshift.png"" style= ""width:200px""alt=""img"">
                            </div>
                        </div>","-122","","0","images/Y_L_U_10_darkshift.png","","","","startling","2","Y","L","U","darkshift","",""
"","","","","","html-slider-response","66","211084","0.0-62.0","hlk42mg12e","6","NaN","<div style=""width:500px;"">
                            <p style=""font-size:50px; font-weight:bold;""
                            >startling</p>
                            <div style=""width:240px; margin: auto;"">
                                <img src=""images/G_L_S_28_lightshift.png"" style= ""width:200px""alt=""img"">
                            </div>
                        </div>","-98","","0","images/G_L_S_28_lightshift.png","","","","startling","1","G","L","S","lightshift","",""
"","","","","","html-slider-response","67","212402","0.0-63.0","hlk42mg12e","6","NaN","<div style=""width:500px;"">
                            <p style=""font-size:50px; font-weight:bold;""
                            >startling</p>
                            <div style=""width:240px; margin: auto;"">
                                <img src=""images/G_D_S_33_darkshift.png"" style= ""width:200px""alt=""img"">
                            </div>
                        </div>","-96","","0","images/G_D_S_33_darkshift.png","","","","startling","1","G","D","S","darkshift","",""
"","","","","","html-slider-response","68","214084","0.0-64.0","hlk42mg12e","6","NaN","<div style=""width:500px;"">
                            <p style=""font-size:50px; font-weight:bold;""
                            >startling</p>
                            <div style=""width:240px; margin: auto;"">
                                <img src=""images/Y_L_U_10_darkshift.png"" style= ""width:200px""alt=""img"">
                            </div>
                        </div>","-61","","0","images/Y_L_U_10_darkshift.png","","","","startling","1","Y","L","U","darkshift","",""
"","","","","","html-slider-response","69","215985","0.0-65.0","hlk42mg12e","6","NaN","<div style=""width:500px;"">
                            <p style=""font-size:50px; font-weight:bold;""
                            >startling</p>
                            <div style=""width:240px; margin: auto;"">
                                <img src=""images/Y_D_U_13_lightshift.png"" style= ""width:200px""alt=""img"">
                            </div>
                        </div>","34","","0","images/Y_D_U_13_lightshift.png","","","","startling","2","Y","D","U","lightshift","",""
"","","","","","html-slider-response","70","219526","0.0-66.0","hlk42mg12e","6","NaN","<div style=""width:500px;"">
                            <p style=""font-size:50px; font-weight:bold;""
                            >startling</p>
                            <div style=""width:240px; margin: auto;"">
                                <img src=""images/R_D_S_26_darkshift.png"" style= ""width:200px""alt=""img"">
                            </div>
                        </div>","23","","0","images/R_D_S_26_darkshift.png","","","","startling","1","R","D","S","darkshift","",""
"","","","","","html-slider-response","71","221790","0.0-67.0","hlk42mg12e","6","NaN","<div style=""width:500px;"">
                            <p style=""font-size:50px; font-weight:bold;""
                            >startling</p>
                            <div style=""width:240px; margin: auto;"">
                                <img src=""images/B_D_S_2_lightshift.png"" style= ""width:200px""alt=""img"">
                            </div>
                        </div>","-109","","0","images/B_D_S_2_lightshift.png","","","","startling","2","B","D","S","lightshift","",""
"","","","","","html-slider-response","72","224287","0.0-68.0","hlk42mg12e","6","NaN","<div style=""width:500px;"">
                            <p style=""font-size:50px; font-weight:bold;""
                            >startling</p>
                            <div style=""width:240px; margin: auto;"">
                                <img src=""images/R_D_S_26_lightshift.png"" style= ""width:200px""alt=""img"">
                            </div>
                        </div>","-113","","0","images/R_D_S_26_lightshift.png","","","","startling","1","R","D","S","lightshift","",""
"","","","","","html-slider-response","73","226957","0.0-69.0","hlk42mg12e","6","NaN","<div style=""width:500px;"">
                            <p style=""font-size:50px; font-weight:bold;""
                            >startling</p>
                            <div style=""width:240px; margin: auto;"">
                                <img src=""images/Y_D_S_12_lightshift.png"" style= ""width:200px""alt=""img"">
                            </div>
                        </div>","34","","0","images/Y_D_S_12_lightshift.png","","","","startling","2","Y","D","S","lightshift","",""
"","","","","","html-slider-response","74","228795","0.0-70.0","hlk42mg12e","6","NaN","<div style=""width:500px;"">
                            <p style=""font-size:50px; font-weight:bold;""
                            >startling</p>
                            <div style=""width:240px; margin: auto;"">
                                <img src=""images/B_L_U_44_darkshift.png"" style= ""width:200px""alt=""img"">
                            </div>
                        </div>","-114","","0","images/B_L_U_44_darkshift.png","","","","startling","2","B","L","U","darkshift","",""
"","","","","","html-slider-response","75","230899","0.0-71.0","hlk42mg12e","6","NaN","<div style=""width:500px;"">
                            <p style=""font-size:50px; font-weight:bold;""
                            >startling</p>
                            <div style=""width:240px; margin: auto;"">
                                <img src=""images/Y_D_U_13_darkshift.png"" style= ""width:200px""alt=""img"">
                            </div>
                        </div>","-131","","0","images/Y_D_U_13_darkshift.png","","","","startling","2","Y","D","U","darkshift","",""
"","","","","","html-slider-response","76","233049","0.0-72.0","hlk42mg12e","6","NaN","<div style=""width:500px;"">
                            <p style=""font-size:50px; font-weight:bold;""
                            >startling</p>
                            <div style=""width:240px; margin: auto;"">
                                <img src=""images/R_L_U_23_lightshift.png"" style= ""width:200px""alt=""img"">
                            </div>
                        </div>","-113","","0","images/R_L_U_23_lightshift.png","","","","startling","2","R","L","U","lightshift","",""
"","","","","","html-slider-response","77","234458","0.0-73.0","hlk42mg12e","6","NaN","<div style=""width:500px;"">
                            <p style=""font-size:50px; font-weight:bold;""
                            >startling</p>
                            <div style=""width:240px; margin: auto;"">
                                <img src=""images/G_L_S_28_darkshift.png"" style= ""width:200px""alt=""img"">
                            </div>
                        </div>","-94","","0","images/G_L_S_28_darkshift.png","","","","startling","2","G","L","S","darkshift","",""
"","","","","","html-slider-response","78","235868","0.0-74.0","hlk42mg12e","6","NaN","<div style=""width:500px;"">
                            <p style=""font-size:50px; font-weight:bold;""
                            >startling</p>
                            <div style=""width:240px; margin: auto;"">
                                <img src=""images/B_L_S_41_darkshift.png"" style= ""width:200px""alt=""img"">
                            </div>
                        </div>","-108","","0","images/B_L_S_41_darkshift.png","","","","startling","1","B","L","S","darkshift","",""
"","","","","","html-slider-response","79","238434","0.0-75.0","hlk42mg12e","6","NaN","<div style=""width:500px;"">
                            <p style=""font-size:50px; font-weight:bold;""
                            >startling</p>
                            <div style=""width:240px; margin: auto;"">
                                <img src=""images/Y_D_S_12_lightshift.png"" style= ""width:200px""alt=""img"">
                            </div>
                        </div>","16","","0","images/Y_D_S_12_lightshift.png","","","","startling","1","Y","D","S","lightshift","",""
"","","","","","html-slider-response","80","239920","0.0-76.0","hlk42mg12e","6","NaN","<div style=""width:500px;"">
                            <p style=""font-size:50px; font-weight:bold;""
                            >startling</p>
                            <div style=""width:240px; margin: auto;"">
                                <img src=""images/Y_L_U_10_lightshift.png"" style= ""width:200px""alt=""img"">
                            </div>
                        </div>","-197","","0","images/Y_L_U_10_lightshift.png","","","","startling","1","Y","L","U","lightshift","",""
"","","","","","html-slider-response","81","241486","0.0-77.0","hlk42mg12e","6","NaN","<div style=""width:500px;"">
                            <p style=""font-size:50px; font-weight:bold;""
                            >startling</p>
                            <div style=""width:240px; margin: auto;"">
                                <img src=""images/R_L_S_15_darkshift.png"" style= ""width:200px""alt=""img"">
                            </div>
                        </div>","-200","","0","images/R_L_S_15_darkshift.png","","","","startling","2","R","L","S","darkshift","",""
"","","","","","html-button-response","82","243480","0.0-78.0","hlk42mg12e","6","1491","<p>Great Job! You've finished block 1.<br></br> You have 3 block(s) left to go.<br></br></p>","0","","","","","","","","","","","","","",""
"","","","","","html-button-response","83","245694","0.0-79.0","hlk42mg12e","6","2213","<p>In this block of trials, you will be asked to rate how much you associate each map with:</p > <p style = 'font-size:150%; font-weight: bold'>negative</p><br></br>","0","","","","","","","","","","","","","",""
"","","","","","html-slider-response","84","247205","0.0-80.0","hlk42mg12e","6","NaN","<div style=""width:500px;"">
                            <p style=""font-size:50px; font-weight:bold;""
                            >negative</p>
                            <div style=""width:240px; margin: auto;"">
                                <img src=""images/R_D_S_26_darkshift.png"" style= ""width:200px""alt=""img"">
                            </div>
                        </div>","-200","","0","images/R_D_S_26_darkshift.png","","","","negative","2","R","D","S","darkshift","",""
"","","","","","html-slider-response","85","248597","0.0-81.0","hlk42mg12e","6","NaN","<div style=""width:500px;"">
                            <p style=""font-size:50px; font-weight:bold;""
                            >negative</p>
                            <div style=""width:240px; margin: auto;"">
                                <img src=""images/Y_L_S_7_darkshift.png"" style= ""width:200px""alt=""img"">
                            </div>
                        </div>","-200","","0","images/Y_L_S_7_darkshift.png","","","","negative","1","Y","L","S","darkshift","",""
"","","","","","html-slider-response","86","250657","0.0-82.0","hlk42mg12e","6","NaN","<div style=""width:500px;"">
                            <p style=""font-size:50px; font-weight:bold;""
                            >negative</p>
                            <div style=""width:240px; margin: auto;"">
                                <img src=""images/Y_D_S_12_lightshift.png"" style= ""width:200px""alt=""img"">
                            </div>
                        </div>","15","","0","images/Y_D_S_12_lightshift.png","","","","negative","1","Y","D","S","lightshift","",""
"","","","","","html-slider-response","87","252073","0.0-83.0","hlk42mg12e","6","NaN","<div style=""width:500px;"">
                            <p style=""font-size:50px; font-weight:bold;""
                            >negative</p>
                            <div style=""width:240px; margin: auto;"">
                                <img src=""images/R_L_S_15_darkshift.png"" style= ""width:200px""alt=""img"">
                            </div>
                        </div>","-200","","0","images/R_L_S_15_darkshift.png","","","","negative","1","R","L","S","darkshift","",""
"","","","","","html-slider-response","88","254130","0.0-84.0","hlk42mg12e","6","NaN","<div style=""width:500px;"">
                            <p style=""font-size:50px; font-weight:bold;""
                            >negative</p>
                            <div style=""width:240px; margin: auto;"">
                                <img src=""images/G_D_S_33_lightshift.png"" style= ""width:200px""alt=""img"">
                            </div>
                        </div>","-200","","0","images/G_D_S_33_lightshift.png","","","","negative","1","G","D","S","lightshift","",""
"","","","","","html-slider-response","89","257002","0.0-85.0","hlk42mg12e","6","NaN","<div style=""width:500px;"">
                            <p style=""font-size:50px; font-weight:bold;""
                            >negative</p>
                            <div style=""width:240px; margin: auto;"">
                                <img src=""images/B_D_U_5_lightshift.png"" style= ""width:200px""alt=""img"">
                            </div>
                        </div>","1","","0","images/B_D_U_5_lightshift.png","","","","negative","2","B","D","U","lightshift","",""
"","","","","","html-slider-response","90","258580","0.0-86.0","hlk42mg12e","6","NaN","<div style=""width:500px;"">
                            <p style=""font-size:50px; font-weight:bold;""
                            >negative</p>
                            <div style=""width:240px; margin: auto;"">
                                <img src=""images/G_L_S_28_lightshift.png"" style= ""width:200px""alt=""img"">
                            </div>
                        </div>","-141","","0","images/G_L_S_28_lightshift.png","","","","negative","1","G","L","S","lightshift","",""
"","","","","","html-slider-response","91","260379","0.0-87.0","hlk42mg12e","6","NaN","<div style=""width:500px;"">
                            <p style=""font-size:50px; font-weight:bold;""
                            >negative</p>
                            <div style=""width:240px; margin: auto;"">
                                <img src=""images/G_L_U_30_darkshift.png"" style= ""width:200px""alt=""img"">
                            </div>
                        </div>","48","","0","images/G_L_U_30_darkshift.png","","","","negative","2","G","L","U","darkshift","",""
"","","","","","html-slider-response","92","262799","0.0-88.0","hlk42mg12e","6","NaN","<div style=""width:500px;"">
                            <p style=""font-size:50px; font-weight:bold;""
                            >negative</p>
                            <div style=""width:240px; margin: auto;"">
                                <img src=""images/R_L_U_23_lightshift.png"" style= ""width:200px""alt=""img"">
                            </div>
                        </div>","-97","","0","images/R_L_U_23_lightshift.png","","","","negative","2","R","L","U","lightshift","",""
"","","","","","html-slider-response","93","264455","0.0-89.0","hlk42mg12e","6","NaN","<div style=""width:500px;"">
                            <p style=""font-size:50px; font-weight:bold;""
                            >negative</p>
                            <div style=""width:240px; margin: auto;"">
                                <img src=""images/B_L_U_44_lightshift.png"" style= ""width:200px""alt=""img"">
                            </div>
                        </div>","-144","","0","images/B_L_U_44_lightshift.png","","","","negative","2","B","L","U","lightshift","",""
"","","","","","html-slider-response","94","266364","0.0-90.0","hlk42mg12e","6","NaN","<div style=""width:500px;"">
                            <p style=""font-size:50px; font-weight:bold;""
                            >negative</p>
                            <div style=""width:240px; margin: auto;"">
                                <img src=""images/G_D_U_37_lightshift.png"" style= ""width:200px""alt=""img"">
                            </div>
                        </div>","41","","0","images/G_D_U_37_lightshift.png","","","","negative","1","G","D","U","lightshift","",""
"","","","","","html-slider-response","95","267700","0.0-91.0","hlk42mg12e","6","NaN","<div style=""width:500px;"">
                            <p style=""font-size:50px; font-weight:bold;""
                            >negative</p>
                            <div style=""width:240px; margin: auto;"">
                                <img src=""images/R_L_S_15_lightshift.png"" style= ""width:200px""alt=""img"">
                            </div>
                        </div>","-162","","0","images/R_L_S_15_lightshift.png","","","","negative","1","R","L","S","lightshift","",""
"","","","","","html-slider-response","96","269257","0.0-92.0","hlk42mg12e","6","NaN","<div style=""width:500px;"">
                            <p style=""font-size:50px; font-weight:bold;""
                            >negative</p>
                            <div style=""width:240px; margin: auto;"">
                                <img src=""images/Y_D_U_13_darkshift.png"" style= ""width:200px""alt=""img"">
                            </div>
                        </div>","200","","0","images/Y_D_U_13_darkshift.png","","","","negative","2","Y","D","U","darkshift","",""
"","","","","","html-slider-response","97","272391","0.0-93.0","hlk42mg12e","6","NaN","<div style=""width:500px;"">
                            <p style=""font-size:50px; font-weight:bold;""
                            >negative</p>
                            <div style=""width:240px; margin: auto;"">
                                <img src=""images/B_D_S_2_darkshift.png"" style= ""width:200px""alt=""img"">
                            </div>
                        </div>","-46","","0","images/B_D_S_2_darkshift.png","","","","negative","2","B","D","S","darkshift","",""
"","","","","","html-slider-response","98","274169","0.0-94.0","hlk42mg12e","6","NaN","<div style=""width:500px;"">
                            <p style=""font-size:50px; font-weight:bold;""
                            >negative</p>
                            <div style=""width:240px; margin: auto;"">
                                <img src=""images/B_D_S_2_darkshift.png"" style= ""width:200px""alt=""img"">
                            </div>
                        </div>","-83","","0","images/B_D_S_2_darkshift.png","","","","negative","1","B","D","S","darkshift","",""
"","","","","","html-slider-response","99","275945","0.0-95.0","hlk42mg12e","6","NaN","<div style=""width:500px;"">
                            <p style=""font-size:50px; font-weight:bold;""
                            >negative</p>
                            <div style=""width:240px; margin: auto;"">
                                <img src=""images/Y_L_U_10_darkshift.png"" style= ""width:200px""alt=""img"">
                            </div>
                        </div>","-78","","0","images/Y_L_U_10_darkshift.png","","","","negative","2","Y","L","U","darkshift","",""
"","","","","","html-slider-response","100","277474","0.0-96.0","hlk42mg12e","6","NaN","<div style=""width:500px;"">
                            <p style=""font-size:50px; font-weight:bold;""
                            >negative</p>
                            <div style=""width:240px; margin: auto;"">
                                <img src=""images/R_D_S_26_lightshift.png"" style= ""width:200px""alt=""img"">
                            </div>
                        </div>","-164","","0","images/R_D_S_26_lightshift.png","","","","negative","2","R","D","S","lightshift","",""
"","","","","","html-slider-response","101","279018","0.0-97.0","hlk42mg12e","6","NaN","<div style=""width:500px;"">
                            <p style=""font-size:50px; font-weight:bold;""
                            >negative</p>
                            <div style=""width:240px; margin: auto;"">
                                <img src=""images/Y_D_U_13_darkshift.png"" style= ""width:200px""alt=""img"">
                            </div>
                        </div>","200","","0","images/Y_D_U_13_darkshift.png","","","","negative","1","Y","D","U","darkshift","",""
"","","","","","html-slider-response","102","280988","0.0-98.0","hlk42mg12e","6","NaN","<div style=""width:500px;"">
                            <p style=""font-size:50px; font-weight:bold;""
                            >negative</p>
                            <div style=""width:240px; margin: auto;"">
                                <img src=""images/B_D_S_2_lightshift.png"" style= ""width:200px""alt=""img"">
                            </div>
                        </div>","-38","","0","images/B_D_S_2_lightshift.png","","","","negative","2","B","D","S","lightshift","",""
"","","","","","html-slider-response","103","282564","0.0-99.0","hlk42mg12e","6","NaN","<div style=""width:500px;"">
                            <p style=""font-size:50px; font-weight:bold;""
                            >negative</p>
                            <div style=""width:240px; margin: auto;"">
                                <img src=""images/R_L_U_23_darkshift.png"" style= ""width:200px""alt=""img"">
                            </div>
                        </div>","-57","","0","images/R_L_U_23_darkshift.png","","","","negative","1","R","L","U","darkshift","",""
"","","","","","html-slider-response","104","284683","0.0-100.0","hlk42mg12e","6","NaN","<div style=""width:500px;"">
                            <p style=""font-size:50px; font-weight:bold;""
                            >negative</p>
                            <div style=""width:240px; margin: auto;"">
                                <img src=""images/G_D_U_37_lightshift.png"" style= ""width:200px""alt=""img"">
                            </div>
                        </div>","44","","0","images/G_D_U_37_lightshift.png","","","","negative","2","G","D","U","lightshift","",""
"","","","","","html-slider-response","105","286232","0.0-101.0","hlk42mg12e","6","NaN","<div style=""width:500px;"">
                            <p style=""font-size:50px; font-weight:bold;""
                            >negative</p>
                            <div style=""width:240px; margin: auto;"">
                                <img src=""images/B_L_S_41_lightshift.png"" style= ""width:200px""alt=""img"">
                            </div>
                        </div>","-200","","0","images/B_L_S_41_lightshift.png","","","","negative","1","B","L","S","lightshift","",""
"","","","","","html-slider-response","106","287998","0.0-102.0","hlk42mg12e","6","NaN","<div style=""width:500px;"">
                            <p style=""font-size:50px; font-weight:bold;""
                            >negative</p>
                            <div style=""width:240px; margin: auto;"">
                                <img src=""images/G_D_S_33_lightshift.png"" style= ""width:200px""alt=""img"">
                            </div>
                        </div>","-200","","0","images/G_D_S_33_lightshift.png","","","","negative","2","G","D","S","lightshift","",""
"","","","","","html-slider-response","107","289902","0.0-103.0","hlk42mg12e","6","NaN","<div style=""width:500px;"">
                            <p style=""font-size:50px; font-weight:bold;""
                            >negative</p>
                            <div style=""width:240px; margin: auto;"">
                                <img src=""images/Y_D_S_12_darkshift.png"" style= ""width:200px""alt=""img"">
                            </div>
                        </div>","200","","0","images/Y_D_S_12_darkshift.png","","","","negative","1","Y","D","S","darkshift","",""
"","","","","","html-slider-response","108","292057","0.0-104.0","hlk42mg12e","6","NaN","<div style=""width:500px;"">
                            <p style=""font-size:50px; font-weight:bold;""
                            >negative</p>
                            <div style=""width:240px; margin: auto;"">
                                <img src=""images/G_L_S_28_darkshift.png"" style= ""width:200px""alt=""img"">
                            </div>
                        </div>","-110","","0","images/G_L_S_28_darkshift.png","","","","negative","2","G","L","S","darkshift","",""
"","","","","","html-slider-response","109","293917","0.0-105.0","hlk42mg12e","6","NaN","<div style=""width:500px;"">
                            <p style=""font-size:50px; font-weight:bold;""
                            >negative</p>
                            <div style=""width:240px; margin: auto;"">
                                <img src=""images/R_L_S_15_lightshift.png"" style= ""width:200px""alt=""img"">
                            </div>
                        </div>","-83","","0","images/R_L_S_15_lightshift.png","","","","negative","2","R","L","S","lightshift","",""
"","","","","","html-slider-response","110","295398","0.0-106.0","hlk42mg12e","6","NaN","<div style=""width:500px;"">
                            <p style=""font-size:50px; font-weight:bold;""
                            >negative</p>
                            <div style=""width:240px; margin: auto;"">
                                <img src=""images/G_L_S_28_darkshift.png"" style= ""width:200px""alt=""img"">
                            </div>
                        </div>","-171","","0","images/G_L_S_28_darkshift.png","","","","negative","1","G","L","S","darkshift","",""
"","","","","","html-slider-response","111","297159","0.0-107.0","hlk42mg12e","6","NaN","<div style=""width:500px;"">
                            <p style=""font-size:50px; font-weight:bold;""
                            >negative</p>
                            <div style=""width:240px; margin: auto;"">
                                <img src=""images/B_D_S_2_lightshift.png"" style= ""width:200px""alt=""img"">
                            </div>
                        </div>","-118","","0","images/B_D_S_2_lightshift.png","","","","negative","1","B","D","S","lightshift","",""
"","","","","","html-slider-response","112","298712","0.0-108.0","hlk42mg12e","6","NaN","<div style=""width:500px;"">
                            <p style=""font-size:50px; font-weight:bold;""
                            >negative</p>
                            <div style=""width:240px; margin: auto;"">
                                <img src=""images/R_D_S_26_lightshift.png"" style= ""width:200px""alt=""img"">
                            </div>
                        </div>","-66","","0","images/R_D_S_26_lightshift.png","","","","negative","1","R","D","S","lightshift","",""
"","","","","","html-slider-response","113","300769","0.0-109.0","hlk42mg12e","6","NaN","<div style=""width:500px;"">
                            <p style=""font-size:50px; font-weight:bold;""
                            >negative</p>
                            <div style=""width:240px; margin: auto;"">
                                <img src=""images/Y_L_U_10_lightshift.png"" style= ""width:200px""alt=""img"">
                            </div>
                        </div>","-200","","0","images/Y_L_U_10_lightshift.png","","","","negative","1","Y","L","U","lightshift","",""
"","","","","","html-slider-response","114","302316","0.0-110.0","hlk42mg12e","6","NaN","<div style=""width:500px;"">
                            <p style=""font-size:50px; font-weight:bold;""
                            >negative</p>
                            <div style=""width:240px; margin: auto;"">
                                <img src=""images/R_D_U_27_darkshift.png"" style= ""width:200px""alt=""img"">
                            </div>
                        </div>","200","","0","images/R_D_U_27_darkshift.png","","","","negative","1","R","D","U","darkshift","",""
"","","","","","html-slider-response","115","304018","0.0-111.0","hlk42mg12e","6","NaN","<div style=""width:500px;"">
                            <p style=""font-size:50px; font-weight:bold;""
                            >negative</p>
                            <div style=""width:240px; margin: auto;"">
                                <img src=""images/B_L_U_44_lightshift.png"" style= ""width:200px""alt=""img"">
                            </div>
                        </div>","-200","","0","images/B_L_U_44_lightshift.png","","","","negative","1","B","L","U","lightshift","",""
"","","","","","html-slider-response","116","305660","0.0-112.0","hlk42mg12e","6","NaN","<div style=""width:500px;"">
                            <p style=""font-size:50px; font-weight:bold;""
                            >negative</p>
                            <div style=""width:240px; margin: auto;"">
                                <img src=""images/R_L_S_15_darkshift.png"" style= ""width:200px""alt=""img"">
                            </div>
                        </div>","-134","","0","images/R_L_S_15_darkshift.png","","","","negative","2","R","L","S","darkshift","",""
"","","","","","html-slider-response","117","307251","0.0-113.0","hlk42mg12e","6","NaN","<div style=""width:500px;"">
                            <p style=""font-size:50px; font-weight:bold;""
                            >negative</p>
                            <div style=""width:240px; margin: auto;"">
                                <img src=""images/G_D_S_33_darkshift.png"" style= ""width:200px""alt=""img"">
                            </div>
                        </div>","58","","0","images/G_D_S_33_darkshift.png","","","","negative","2","G","D","S","darkshift","",""
"","","","","","html-slider-response","118","308725","0.0-114.0","hlk42mg12e","6","NaN","<div style=""width:500px;"">
                            <p style=""font-size:50px; font-weight:bold;""
                            >negative</p>
                            <div style=""width:240px; margin: auto;"">
                                <img src=""images/G_L_S_28_lightshift.png"" style= ""width:200px""alt=""img"">
                            </div>
                        </div>","-200","","0","images/G_L_S_28_lightshift.png","","","","negative","2","G","L","S","lightshift","",""
"","","","","","html-slider-response","119","310328","0.0-115.0","hlk42mg12e","6","NaN","<div style=""width:500px;"">
                            <p style=""font-size:50px; font-weight:bold;""
                            >negative</p>
                            <div style=""width:240px; margin: auto;"">
                                <img src=""images/Y_L_U_10_lightshift.png"" style= ""width:200px""alt=""img"">
                            </div>
                        </div>","-200","","0","images/Y_L_U_10_lightshift.png","","","","negative","2","Y","L","U","lightshift","",""
"","","","","","html-slider-response","120","312058","0.0-116.0","hlk42mg12e","6","NaN","<div style=""width:500px;"">
                            <p style=""font-size:50px; font-weight:bold;""
                            >negative</p>
                            <div style=""width:240px; margin: auto;"">
                                <img src=""images/R_D_U_27_lightshift.png"" style= ""width:200px""alt=""img"">
                            </div>
                        </div>","112","","0","images/R_D_U_27_lightshift.png","","","","negative","2","R","D","U","lightshift","",""
"","","","","","html-slider-response","121","313472","0.0-117.0","hlk42mg12e","6","NaN","<div style=""width:500px;"">
                            <p style=""font-size:50px; font-weight:bold;""
                            >negative</p>
                            <div style=""width:240px; margin: auto;"">
                                <img src=""images/G_L_U_30_lightshift.png"" style= ""width:200px""alt=""img"">
                            </div>
                        </div>","-200","","0","images/G_L_U_30_lightshift.png","","","","negative","1","G","L","U","lightshift","",""
"","","","","","html-slider-response","122","314954","0.0-118.0","hlk42mg12e","6","NaN","<div style=""width:500px;"">
                            <p style=""font-size:50px; font-weight:bold;""
                            >negative</p>
                            <div style=""width:240px; margin: auto;"">
                                <img src=""images/G_D_S_33_darkshift.png"" style= ""width:200px""alt=""img"">
                            </div>
                        </div>","98","","0","images/G_D_S_33_darkshift.png","","","","negative","1","G","D","S","darkshift","",""
"","","","","","html-slider-response","123","316383","0.0-119.0","hlk42mg12e","6","NaN","<div style=""width:500px;"">
                            <p style=""font-size:50px; font-weight:bold;""
                            >negative</p>
                            <div style=""width:240px; margin: auto;"">
                                <img src=""images/G_L_U_30_darkshift.png"" style= ""width:200px""alt=""img"">
                            </div>
                        </div>","67","","0","images/G_L_U_30_darkshift.png","","","","negative","1","G","L","U","darkshift","",""
"","","","","","html-slider-response","124","317838","0.0-120.0","hlk42mg12e","6","NaN","<div style=""width:500px;"">
                            <p style=""font-size:50px; font-weight:bold;""
                            >negative</p>
                            <div style=""width:240px; margin: auto;"">
                                <img src=""images/B_D_U_5_darkshift.png"" style= ""width:200px""alt=""img"">
                            </div>
                        </div>","200","","0","images/B_D_U_5_darkshift.png","","","","negative","1","B","D","U","darkshift","",""
"","","","","","html-slider-response","125","319231","0.0-121.0","hlk42mg12e","6","NaN","<div style=""width:500px;"">
                            <p style=""font-size:50px; font-weight:bold;""
                            >negative</p>
                            <div style=""width:240px; margin: auto;"">
                                <img src=""images/Y_L_S_7_lightshift.png"" style= ""width:200px""alt=""img"">
                            </div>
                        </div>","-200","","0","images/Y_L_S_7_lightshift.png","","","","negative","2","Y","L","S","lightshift","",""
"","","","","","html-slider-response","126","322121","0.0-122.0","hlk42mg12e","6","NaN","<div style=""width:500px;"">
                            <p style=""font-size:50px; font-weight:bold;""
                            >negative</p>
                            <div style=""width:240px; margin: auto;"">
                                <img src=""images/Y_L_S_7_darkshift.png"" style= ""width:200px""alt=""img"">
                            </div>
                        </div>","-30","","0","images/Y_L_S_7_darkshift.png","","","","negative","2","Y","L","S","darkshift","",""
"","","","","","html-slider-response","127","323824","0.0-123.0","hlk42mg12e","6","NaN","<div style=""width:500px;"">
                            <p style=""font-size:50px; font-weight:bold;""
                            >negative</p>
                            <div style=""width:240px; margin: auto;"">
                                <img src=""images/Y_D_S_12_lightshift.png"" style= ""width:200px""alt=""img"">
                            </div>
                        </div>","63","","0","images/Y_D_S_12_lightshift.png","","","","negative","2","Y","D","S","lightshift","",""
"","","","","","html-slider-response","128","325525","0.0-124.0","hlk42mg12e","6","NaN","<div style=""width:500px;"">
                            <p style=""font-size:50px; font-weight:bold;""
                            >negative</p>
                            <div style=""width:240px; margin: auto;"">
                                <img src=""images/B_L_U_44_darkshift.png"" style= ""width:200px""alt=""img"">
                            </div>
                        </div>","-96","","0","images/B_L_U_44_darkshift.png","","","","negative","2","B","L","U","darkshift","",""
"","","","","","html-slider-response","129","326972","0.0-125.0","hlk42mg12e","6","NaN","<div style=""width:500px;"">
                            <p style=""font-size:50px; font-weight:bold;""
                            >negative</p>
                            <div style=""width:240px; margin: auto;"">
                                <img src=""images/B_L_S_41_lightshift.png"" style= ""width:200px""alt=""img"">
                            </div>
                        </div>","-200","","0","images/B_L_S_41_lightshift.png","","","","negative","2","B","L","S","lightshift","",""
"","","","","","html-slider-response","130","329347","0.0-126.0","hlk42mg12e","6","NaN","<div style=""width:500px;"">
                            <p style=""font-size:50px; font-weight:bold;""
                            >negative</p>
                            <div style=""width:240px; margin: auto;"">
                                <img src=""images/B_L_S_41_darkshift.png"" style= ""width:200px""alt=""img"">
                            </div>
                        </div>","-82","","0","images/B_L_S_41_darkshift.png","","","","negative","2","B","L","S","darkshift","",""
"","","","","","html-slider-response","131","331638","0.0-127.0","hlk42mg12e","6","NaN","<div style=""width:500px;"">
                            <p style=""font-size:50px; font-weight:bold;""
                            >negative</p>
                            <div style=""width:240px; margin: auto;"">
                                <img src=""images/R_D_U_27_lightshift.png"" style= ""width:200px""alt=""img"">
                            </div>
                        </div>","22","","0","images/R_D_U_27_lightshift.png","","","","negative","1","R","D","U","lightshift","",""
"","","","","","html-slider-response","132","333117","0.0-128.0","hlk42mg12e","6","NaN","<div style=""width:500px;"">
                            <p style=""font-size:50px; font-weight:bold;""
                            >negative</p>
                            <div style=""width:240px; margin: auto;"">
                                <img src=""images/B_L_S_41_darkshift.png"" style= ""width:200px""alt=""img"">
                            </div>
                        </div>","-52","","0","images/B_L_S_41_darkshift.png","","","","negative","1","B","L","S","darkshift","",""
"","","","","","html-slider-response","133","334677","0.0-129.0","hlk42mg12e","6","NaN","<div style=""width:500px;"">
                            <p style=""font-size:50px; font-weight:bold;""
                            >negative</p>
                            <div style=""width:240px; margin: auto;"">
                                <img src=""images/Y_D_U_13_lightshift.png"" style= ""width:200px""alt=""img"">
                            </div>
                        </div>","186","","0","images/Y_D_U_13_lightshift.png","","","","negative","2","Y","D","U","lightshift","",""
"","","","","","html-slider-response","134","336133","0.0-130.0","hlk42mg12e","6","NaN","<div style=""width:500px;"">
                            <p style=""font-size:50px; font-weight:bold;""
                            >negative</p>
                            <div style=""width:240px; margin: auto;"">
                                <img src=""images/G_D_U_37_darkshift.png"" style= ""width:200px""alt=""img"">
                            </div>
                        </div>","200","","0","images/G_D_U_37_darkshift.png","","","","negative","2","G","D","U","darkshift","",""
"","","","","","html-slider-response","135","337705","0.0-131.0","hlk42mg12e","6","NaN","<div style=""width:500px;"">
                            <p style=""font-size:50px; font-weight:bold;""
                            >negative</p>
                            <div style=""width:240px; margin: auto;"">
                                <img src=""images/Y_D_U_13_lightshift.png"" style= ""width:200px""alt=""img"">
                            </div>
                        </div>","86","","0","images/Y_D_U_13_lightshift.png","","","","negative","1","Y","D","U","lightshift","",""
"","","","","","html-slider-response","136","339109","0.0-132.0","hlk42mg12e","6","NaN","<div style=""width:500px;"">
                            <p style=""font-size:50px; font-weight:bold;""
                            >negative</p>
                            <div style=""width:240px; margin: auto;"">
                                <img src=""images/R_L_U_23_darkshift.png"" style= ""width:200px""alt=""img"">
                            </div>
                        </div>","-106","","0","images/R_L_U_23_darkshift.png","","","","negative","2","R","L","U","darkshift","",""
"","","","","","html-slider-response","137","340798","0.0-133.0","hlk42mg12e","6","NaN","<div style=""width:500px;"">
                            <p style=""font-size:50px; font-weight:bold;""
                            >negative</p>
                            <div style=""width:240px; margin: auto;"">
                                <img src=""images/Y_L_S_7_lightshift.png"" style= ""width:200px""alt=""img"">
                            </div>
                        </div>","-160","","0","images/Y_L_S_7_lightshift.png","","","","negative","1","Y","L","S","lightshift","",""
"","","","","","html-slider-response","138","342353","0.0-134.0","hlk42mg12e","6","NaN","<div style=""width:500px;"">
                            <p style=""font-size:50px; font-weight:bold;""
                            >negative</p>
                            <div style=""width:240px; margin: auto;"">
                                <img src=""images/Y_D_S_12_darkshift.png"" style= ""width:200px""alt=""img"">
                            </div>
                        </div>","200","","0","images/Y_D_S_12_darkshift.png","","","","negative","2","Y","D","S","darkshift","",""
"","","","","","html-slider-response","139","343936","0.0-135.0","hlk42mg12e","6","NaN","<div style=""width:500px;"">
                            <p style=""font-size:50px; font-weight:bold;""
                            >negative</p>
                            <div style=""width:240px; margin: auto;"">
                                <img src=""images/Y_L_U_10_darkshift.png"" style= ""width:200px""alt=""img"">
                            </div>
                        </div>","-85","","0","images/Y_L_U_10_darkshift.png","","","","negative","1","Y","L","U","darkshift","",""
"","","","","","html-slider-response","140","345487","0.0-136.0","hlk42mg12e","6","NaN","<div style=""width:500px;"">
                            <p style=""font-size:50px; font-weight:bold;""
                            >negative</p>
                            <div style=""width:240px; margin: auto;"">
                                <img src=""images/G_L_U_30_lightshift.png"" style= ""width:200px""alt=""img"">
                            </div>
                        </div>","-57","","0","images/G_L_U_30_lightshift.png","","","","negative","2","G","L","U","lightshift","",""
"","","","","","html-slider-response","141","346917","0.0-137.0","hlk42mg12e","6","NaN","<div style=""width:500px;"">
                            <p style=""font-size:50px; font-weight:bold;""
                            >negative</p>
                            <div style=""width:240px; margin: auto;"">
                                <img src=""images/R_D_U_27_darkshift.png"" style= ""width:200px""alt=""img"">
                            </div>
                        </div>","152","","0","images/R_D_U_27_darkshift.png","","","","negative","2","R","D","U","darkshift","",""
"","","","","","html-slider-response","142","348466","0.0-138.0","hlk42mg12e","6","NaN","<div style=""width:500px;"">
                            <p style=""font-size:50px; font-weight:bold;""
                            >negative</p>
                            <div style=""width:240px; margin: auto;"">
                                <img src=""images/R_D_S_26_darkshift.png"" style= ""width:200px""alt=""img"">
                            </div>
                        </div>","-92","","0","images/R_D_S_26_darkshift.png","","","","negative","1","R","D","S","darkshift","",""
"","","","","","html-slider-response","143","351078","0.0-139.0","hlk42mg12e","6","NaN","<div style=""width:500px;"">
                            <p style=""font-size:50px; font-weight:bold;""
                            >negative</p>
                            <div style=""width:240px; margin: auto;"">
                                <img src=""images/B_D_U_5_lightshift.png"" style= ""width:200px""alt=""img"">
                            </div>
                        </div>","63","","0","images/B_D_U_5_lightshift.png","","","","negative","1","B","D","U","lightshift","",""
"","","","","","html-slider-response","144","352518","0.0-140.0","hlk42mg12e","6","NaN","<div style=""width:500px;"">
                            <p style=""font-size:50px; font-weight:bold;""
                            >negative</p>
                            <div style=""width:240px; margin: auto;"">
                                <img src=""images/G_D_U_37_darkshift.png"" style= ""width:200px""alt=""img"">
                            </div>
                        </div>","158","","0","images/G_D_U_37_darkshift.png","","","","negative","1","G","D","U","darkshift","",""
"","","","","","html-slider-response","145","354262","0.0-141.0","hlk42mg12e","6","NaN","<div style=""width:500px;"">
                            <p style=""font-size:50px; font-weight:bold;""
                            >negative</p>
                            <div style=""width:240px; margin: auto;"">
                                <img src=""images/B_D_U_5_darkshift.png"" style= ""width:200px""alt=""img"">
                            </div>
                        </div>","97","","0","images/B_D_U_5_darkshift.png","","","","negative","2","B","D","U","darkshift","",""
"","","","","","html-slider-response","146","355930","0.0-142.0","hlk42mg12e","6","NaN","<div style=""width:500px;"">
                            <p style=""font-size:50px; font-weight:bold;""
                            >negative</p>
                            <div style=""width:240px; margin: auto;"">
                                <img src=""images/R_L_U_23_lightshift.png"" style= ""width:200px""alt=""img"">
                            </div>
                        </div>","-172","","0","images/R_L_U_23_lightshift.png","","","","negative","1","R","L","U","lightshift","",""
"","","","","","html-slider-response","147","357513","0.0-143.0","hlk42mg12e","6","NaN","<div style=""width:500px;"">
                            <p style=""font-size:50px; font-weight:bold;""
                            >negative</p>
                            <div style=""width:240px; margin: auto;"">
                                <img src=""images/B_L_U_44_darkshift.png"" style= ""width:200px""alt=""img"">
                            </div>
                        </div>","-36","","0","images/B_L_U_44_darkshift.png","","","","negative","1","B","L","U","darkshift","",""
"","","","","","html-button-response","148","359010","0.0-144.0","hlk42mg12e","6","995","<p>Great Job! You've finished block 2.<br></br> You have 2 block(s) left to go.<br></br></p>","0","","","","","","","","","","","","","",""
"","","","","","html-button-response","149","369362","0.0-145.0","hlk42mg12e","6","10352","<p>In this block of trials, you will be asked to rate how much you associate each map with:</p > <p style = 'font-size:150%; font-weight: bold'>positive</p><br></br>","0","","","","","","","","","","","","","",""
"","","","","","html-slider-response","150","371730","0.0-146.0","hlk42mg12e","6","NaN","<div style=""width:500px;"">
                            <p style=""font-size:50px; font-weight:bold;""
                            >positive</p>
                            <div style=""width:240px; margin: auto;"">
                                <img src=""images/Y_L_S_7_darkshift.png"" style= ""width:200px""alt=""img"">
                            </div>
                        </div>","-95","","0","images/Y_L_S_7_darkshift.png","","","","positive","1","Y","L","S","darkshift","",""
"","","","","","html-slider-response","151","373604","0.0-147.0","hlk42mg12e","6","NaN","<div style=""width:500px;"">
                            <p style=""font-size:50px; font-weight:bold;""
                            >positive</p>
                            <div style=""width:240px; margin: auto;"">
                                <img src=""images/B_D_S_2_darkshift.png"" style= ""width:200px""alt=""img"">
                            </div>
                        </div>","-37","","0","images/B_D_S_2_darkshift.png","","","","positive","1","B","D","S","darkshift","",""
"","","","","","html-slider-response","152","375141","0.0-148.0","hlk42mg12e","6","NaN","<div style=""width:500px;"">
                            <p style=""font-size:50px; font-weight:bold;""
                            >positive</p>
                            <div style=""width:240px; margin: auto;"">
                                <img src=""images/B_L_S_41_lightshift.png"" style= ""width:200px""alt=""img"">
                            </div>
                        </div>","162","","0","images/B_L_S_41_lightshift.png","","","","positive","2","B","L","S","lightshift","",""
"","","","","","html-slider-response","153","376697","0.0-149.0","hlk42mg12e","6","NaN","<div style=""width:500px;"">
                            <p style=""font-size:50px; font-weight:bold;""
                            >positive</p>
                            <div style=""width:240px; margin: auto;"">
                                <img src=""images/Y_D_S_12_lightshift.png"" style= ""width:200px""alt=""img"">
                            </div>
                        </div>","-56","","0","images/Y_D_S_12_lightshift.png","","","","positive","1","Y","D","S","lightshift","",""
"","","","","","html-slider-response","154","378412","0.0-150.0","hlk42mg12e","6","NaN","<div style=""width:500px;"">
                            <p style=""font-size:50px; font-weight:bold;""
                            >positive</p>
                            <div style=""width:240px; margin: auto;"">
                                <img src=""images/Y_D_S_12_darkshift.png"" style= ""width:200px""alt=""img"">
                            </div>
                        </div>","-126","","0","images/Y_D_S_12_darkshift.png","","","","positive","2","Y","D","S","darkshift","",""
"","","","","","html-slider-response","155","380132","0.0-151.0","hlk42mg12e","6","NaN","<div style=""width:500px;"">
                            <p style=""font-size:50px; font-weight:bold;""
                            >positive</p>
                            <div style=""width:240px; margin: auto;"">
                                <img src=""images/G_D_S_33_darkshift.png"" style= ""width:200px""alt=""img"">
                            </div>
                        </div>","-90","","0","images/G_D_S_33_darkshift.png","","","","positive","1","G","D","S","darkshift","",""
"","","","","","html-slider-response","156","381837","0.0-152.0","hlk42mg12e","6","NaN","<div style=""width:500px;"">
                            <p style=""font-size:50px; font-weight:bold;""
                            >positive</p>
                            <div style=""width:240px; margin: auto;"">
                                <img src=""images/R_D_U_27_lightshift.png"" style= ""width:200px""alt=""img"">
                            </div>
                        </div>","-62","","0","images/R_D_U_27_lightshift.png","","","","positive","2","R","D","U","lightshift","",""
"","","","","","html-slider-response","157","385045","0.0-153.0","hlk42mg12e","6","NaN","<div style=""width:500px;"">
                            <p style=""font-size:50px; font-weight:bold;""
                            >positive</p>
                            <div style=""width:240px; margin: auto;"">
                                <img src=""images/R_D_S_26_lightshift.png"" style= ""width:200px""alt=""img"">
                            </div>
                        </div>","62","","0","images/R_D_S_26_lightshift.png","","","","positive","2","R","D","S","lightshift","",""
"","","","","","html-slider-response","158","386863","0.0-154.0","hlk42mg12e","6","NaN","<div style=""width:500px;"">
                            <p style=""font-size:50px; font-weight:bold;""
                            >positive</p>
                            <div style=""width:240px; margin: auto;"">
                                <img src=""images/G_L_S_28_darkshift.png"" style= ""width:200px""alt=""img"">
                            </div>
                        </div>","54","","0","images/G_L_S_28_darkshift.png","","","","positive","2","G","L","S","darkshift","",""
"","","","","","html-slider-response","159","388572","0.0-155.0","hlk42mg12e","6","NaN","<div style=""width:500px;"">
                            <p style=""font-size:50px; font-weight:bold;""
                            >positive</p>
                            <div style=""width:240px; margin: auto;"">
                                <img src=""images/B_D_U_5_darkshift.png"" style= ""width:200px""alt=""img"">
                            </div>
                        </div>","-200","","0","images/B_D_U_5_darkshift.png","","","","positive","1","B","D","U","darkshift","",""
"","","","","","html-slider-response","160","390270","0.0-156.0","hlk42mg12e","6","NaN","<div style=""width:500px;"">
                            <p style=""font-size:50px; font-weight:bold;""
                            >positive</p>
                            <div style=""width:240px; margin: auto;"">
                                <img src=""images/B_L_U_44_lightshift.png"" style= ""width:200px""alt=""img"">
                            </div>
                        </div>","200","","0","images/B_L_U_44_lightshift.png","","","","positive","2","B","L","U","lightshift","",""
"","","","","","html-slider-response","161","392691","0.0-157.0","hlk42mg12e","6","NaN","<div style=""width:500px;"">
                            <p style=""font-size:50px; font-weight:bold;""
                            >positive</p>
                            <div style=""width:240px; margin: auto;"">
                                <img src=""images/G_D_S_33_lightshift.png"" style= ""width:200px""alt=""img"">
                            </div>
                        </div>","28","","0","images/G_D_S_33_lightshift.png","","","","positive","2","G","D","S","lightshift","",""
"","","","","","html-slider-response","162","394278","0.0-158.0","hlk42mg12e","6","NaN","<div style=""width:500px;"">
                            <p style=""font-size:50px; font-weight:bold;""
                            >positive</p>
                            <div style=""width:240px; margin: auto;"">
                                <img src=""images/G_L_U_30_lightshift.png"" style= ""width:200px""alt=""img"">
                            </div>
                        </div>","94","","0","images/G_L_U_30_lightshift.png","","","","positive","1","G","L","U","lightshift","",""
"","","","","","html-slider-response","163","396077","0.0-159.0","hlk42mg12e","6","NaN","<div style=""width:500px;"">
                            <p style=""font-size:50px; font-weight:bold;""
                            >positive</p>
                            <div style=""width:240px; margin: auto;"">
                                <img src=""images/B_D_S_2_lightshift.png"" style= ""width:200px""alt=""img"">
                            </div>
                        </div>","67","","0","images/B_D_S_2_lightshift.png","","","","positive","2","B","D","S","lightshift","",""
"","","","","","html-slider-response","164","397646","0.0-160.0","hlk42mg12e","6","NaN","<div style=""width:500px;"">
                            <p style=""font-size:50px; font-weight:bold;""
                            >positive</p>
                            <div style=""width:240px; margin: auto;"">
                                <img src=""images/R_L_S_15_lightshift.png"" style= ""width:200px""alt=""img"">
                            </div>
                        </div>","42","","0","images/R_L_S_15_lightshift.png","","","","positive","1","R","L","S","lightshift","",""
"","","","","","html-slider-response","165","400033","0.0-161.0","hlk42mg12e","6","NaN","<div style=""width:500px;"">
                            <p style=""font-size:50px; font-weight:bold;""
                            >positive</p>
                            <div style=""width:240px; margin: auto;"">
                                <img src=""images/Y_L_U_10_darkshift.png"" style= ""width:200px""alt=""img"">
                            </div>
                        </div>","24","","0","images/Y_L_U_10_darkshift.png","","","","positive","1","Y","L","U","darkshift","",""
"","","","","","html-slider-response","166","401621","0.0-162.0","hlk42mg12e","6","NaN","<div style=""width:500px;"">
                            <p style=""font-size:50px; font-weight:bold;""
                            >positive</p>
                            <div style=""width:240px; margin: auto;"">
                                <img src=""images/Y_D_U_13_darkshift.png"" style= ""width:200px""alt=""img"">
                            </div>
                        </div>","-200","","0","images/Y_D_U_13_darkshift.png","","","","positive","2","Y","D","U","darkshift","",""
"","","","","","html-slider-response","167","403371","0.0-163.0","hlk42mg12e","6","NaN","<div style=""width:500px;"">
                            <p style=""font-size:50px; font-weight:bold;""
                            >positive</p>
                            <div style=""width:240px; margin: auto;"">
                                <img src=""images/B_L_U_44_darkshift.png"" style= ""width:200px""alt=""img"">
                            </div>
                        </div>","-35","","0","images/B_L_U_44_darkshift.png","","","","positive","2","B","L","U","darkshift","",""
"","","","","","html-slider-response","168","405237","0.0-164.0","hlk42mg12e","6","NaN","<div style=""width:500px;"">
                            <p style=""font-size:50px; font-weight:bold;""
                            >positive</p>
                            <div style=""width:240px; margin: auto;"">
                                <img src=""images/G_L_U_30_darkshift.png"" style= ""width:200px""alt=""img"">
                            </div>
                        </div>","49","","0","images/G_L_U_30_darkshift.png","","","","positive","2","G","L","U","darkshift","",""
"","","","","","html-slider-response","169","406539","0.0-165.0","hlk42mg12e","6","NaN","<div style=""width:500px;"">
                            <p style=""font-size:50px; font-weight:bold;""
                            >positive</p>
                            <div style=""width:240px; margin: auto;"">
                                <img src=""images/B_D_U_5_darkshift.png"" style= ""width:200px""alt=""img"">
                            </div>
                        </div>","-200","","0","images/B_D_U_5_darkshift.png","","","","positive","2","B","D","U","darkshift","",""
"","","","","","html-slider-response","170","407968","0.0-166.0","hlk42mg12e","6","NaN","<div style=""width:500px;"">
                            <p style=""font-size:50px; font-weight:bold;""
                            >positive</p>
                            <div style=""width:240px; margin: auto;"">
                                <img src=""images/B_L_U_44_lightshift.png"" style= ""width:200px""alt=""img"">
                            </div>
                        </div>","200","","0","images/B_L_U_44_lightshift.png","","","","positive","1","B","L","U","lightshift","",""
"","","","","","html-slider-response","171","409683","0.0-167.0","hlk42mg12e","6","NaN","<div style=""width:500px;"">
                            <p style=""font-size:50px; font-weight:bold;""
                            >positive</p>
                            <div style=""width:240px; margin: auto;"">
                                <img src=""images/G_D_S_33_lightshift.png"" style= ""width:200px""alt=""img"">
                            </div>
                        </div>","11","","0","images/G_D_S_33_lightshift.png","","","","positive","1","G","D","S","lightshift","",""
"","","","","","html-slider-response","172","411360","0.0-168.0","hlk42mg12e","6","NaN","<div style=""width:500px;"">
                            <p style=""font-size:50px; font-weight:bold;""
                            >positive</p>
                            <div style=""width:240px; margin: auto;"">
                                <img src=""images/Y_L_U_10_lightshift.png"" style= ""width:200px""alt=""img"">
