"success","timeout","failed_images","failed_audio","failed_video","trial_type","trial_index","time_elapsed","internal_node_id","subject_id","condition_num","rt","stimulus","response","question_order","slider_start","image_path","practiceTrial","practiceTrialNum","correct","concept","repetition","hue","lightness","saturation","shift","ishihara_plate","correct_response"
"true","false","[]","[]","[]","preload","0","426","0.0-0.0","howg8venc4","7","","","","","","","","","","","","","","","","",""
"","","","","","html-button-response","1","76963","0.0-1.0","howg8venc4","7","76537","Welcome to our experiment!<p>At the bottom of this screen, you will see a button that says ""Begin Experiment"".<br>Please only click that button when you are ready to complete the 25 minute experiment in one sitting.</p><p> Once you click that button, it will not be possible to restart the experiment.","0","","","","","","","","","","","","","",""
"true","","","","","fullscreen","2","82097","0.0-2.0","howg8venc4","7","4129","","","","","","","","","","","","","","","",""
"","","","","","survey-multi-select","3","140587","0.0-3.0","howg8venc4","7","58486","","{""Consent"":[""<strong>I consent</strong>""]}","[0]","","","","","","","","","","","","",""
"","","","","","html-button-response","4","143632","0.0-4.0","howg8venc4","7","3043","Welcome! <p> This experiment involves two parts: demographic information, followed by the experimental task.<p> It will take about 25 minutes to complete both parts.","0","","","","","","","","","","","","","",""
"","","","","","survey-text","5","158788","0.0-5.0","howg8venc4","7","15144","","{""Age"":""21"",""Gender"":""female"",""Race/ethnicity"":""middle eastern"",""Languages"":""arabic, english, and spanish""}","","","","","","","","","","","","","",""
"","","","","","html-slider-response","6","282220","0.0-6.0","howg8venc4","7","123429","
                            <div style='text-align:left; font-size:20px; line-height:25px; width: 1400px;'>
                                During this experiment you will be asked to rate how much you associate maps with                    different concepts.<br> Below, you can see some examples of the maps you will be asked to rate. Next to the maps
                    is the list of concepts.<br>You will be asked                    to rate how much you associate each map with each concept on a scale from 'not at all' to 'very much' like the
                    one below. <br><br>
                    Now, please look at the list of concepts and maps. For each concept, think about the map you associate 'very
                    much' with the concept.<br>                     When you see that map during the experiment, please rate it near the 'very much' endpoint of the
                    scale.<br>Now, please think about which map you associate 'not at all'                     with each concept. When you see that map during the experiment, please rate it near the 'not at all' endpoint
                    of the scale.<br>
                    Please use the full range of the scale. That is, if a map is somewhat associated with the concept, you would
                    click partway between the middle point and right side of the scale.                    You will be asked to rate each map for a given concept before moving on to the next concept.<br><br>Press the
                    'Continue' button for instructions on how to use the slider.                    <br><br>
                </div>

                <div style=""width: 500px; margin: 0 auto;"">
                    <!-- Centered text paragraphs -->
                    <div style=""text-align: center; width: 500px;"">
                        <p style=""font-size:25px; line-height:18px;"">calm</p>
                        <p style=""font-size:25px; line-height:18px;"">positive</p>
                        <p style=""font-size:25px;line-height:18px;"">negative</p>
                        <p style=""font-size:25px;line-height:18px;"">startling</p>
                    </div>

                    <!-- Grid section -->
                   <div style=""display: flex; justify-content: center; padding-top: 15px;"">
                    <div style=""display: grid; grid-template-columns: repeat(8, 80px); grid-gap: 5px; width: auto;"">
                        <img src=""images/B_D_S_5_darkshift.png"" alt=""map"" style=""width: 100%;""><img src=""images/Y_L_S_10_darkshift.png"" alt=""map"" style=""width: 100%;""><img src=""images/B_D_S_5_lightshift.png"" alt=""map"" style=""width: 100%;""><img src=""images/G_D_S_37_darkshift.png"" alt=""map"" style=""width: 100%;""><img src=""images/Y_L_S_10_lightshift.png"" alt=""map"" style=""width: 100%;""><img src=""images/Y_D_U_15_darkshift.png"" alt=""map"" style=""width: 100%;""><img src=""images/R_L_S_23_lightshift.png"" alt=""map"" style=""width: 100%;""><img src=""images/R_L_U_26_darkshift.png"" alt=""map"" style=""width: 100%;""><img src=""images/B_L_U_2_lightshift.png"" alt=""map"" style=""width: 100%;""><img src=""images/R_D_S_27_lightshift.png"" alt=""map"" style=""width: 100%;""><img src=""images/G_L_S_30_darkshift.png"" alt=""map"" style=""width: 100%;""><img src=""images/B_D_U_7_lightshift.png"" alt=""map"" style=""width: 100%;""><img src=""images/R_D_U_28_lightshift.png"" alt=""map"" style=""width: 100%;""><img src=""images/Y_L_U_12_darkshift.png"" alt=""map"" style=""width: 100%;""><img src=""images/B_D_U_7_darkshift.png"" alt=""map"" style=""width: 100%;""><img src=""images/B_L_S_44_lightshift.png"" alt=""map"" style=""width: 100%;""><img src=""images/Y_D_U_15_lightshift.png"" alt=""map"" style=""width: 100%;""><img src=""images/G_L_U_33_darkshift.png"" alt=""map"" style=""width: 100%;""><img src=""images/G_L_U_33_lightshift.png"" alt=""map"" style=""width: 100%;""><img src=""images/Y_D_S_13_lightshift.png"" alt=""map"" style=""width: 100%;""><img src=""images/G_D_U_41_lightshift.png"" alt=""map"" style=""width: 100%;""><img src=""images/R_D_U_28_darkshift.png"" alt=""map"" style=""width: 100%;""><img src=""images/G_D_S_37_lightshift.png"" alt=""map"" style=""width: 100%;""><img src=""images/G_L_S_30_lightshift.png"" alt=""map"" style=""width: 100%;""><img src=""images/Y_D_S_13_darkshift.png"" alt=""map"" style=""width: 100%;""><img src=""images/B_L_U_2_darkshift.png"" alt=""map"" style=""width: 100%;""><img src=""images/R_D_S_27_darkshift.png"" alt=""map"" style=""width: 100%;""><img src=""images/G_D_U_41_darkshift.png"" alt=""map"" style=""width: 100%;""><img src=""images/B_L_S_44_darkshift.png"" alt=""map"" style=""width: 100%;""><img src=""images/R_L_U_26_lightshift.png"" alt=""map"" style=""width: 100%;""><img src=""images/Y_L_U_12_lightshift.png"" alt=""map"" style=""width: 100%;""><img src=""images/R_L_S_23_darkshift.png"" alt=""map"" style=""width: 100%;"">
                    </div>
                </div>

                    <!-- Clear floats -->
                    <div style=""clear: both;""></div>
                </div>
                            ","null","","0","maps_anchoring.png","true","","","","","","","","","",""
"","","","","","html-button-response","7","290825","0.0-7.0","howg8venc4","7","8603","<div style=""width:800px;""><p style=""text-align:left"">To move the slider, click and drag your cursor to the location of the scale where you would like to make your rating and then let go. When you let go of the slider, your response will be recorded and the next trial will begin. <br>
                    We are interested in your initial impressions of each map for the given concept, so please go with your first intuition. <br>
                    Before you begin the experiment, there will be four training trials for you to practice using the scale. <br>
                     When you are ready to start the training trials, please click ""Continue"".</p><br></div>","0","","","","","","","","","","","","","",""
"","","","","","html-slider-response","8","295851","0.0-8.0-0.0","howg8venc4","7","NaN","<div style=""width:500px;"">
                                    <p style=""font-size:25px;"">Please move the slider all the way to the <br> right endpoint of the scale</p>

                                    </div>
                                </div>","200","","0","","true","0","true","","","","","","","",""
"","","","","","html-button-response","9","297307","0.0-8.0-1.0","howg8venc4","7","953","<p align='center'><b>Good job!</b> Click on 'Continue' to proceed.</p>","0","","","","","","","","","","","","","",""
"","","","","","html-slider-response","10","299273","0.0-9.0-0.0","howg8venc4","7","NaN","<div style=""width:500px;"">
                                    <p style=""font-size:25px;"">Please move the slider all the way to the <br> left endpoint of the scale</p>

                                    </div>
                                </div>","-200","","0","","true","1","true","","","","","","","",""
"","","","","","html-button-response","11","300856","0.0-9.0-1.0","howg8venc4","7","1081","<p align='center'><b>Good job!</b> Click on 'Continue' to proceed.</p>","0","","","","","","","","","","","","","",""
"","","","","","html-slider-response","12","303623","0.0-10.0-0.0","howg8venc4","7","NaN","<div style=""width:500px;"">
                                    <p style=""font-size:25px;"">Please move the slider halfway between the center and right endpoint of the scale</p>

                                    </div>
                                </div>","1","","0","","true","2","false","","","","","","","",""
"","","","","","html-button-response","13","306888","0.0-10.0-1.0","howg8venc4","7","2762","<p align='center'><b>Not quite!</b> The slider was not placed near the instructed located. Click on 'Continue' to try again. </p>","0","","","","","","","","","","","","","",""
"","","","","","html-slider-response","14","308068","0.0-10.1-0.1","howg8venc4","7","NaN","<div style=""width:500px;"">
                                    <p style=""font-size:25px;"">Please move the slider halfway between the center and right endpoint of the scale</p>

                                    </div>
                                </div>","2","","0","","true","2","false","","","","","","","",""
"","","","","","html-button-response","15","309492","0.0-10.1-1.1","howg8venc4","7","921","<p align='center'><b>Not quite!</b> The slider was not placed near the instructed located. Click on 'Continue' to try again. </p>","0","","","","","","","","","","","","","",""
"","","","","","html-slider-response","16","312980","0.0-10.2-0.2","howg8venc4","7","NaN","<div style=""width:500px;"">
                                    <p style=""font-size:25px;"">Please move the slider halfway between the center and right endpoint of the scale</p>

                                    </div>
                                </div>","0","","0","","true","2","false","","","","","","","",""
"","","","","","html-button-response","17","315059","0.0-10.2-1.2","howg8venc4","7","1575","<p align='center'><b>Not quite!</b> The slider was not placed near the instructed located. Click on 'Continue' to try again. </p>","0","","","","","","","","","","","","","",""
"","","","","","html-slider-response","18","320067","0.0-10.3-0.3","howg8venc4","7","NaN","<div style=""width:500px;"">
                                    <p style=""font-size:25px;"">Please move the slider halfway between the center and right endpoint of the scale</p>

                                    </div>
                                </div>","102","","0","","true","2","true","","","","","","","",""
"","","","","","html-button-response","19","321499","0.0-10.3-1.3","howg8venc4","7","929","<p align='center'><b>Good job!</b> Click on 'Continue' to proceed.</p>","0","","","","","","","","","","","","","",""
"","","","","","html-slider-response","20","324245","0.0-11.0-0.0","howg8venc4","7","NaN","<div style=""width:500px;"">
                                    <p style=""font-size:25px;"">Please move the slider halfway between the center and left endpoint of the scale</p>

                                    </div>
                                </div>","-104","","0","","true","3","true","","","","","","","",""
"","","","","","html-button-response","21","325680","0.0-11.0-1.0","howg8venc4","7","931","<p align='center'><b>Good job!</b> Click on 'Continue' to proceed.</p>","0","","","","","","","","","","","","","",""
"","","","","","html-button-response","22","327370","0.0-12.0","howg8venc4","7","1688","<p>Great job! You've completed the practice trials. Now you will begin the main task.</p>","0","","","","","","","","","","","","","",""
"","","","","","html-button-response","23","331246","0.0-13.0","howg8venc4","7","3875","<p>In this block of trials, you will be asked to rate how much you associate each map with:</p > <p style = 'font-size:150%; font-weight: bold'>negative</p><br></br>","0","","","","","","","","","","","","","",""
"","","","","","html-slider-response","24","333483","0.0-14.0","howg8venc4","7","NaN","<div style=""width:500px;"">
                            <p style=""font-size:50px; font-weight:bold;""
                            >negative</p>
                            <div style=""width:240px; margin: auto;"">
                                <img src=""images/R_D_S_27_darkshift.png"" style= ""width:200px""alt=""img"">
                            </div>
                        </div>","200","","0","images/R_D_S_27_darkshift.png","","","","negative","2","R","D","S","darkshift","",""
"","","","","","html-slider-response","25","336994","0.0-15.0","howg8venc4","7","NaN","<div style=""width:500px;"">
                            <p style=""font-size:50px; font-weight:bold;""
                            >negative</p>
                            <div style=""width:240px; margin: auto;"">
                                <img src=""images/G_D_S_37_darkshift.png"" style= ""width:200px""alt=""img"">
                            </div>
                        </div>","51","","0","images/G_D_S_37_darkshift.png","","","","negative","1","G","D","S","darkshift","",""
"","","","","","html-slider-response","26","339693","0.0-16.0","howg8venc4","7","NaN","<div style=""width:500px;"">
                            <p style=""font-size:50px; font-weight:bold;""
                            >negative</p>
                            <div style=""width:240px; margin: auto;"">
                                <img src=""images/B_L_S_44_lightshift.png"" style= ""width:200px""alt=""img"">
                            </div>
                        </div>","-200","","0","images/B_L_S_44_lightshift.png","","","","negative","2","B","L","S","lightshift","",""
"","","","","","html-slider-response","27","342631","0.0-17.0","howg8venc4","7","NaN","<div style=""width:500px;"">
                            <p style=""font-size:50px; font-weight:bold;""
                            >negative</p>
                            <div style=""width:240px; margin: auto;"">
                                <img src=""images/B_D_U_7_lightshift.png"" style= ""width:200px""alt=""img"">
                            </div>
                        </div>","-54","","0","images/B_D_U_7_lightshift.png","","","","negative","1","B","D","U","lightshift","",""
"","","","","","html-slider-response","28","347127","0.0-18.0","howg8venc4","7","NaN","<div style=""width:500px;"">
                            <p style=""font-size:50px; font-weight:bold;""
                            >negative</p>
                            <div style=""width:240px; margin: auto;"">
                                <img src=""images/B_D_S_5_darkshift.png"" style= ""width:200px""alt=""img"">
                            </div>
                        </div>","37","","0","images/B_D_S_5_darkshift.png","","","","negative","1","B","D","S","darkshift","",""
"","","","","","html-slider-response","29","350376","0.0-19.0","howg8venc4","7","NaN","<div style=""width:500px;"">
                            <p style=""font-size:50px; font-weight:bold;""
                            >negative</p>
                            <div style=""width:240px; margin: auto;"">
                                <img src=""images/G_L_S_30_darkshift.png"" style= ""width:200px""alt=""img"">
                            </div>
                        </div>","-36","","0","images/G_L_S_30_darkshift.png","","","","negative","1","G","L","S","darkshift","",""
"","","","","","html-slider-response","30","352794","0.0-20.0","howg8venc4","7","NaN","<div style=""width:500px;"">
                            <p style=""font-size:50px; font-weight:bold;""
                            >negative</p>
                            <div style=""width:240px; margin: auto;"">
                                <img src=""images/Y_L_S_10_lightshift.png"" style= ""width:200px""alt=""img"">
                            </div>
                        </div>","-200","","0","images/Y_L_S_10_lightshift.png","","","","negative","1","Y","L","S","lightshift","",""
"","","","","","html-slider-response","31","355598","0.0-21.0","howg8venc4","7","NaN","<div style=""width:500px;"">
                            <p style=""font-size:50px; font-weight:bold;""
                            >negative</p>
                            <div style=""width:240px; margin: auto;"">
                                <img src=""images/G_D_S_37_lightshift.png"" style= ""width:200px""alt=""img"">
                            </div>
                        </div>","22","","0","images/G_D_S_37_lightshift.png","","","","negative","2","G","D","S","lightshift","",""
"","","","","","html-slider-response","32","358577","0.0-22.0","howg8venc4","7","NaN","<div style=""width:500px;"">
                            <p style=""font-size:50px; font-weight:bold;""
                            >negative</p>
                            <div style=""width:240px; margin: auto;"">
                                <img src=""images/G_L_U_33_darkshift.png"" style= ""width:200px""alt=""img"">
                            </div>
                        </div>","1","","0","images/G_L_U_33_darkshift.png","","","","negative","1","G","L","U","darkshift","",""
"","","","","","html-slider-response","33","361051","0.0-23.0","howg8venc4","7","NaN","<div style=""width:500px;"">
                            <p style=""font-size:50px; font-weight:bold;""
                            >negative</p>
                            <div style=""width:240px; margin: auto;"">
                                <img src=""images/B_D_U_7_darkshift.png"" style= ""width:200px""alt=""img"">
                            </div>
                        </div>","103","","0","images/B_D_U_7_darkshift.png","","","","negative","1","B","D","U","darkshift","",""
"","","","","","html-slider-response","34","363951","0.0-24.0","howg8venc4","7","NaN","<div style=""width:500px;"">
                            <p style=""font-size:50px; font-weight:bold;""
                            >negative</p>
                            <div style=""width:240px; margin: auto;"">
                                <img src=""images/R_L_S_23_lightshift.png"" style= ""width:200px""alt=""img"">
                            </div>
                        </div>","-200","","0","images/R_L_S_23_lightshift.png","","","","negative","1","R","L","S","lightshift","",""
"","","","","","html-slider-response","35","369133","0.0-25.0","howg8venc4","7","NaN","<div style=""width:500px;"">
                            <p style=""font-size:50px; font-weight:bold;""
                            >negative</p>
                            <div style=""width:240px; margin: auto;"">
                                <img src=""images/B_L_U_2_darkshift.png"" style= ""width:200px""alt=""img"">
                            </div>
                        </div>","-43","","0","images/B_L_U_2_darkshift.png","","","","negative","2","B","L","U","darkshift","",""
"","","","","","html-slider-response","36","372096","0.0-26.0","howg8venc4","7","NaN","<div style=""width:500px;"">
                            <p style=""font-size:50px; font-weight:bold;""
                            >negative</p>
                            <div style=""width:240px; margin: auto;"">
                                <img src=""images/Y_L_U_12_darkshift.png"" style= ""width:200px""alt=""img"">
                            </div>
                        </div>","-117","","0","images/Y_L_U_12_darkshift.png","","","","negative","1","Y","L","U","darkshift","",""
"","","","","","html-slider-response","37","374835","0.0-27.0","howg8venc4","7","NaN","<div style=""width:500px;"">
                            <p style=""font-size:50px; font-weight:bold;""
                            >negative</p>
                            <div style=""width:240px; margin: auto;"">
                                <img src=""images/R_L_U_26_darkshift.png"" style= ""width:200px""alt=""img"">
                            </div>
                        </div>","106","","0","images/R_L_U_26_darkshift.png","","","","negative","2","R","L","U","darkshift","",""
"","","","","","html-slider-response","38","377264","0.0-28.0","howg8venc4","7","NaN","<div style=""width:500px;"">
                            <p style=""font-size:50px; font-weight:bold;""
                            >negative</p>
                            <div style=""width:240px; margin: auto;"">
                                <img src=""images/R_D_U_28_darkshift.png"" style= ""width:200px""alt=""img"">
                            </div>
                        </div>","200","","0","images/R_D_U_28_darkshift.png","","","","negative","2","R","D","U","darkshift","",""
"","","","","","html-slider-response","39","379331","0.0-29.0","howg8venc4","7","NaN","<div style=""width:500px;"">
                            <p style=""font-size:50px; font-weight:bold;""
                            >negative</p>
                            <div style=""width:240px; margin: auto;"">
                                <img src=""images/R_D_S_27_darkshift.png"" style= ""width:200px""alt=""img"">
                            </div>
                        </div>","200","","0","images/R_D_S_27_darkshift.png","","","","negative","1","R","D","S","darkshift","",""
"","","","","","html-slider-response","40","383068","0.0-30.0","howg8venc4","7","NaN","<div style=""width:500px;"">
                            <p style=""font-size:50px; font-weight:bold;""
                            >negative</p>
                            <div style=""width:240px; margin: auto;"">
                                <img src=""images/R_L_U_26_lightshift.png"" style= ""width:200px""alt=""img"">
                            </div>
                        </div>","-50","","0","images/R_L_U_26_lightshift.png","","","","negative","1","R","L","U","lightshift","",""
"","","","","","html-slider-response","41","385561","0.0-31.0","howg8venc4","7","NaN","<div style=""width:500px;"">
                            <p style=""font-size:50px; font-weight:bold;""
                            >negative</p>
                            <div style=""width:240px; margin: auto;"">
                                <img src=""images/Y_D_S_13_darkshift.png"" style= ""width:200px""alt=""img"">
                            </div>
                        </div>","200","","0","images/Y_D_S_13_darkshift.png","","","","negative","2","Y","D","S","darkshift","",""
"","","","","","html-slider-response","42","387964","0.0-32.0","howg8venc4","7","NaN","<div style=""width:500px;"">
                            <p style=""font-size:50px; font-weight:bold;""
                            >negative</p>
                            <div style=""width:240px; margin: auto;"">
                                <img src=""images/B_L_S_44_darkshift.png"" style= ""width:200px""alt=""img"">
                            </div>
                        </div>","-105","","0","images/B_L_S_44_darkshift.png","","","","negative","2","B","L","S","darkshift","",""
"","","","","","html-slider-response","43","390030","0.0-33.0","howg8venc4","7","NaN","<div style=""width:500px;"">
                            <p style=""font-size:50px; font-weight:bold;""
                            >negative</p>
                            <div style=""width:240px; margin: auto;"">
                                <img src=""images/Y_L_U_12_lightshift.png"" style= ""width:200px""alt=""img"">
                            </div>
                        </div>","-200","","0","images/Y_L_U_12_lightshift.png","","","","negative","2","Y","L","U","lightshift","",""
"","","","","","html-slider-response","44","393460","0.0-34.0","howg8venc4","7","NaN","<div style=""width:500px;"">
                            <p style=""font-size:50px; font-weight:bold;""
                            >negative</p>
                            <div style=""width:240px; margin: auto;"">
                                <img src=""images/R_L_U_26_darkshift.png"" style= ""width:200px""alt=""img"">
                            </div>
                        </div>","63","","0","images/R_L_U_26_darkshift.png","","","","negative","1","R","L","U","darkshift","",""
"","","","","","html-slider-response","45","395700","0.0-35.0","howg8venc4","7","NaN","<div style=""width:500px;"">
                            <p style=""font-size:50px; font-weight:bold;""
                            >negative</p>
                            <div style=""width:240px; margin: auto;"">
                                <img src=""images/R_D_U_28_lightshift.png"" style= ""width:200px""alt=""img"">
                            </div>
                        </div>","103","","0","images/R_D_U_28_lightshift.png","","","","negative","1","R","D","U","lightshift","",""
"","","","","","html-slider-response","46","398752","0.0-36.0","howg8venc4","7","NaN","<div style=""width:500px;"">
                            <p style=""font-size:50px; font-weight:bold;""
                            >negative</p>
                            <div style=""width:240px; margin: auto;"">
                                <img src=""images/G_D_S_37_lightshift.png"" style= ""width:200px""alt=""img"">
                            </div>
                        </div>","70","","0","images/G_D_S_37_lightshift.png","","","","negative","1","G","D","S","lightshift","",""
"","","","","","html-slider-response","47","401837","0.0-37.0","howg8venc4","7","NaN","<div style=""width:500px;"">
                            <p style=""font-size:50px; font-weight:bold;""
                            >negative</p>
                            <div style=""width:240px; margin: auto;"">
                                <img src=""images/G_D_U_41_lightshift.png"" style= ""width:200px""alt=""img"">
                            </div>
                        </div>","95","","0","images/G_D_U_41_lightshift.png","","","","negative","1","G","D","U","lightshift","",""
"","","","","","html-slider-response","48","404301","0.0-38.0","howg8venc4","7","NaN","<div style=""width:500px;"">
                            <p style=""font-size:50px; font-weight:bold;""
                            >negative</p>
                            <div style=""width:240px; margin: auto;"">
                                <img src=""images/Y_D_U_15_lightshift.png"" style= ""width:200px""alt=""img"">
                            </div>
                        </div>","116","","0","images/Y_D_U_15_lightshift.png","","","","negative","2","Y","D","U","lightshift","",""
"","","","","","html-slider-response","49","407280","0.0-39.0","howg8venc4","7","NaN","<div style=""width:500px;"">
                            <p style=""font-size:50px; font-weight:bold;""
                            >negative</p>
                            <div style=""width:240px; margin: auto;"">
                                <img src=""images/B_D_U_7_lightshift.png"" style= ""width:200px""alt=""img"">
                            </div>
                        </div>","-122","","0","images/B_D_U_7_lightshift.png","","","","negative","2","B","D","U","lightshift","",""
"","","","","","html-slider-response","50","409197","0.0-40.0","howg8venc4","7","NaN","<div style=""width:500px;"">
                            <p style=""font-size:50px; font-weight:bold;""
                            >negative</p>
                            <div style=""width:240px; margin: auto;"">
                                <img src=""images/Y_D_U_15_darkshift.png"" style= ""width:200px""alt=""img"">
                            </div>
                        </div>","200","","0","images/Y_D_U_15_darkshift.png","","","","negative","1","Y","D","U","darkshift","",""
"","","","","","html-slider-response","51","411614","0.0-41.0","howg8venc4","7","NaN","<div style=""width:500px;"">
                            <p style=""font-size:50px; font-weight:bold;""
                            >negative</p>
                            <div style=""width:240px; margin: auto;"">
                                <img src=""images/G_L_S_30_lightshift.png"" style= ""width:200px""alt=""img"">
                            </div>
                        </div>","-200","","0","images/G_L_S_30_lightshift.png","","","","negative","1","G","L","S","lightshift","",""
"","","","","","html-slider-response","52","415835","0.0-42.0","howg8venc4","7","NaN","<div style=""width:500px;"">
                            <p style=""font-size:50px; font-weight:bold;""
                            >negative</p>
                            <div style=""width:240px; margin: auto;"">
                                <img src=""images/B_D_S_5_darkshift.png"" style= ""width:200px""alt=""img"">
                            </div>
                        </div>","-200","","0","images/B_D_S_5_darkshift.png","","","","negative","2","B","D","S","darkshift","",""
"","","","","","html-slider-response","53","418270","0.0-43.0","howg8venc4","7","NaN","<div style=""width:500px;"">
                            <p style=""font-size:50px; font-weight:bold;""
                            >negative</p>
                            <div style=""width:240px; margin: auto;"">
                                <img src=""images/Y_L_U_12_darkshift.png"" style= ""width:200px""alt=""img"">
                            </div>
                        </div>","-115","","0","images/Y_L_U_12_darkshift.png","","","","negative","2","Y","L","U","darkshift","",""
"","","","","","html-slider-response","54","420273","0.0-44.0","howg8venc4","7","NaN","<div style=""width:500px;"">
                            <p style=""font-size:50px; font-weight:bold;""
                            >negative</p>
                            <div style=""width:240px; margin: auto;"">
                                <img src=""images/Y_L_S_10_lightshift.png"" style= ""width:200px""alt=""img"">
                            </div>
                        </div>","-200","","0","images/Y_L_S_10_lightshift.png","","","","negative","2","Y","L","S","lightshift","",""
"","","","","","html-slider-response","55","422379","0.0-45.0","howg8venc4","7","NaN","<div style=""width:500px;"">
                            <p style=""font-size:50px; font-weight:bold;""
                            >negative</p>
                            <div style=""width:240px; margin: auto;"">
                                <img src=""images/Y_D_S_13_lightshift.png"" style= ""width:200px""alt=""img"">
                            </div>
                        </div>","37","","0","images/Y_D_S_13_lightshift.png","","","","negative","1","Y","D","S","lightshift","",""
"","","","","","html-slider-response","56","425231","0.0-46.0","howg8venc4","7","NaN","<div style=""width:500px;"">
                            <p style=""font-size:50px; font-weight:bold;""
                            >negative</p>
                            <div style=""width:240px; margin: auto;"">
                                <img src=""images/Y_D_U_15_lightshift.png"" style= ""width:200px""alt=""img"">
                            </div>
                        </div>","90","","0","images/Y_D_U_15_lightshift.png","","","","negative","1","Y","D","U","lightshift","",""
"","","","","","html-slider-response","57","428301","0.0-47.0","howg8venc4","7","NaN","<div style=""width:500px;"">
                            <p style=""font-size:50px; font-weight:bold;""
                            >negative</p>
                            <div style=""width:240px; margin: auto;"">
                                <img src=""images/Y_L_S_10_darkshift.png"" style= ""width:200px""alt=""img"">
                            </div>
                        </div>","-98","","0","images/Y_L_S_10_darkshift.png","","","","negative","2","Y","L","S","darkshift","",""
"","","","","","html-slider-response","58","430374","0.0-48.0","howg8venc4","7","NaN","<div style=""width:500px;"">
                            <p style=""font-size:50px; font-weight:bold;""
                            >negative</p>
                            <div style=""width:240px; margin: auto;"">
                                <img src=""images/R_L_S_23_lightshift.png"" style= ""width:200px""alt=""img"">
                            </div>
                        </div>","-200","","0","images/R_L_S_23_lightshift.png","","","","negative","2","R","L","S","lightshift","",""
"","","","","","html-slider-response","59","432295","0.0-49.0","howg8venc4","7","NaN","<div style=""width:500px;"">
                            <p style=""font-size:50px; font-weight:bold;""
                            >negative</p>
                            <div style=""width:240px; margin: auto;"">
                                <img src=""images/G_L_U_33_lightshift.png"" style= ""width:200px""alt=""img"">
                            </div>
                        </div>","-200","","0","images/G_L_U_33_lightshift.png","","","","negative","2","G","L","U","lightshift","",""
"","","","","","html-slider-response","60","434466","0.0-50.0","howg8venc4","7","NaN","<div style=""width:500px;"">
                            <p style=""font-size:50px; font-weight:bold;""
                            >negative</p>
                            <div style=""width:240px; margin: auto;"">
                                <img src=""images/R_D_U_28_lightshift.png"" style= ""width:200px""alt=""img"">
                            </div>
                        </div>","0","","0","images/R_D_U_28_lightshift.png","","","","negative","2","R","D","U","lightshift","",""
"","","","","","html-slider-response","61","437530","0.0-51.0","howg8venc4","7","NaN","<div style=""width:500px;"">
                            <p style=""font-size:50px; font-weight:bold;""
                            >negative</p>
                            <div style=""width:240px; margin: auto;"">
                                <img src=""images/G_L_U_33_lightshift.png"" style= ""width:200px""alt=""img"">
                            </div>
                        </div>","-200","","0","images/G_L_U_33_lightshift.png","","","","negative","1","G","L","U","lightshift","",""
"","","","","","html-slider-response","62","439284","0.0-52.0","howg8venc4","7","NaN","<div style=""width:500px;"">
                            <p style=""font-size:50px; font-weight:bold;""
                            >negative</p>
                            <div style=""width:240px; margin: auto;"">
                                <img src=""images/B_L_U_2_lightshift.png"" style= ""width:200px""alt=""img"">
                            </div>
                        </div>","-200","","0","images/B_L_U_2_lightshift.png","","","","negative","1","B","L","U","lightshift","",""
"","","","","","html-slider-response","63","441425","0.0-53.0","howg8venc4","7","NaN","<div style=""width:500px;"">
                            <p style=""font-size:50px; font-weight:bold;""
                            >negative</p>
                            <div style=""width:240px; margin: auto;"">
                                <img src=""images/G_L_S_30_darkshift.png"" style= ""width:200px""alt=""img"">
                            </div>
                        </div>","2","","0","images/G_L_S_30_darkshift.png","","","","negative","2","G","L","S","darkshift","",""
"","","","","","html-slider-response","64","444797","0.0-54.0","howg8venc4","7","NaN","<div style=""width:500px;"">
                            <p style=""font-size:50px; font-weight:bold;""
                            >negative</p>
                            <div style=""width:240px; margin: auto;"">
                                <img src=""images/R_L_S_23_darkshift.png"" style= ""width:200px""alt=""img"">
                            </div>
                        </div>","-113","","0","images/R_L_S_23_darkshift.png","","","","negative","1","R","L","S","darkshift","",""
"","","","","","html-slider-response","65","447415","0.0-55.0","howg8venc4","7","NaN","<div style=""width:500px;"">
                            <p style=""font-size:50px; font-weight:bold;""
                            >negative</p>
                            <div style=""width:240px; margin: auto;"">
                                <img src=""images/Y_L_S_10_darkshift.png"" style= ""width:200px""alt=""img"">
                            </div>
                        </div>","-115","","0","images/Y_L_S_10_darkshift.png","","","","negative","1","Y","L","S","darkshift","",""
"","","","","","html-slider-response","66","449378","0.0-56.0","howg8venc4","7","NaN","<div style=""width:500px;"">
                            <p style=""font-size:50px; font-weight:bold;""
                            >negative</p>
                            <div style=""width:240px; margin: auto;"">
                                <img src=""images/Y_D_S_13_darkshift.png"" style= ""width:200px""alt=""img"">
                            </div>
                        </div>","200","","0","images/Y_D_S_13_darkshift.png","","","","negative","1","Y","D","S","darkshift","",""
"","","","","","html-slider-response","67","453422","0.0-57.0","howg8venc4","7","NaN","<div style=""width:500px;"">
                            <p style=""font-size:50px; font-weight:bold;""
                            >negative</p>
                            <div style=""width:240px; margin: auto;"">
                                <img src=""images/G_L_U_33_darkshift.png"" style= ""width:200px""alt=""img"">
                            </div>
                        </div>","2","","0","images/G_L_U_33_darkshift.png","","","","negative","2","G","L","U","darkshift","",""
"","","","","","html-slider-response","68","454983","0.0-58.0","howg8venc4","7","NaN","<div style=""width:500px;"">
                            <p style=""font-size:50px; font-weight:bold;""
                            >negative</p>
                            <div style=""width:240px; margin: auto;"">
                                <img src=""images/B_L_U_2_lightshift.png"" style= ""width:200px""alt=""img"">
                            </div>
                        </div>","-200","","0","images/B_L_U_2_lightshift.png","","","","negative","2","B","L","U","lightshift","",""
"","","","","","html-slider-response","69","456737","0.0-59.0","howg8venc4","7","NaN","<div style=""width:500px;"">
                            <p style=""font-size:50px; font-weight:bold;""
                            >negative</p>
                            <div style=""width:240px; margin: auto;"">
                                <img src=""images/Y_D_U_15_darkshift.png"" style= ""width:200px""alt=""img"">
                            </div>
                        </div>","200","","0","images/Y_D_U_15_darkshift.png","","","","negative","2","Y","D","U","darkshift","",""
"","","","","","html-slider-response","70","459500","0.0-60.0","howg8venc4","7","NaN","<div style=""width:500px;"">
                            <p style=""font-size:50px; font-weight:bold;""
                            >negative</p>
                            <div style=""width:240px; margin: auto;"">
                                <img src=""images/G_D_S_37_darkshift.png"" style= ""width:200px""alt=""img"">
                            </div>
                        </div>","161","","0","images/G_D_S_37_darkshift.png","","","","negative","2","G","D","S","darkshift","",""
"","","","","","html-slider-response","71","461608","0.0-61.0","howg8venc4","7","NaN","<div style=""width:500px;"">
                            <p style=""font-size:50px; font-weight:bold;""
                            >negative</p>
                            <div style=""width:240px; margin: auto;"">
                                <img src=""images/B_D_U_7_darkshift.png"" style= ""width:200px""alt=""img"">
                            </div>
                        </div>","154","","0","images/B_D_U_7_darkshift.png","","","","negative","2","B","D","U","darkshift","",""
"","","","","","html-slider-response","72","464156","0.0-62.0","howg8venc4","7","NaN","<div style=""width:500px;"">
                            <p style=""font-size:50px; font-weight:bold;""
                            >negative</p>
                            <div style=""width:240px; margin: auto;"">
                                <img src=""images/B_D_S_5_lightshift.png"" style= ""width:200px""alt=""img"">
                            </div>
                        </div>","-2","","0","images/B_D_S_5_lightshift.png","","","","negative","2","B","D","S","lightshift","",""
"","","","","","html-slider-response","73","468520","0.0-63.0","howg8venc4","7","NaN","<div style=""width:500px;"">
                            <p style=""font-size:50px; font-weight:bold;""
                            >negative</p>
                            <div style=""width:240px; margin: auto;"">
                                <img src=""images/R_D_S_27_lightshift.png"" style= ""width:200px""alt=""img"">
                            </div>
                        </div>","-102","","0","images/R_D_S_27_lightshift.png","","","","negative","2","R","D","S","lightshift","",""
"","","","","","html-slider-response","74","470625","0.0-64.0","howg8venc4","7","NaN","<div style=""width:500px;"">
                            <p style=""font-size:50px; font-weight:bold;""
                            >negative</p>
                            <div style=""width:240px; margin: auto;"">
                                <img src=""images/G_D_U_41_darkshift.png"" style= ""width:200px""alt=""img"">
                            </div>
                        </div>","200","","0","images/G_D_U_41_darkshift.png","","","","negative","1","G","D","U","darkshift","",""
"","","","","","html-slider-response","75","472283","0.0-65.0","howg8venc4","7","NaN","<div style=""width:500px;"">
                            <p style=""font-size:50px; font-weight:bold;""
                            >negative</p>
                            <div style=""width:240px; margin: auto;"">
                                <img src=""images/Y_L_U_12_lightshift.png"" style= ""width:200px""alt=""img"">
                            </div>
                        </div>","-200","","0","images/Y_L_U_12_lightshift.png","","","","negative","1","Y","L","U","lightshift","",""
"","","","","","html-slider-response","76","475351","0.0-66.0","howg8venc4","7","NaN","<div style=""width:500px;"">
                            <p style=""font-size:50px; font-weight:bold;""
                            >negative</p>
                            <div style=""width:240px; margin: auto;"">
                                <img src=""images/G_L_S_30_lightshift.png"" style= ""width:200px""alt=""img"">
                            </div>
                        </div>","-200","","0","images/G_L_S_30_lightshift.png","","","","negative","2","G","L","S","lightshift","",""
"","","","","","html-slider-response","77","477226","0.0-67.0","howg8venc4","7","NaN","<div style=""width:500px;"">
                            <p style=""font-size:50px; font-weight:bold;""
                            >negative</p>
                            <div style=""width:240px; margin: auto;"">
                                <img src=""images/G_D_U_41_darkshift.png"" style= ""width:200px""alt=""img"">
                            </div>
                        </div>","200","","0","images/G_D_U_41_darkshift.png","","","","negative","2","G","D","U","darkshift","",""
"","","","","","html-slider-response","78","480388","0.0-68.0","howg8venc4","7","NaN","<div style=""width:500px;"">
                            <p style=""font-size:50px; font-weight:bold;""
                            >negative</p>
                            <div style=""width:240px; margin: auto;"">
                                <img src=""images/B_D_S_5_lightshift.png"" style= ""width:200px""alt=""img"">
                            </div>
                        </div>","22","","0","images/B_D_S_5_lightshift.png","","","","negative","1","B","D","S","lightshift","",""
"","","","","","html-slider-response","79","483648","0.0-69.0","howg8venc4","7","NaN","<div style=""width:500px;"">
                            <p style=""font-size:50px; font-weight:bold;""
                            >negative</p>
                            <div style=""width:240px; margin: auto;"">
                                <img src=""images/B_L_S_44_lightshift.png"" style= ""width:200px""alt=""img"">
                            </div>
                        </div>","-138","","0","images/B_L_S_44_lightshift.png","","","","negative","1","B","L","S","lightshift","",""
"","","","","","html-slider-response","80","485741","0.0-70.0","howg8venc4","7","NaN","<div style=""width:500px;"">
                            <p style=""font-size:50px; font-weight:bold;""
                            >negative</p>
                            <div style=""width:240px; margin: auto;"">
                                <img src=""images/Y_D_S_13_lightshift.png"" style= ""width:200px""alt=""img"">
                            </div>
                        </div>","91","","0","images/Y_D_S_13_lightshift.png","","","","negative","2","Y","D","S","lightshift","",""
"","","","","","html-slider-response","81","488310","0.0-71.0","howg8venc4","7","NaN","<div style=""width:500px;"">
                            <p style=""font-size:50px; font-weight:bold;""
                            >negative</p>
                            <div style=""width:240px; margin: auto;"">
                                <img src=""images/R_D_S_27_lightshift.png"" style= ""width:200px""alt=""img"">
                            </div>
                        </div>","-126","","0","images/R_D_S_27_lightshift.png","","","","negative","1","R","D","S","lightshift","",""
"","","","","","html-slider-response","82","490200","0.0-72.0","howg8venc4","7","NaN","<div style=""width:500px;"">
                            <p style=""font-size:50px; font-weight:bold;""
                            >negative</p>
                            <div style=""width:240px; margin: auto;"">
                                <img src=""images/R_L_U_26_lightshift.png"" style= ""width:200px""alt=""img"">
                            </div>
                        </div>","-200","","0","images/R_L_U_26_lightshift.png","","","","negative","2","R","L","U","lightshift","",""
"","","","","","html-slider-response","83","493122","0.0-73.0","howg8venc4","7","NaN","<div style=""width:500px;"">
                            <p style=""font-size:50px; font-weight:bold;""
                            >negative</p>
                            <div style=""width:240px; margin: auto;"">
                                <img src=""images/R_D_U_28_darkshift.png"" style= ""width:200px""alt=""img"">
                            </div>
                        </div>","180","","0","images/R_D_U_28_darkshift.png","","","","negative","1","R","D","U","darkshift","",""
"","","","","","html-slider-response","84","496453","0.0-74.0","howg8venc4","7","NaN","<div style=""width:500px;"">
                            <p style=""font-size:50px; font-weight:bold;""
                            >negative</p>
                            <div style=""width:240px; margin: auto;"">
                                <img src=""images/R_L_S_23_darkshift.png"" style= ""width:200px""alt=""img"">
                            </div>
                        </div>","-118","","0","images/R_L_S_23_darkshift.png","","","","negative","2","R","L","S","darkshift","",""
"","","","","","html-slider-response","85","498983","0.0-75.0","howg8venc4","7","NaN","<div style=""width:500px;"">
                            <p style=""font-size:50px; font-weight:bold;""
                            >negative</p>
                            <div style=""width:240px; margin: auto;"">
                                <img src=""images/B_L_S_44_darkshift.png"" style= ""width:200px""alt=""img"">
                            </div>
                        </div>","-123","","0","images/B_L_S_44_darkshift.png","","","","negative","1","B","L","S","darkshift","",""
"","","","","","html-slider-response","86","501060","0.0-76.0","howg8venc4","7","NaN","<div style=""width:500px;"">
                            <p style=""font-size:50px; font-weight:bold;""
                            >negative</p>
                            <div style=""width:240px; margin: auto;"">
                                <img src=""images/B_L_U_2_darkshift.png"" style= ""width:200px""alt=""img"">
                            </div>
                        </div>","19","","0","images/B_L_U_2_darkshift.png","","","","negative","1","B","L","U","darkshift","",""
"","","","","","html-slider-response","87","503142","0.0-77.0","howg8venc4","7","NaN","<div style=""width:500px;"">
                            <p style=""font-size:50px; font-weight:bold;""
                            >negative</p>
                            <div style=""width:240px; margin: auto;"">
                                <img src=""images/G_D_U_41_lightshift.png"" style= ""width:200px""alt=""img"">
                            </div>
                        </div>","87","","0","images/G_D_U_41_lightshift.png","","","","negative","2","G","D","U","lightshift","",""
"","","","","","html-button-response","88","505509","0.0-78.0","howg8venc4","7","1865","<p>Great Job! You've finished block 1.<br></br> You have 3 block(s) left to go.<br></br></p>","0","","","","","","","","","","","","","",""
"","","","","","html-button-response","89","508361","0.0-79.0","howg8venc4","7","2850","<p>In this block of trials, you will be asked to rate how much you associate each map with:</p > <p style = 'font-size:150%; font-weight: bold'>startling</p><br></br>","0","","","","","","","","","","","","","",""
"","","","","","html-slider-response","90","511647","0.0-80.0","howg8venc4","7","NaN","<div style=""width:500px;"">
                            <p style=""font-size:50px; font-weight:bold;""
                            >startling</p>
                            <div style=""width:240px; margin: auto;"">
                                <img src=""images/R_L_U_26_lightshift.png"" style= ""width:200px""alt=""img"">
                            </div>
                        </div>","-102","","0","images/R_L_U_26_lightshift.png","","","","startling","2","R","L","U","lightshift","",""
"","","","","","html-slider-response","91","513936","0.0-81.0","howg8venc4","7","NaN","<div style=""width:500px;"">
                            <p style=""font-size:50px; font-weight:bold;""
                            >startling</p>
                            <div style=""width:240px; margin: auto;"">
                                <img src=""images/G_L_U_33_darkshift.png"" style= ""width:200px""alt=""img"">
                            </div>
                        </div>","114","","0","images/G_L_U_33_darkshift.png","","","","startling","2","G","L","U","darkshift","",""
"","","","","","html-slider-response","92","517094","0.0-82.0","howg8venc4","7","NaN","<div style=""width:500px;"">
                            <p style=""font-size:50px; font-weight:bold;""
                            >startling</p>
                            <div style=""width:240px; margin: auto;"">
                                <img src=""images/B_L_S_44_lightshift.png"" style= ""width:200px""alt=""img"">
                            </div>
                        </div>","0","","0","images/B_L_S_44_lightshift.png","","","","startling","1","B","L","S","lightshift","",""
"","","","","","html-slider-response","93","519792","0.0-83.0","howg8venc4","7","NaN","<div style=""width:500px;"">
                            <p style=""font-size:50px; font-weight:bold;""
                            >startling</p>
                            <div style=""width:240px; margin: auto;"">
                                <img src=""images/R_D_U_28_lightshift.png"" style= ""width:200px""alt=""img"">
                            </div>
                        </div>","103","","0","images/R_D_U_28_lightshift.png","","","","startling","1","R","D","U","lightshift","",""
"","","","","","html-slider-response","94","522093","0.0-84.0","howg8venc4","7","NaN","<div style=""width:500px;"">
                            <p style=""font-size:50px; font-weight:bold;""
                            >startling</p>
                            <div style=""width:240px; margin: auto;"">
                                <img src=""images/G_D_S_37_lightshift.png"" style= ""width:200px""alt=""img"">
                            </div>
                        </div>","200","","0","images/G_D_S_37_lightshift.png","","","","startling","2","G","D","S","lightshift","",""
"","","","","","html-slider-response","95","524341","0.0-85.0","howg8venc4","7","NaN","<div style=""width:500px;"">
                            <p style=""font-size:50px; font-weight:bold;""
                            >startling</p>
                            <div style=""width:240px; margin: auto;"">
                                <img src=""images/R_L_U_26_darkshift.png"" style= ""width:200px""alt=""img"">
                            </div>
                        </div>","110","","0","images/R_L_U_26_darkshift.png","","","","startling","1","R","L","U","darkshift","",""
"","","","","","html-slider-response","96","526258","0.0-86.0","howg8venc4","7","NaN","<div style=""width:500px;"">
                            <p style=""font-size:50px; font-weight:bold;""
                            >startling</p>
                            <div style=""width:240px; margin: auto;"">
                                <img src=""images/Y_L_U_12_lightshift.png"" style= ""width:200px""alt=""img"">
                            </div>
                        </div>","-200","","0","images/Y_L_U_12_lightshift.png","","","","startling","1","Y","L","U","lightshift","",""
"","","","","","html-slider-response","97","528185","0.0-87.0","howg8venc4","7","NaN","<div style=""width:500px;"">
                            <p style=""font-size:50px; font-weight:bold;""
                            >startling</p>
                            <div style=""width:240px; margin: auto;"">
                                <img src=""images/Y_D_U_15_darkshift.png"" style= ""width:200px""alt=""img"">
                            </div>
                        </div>","200","","0","images/Y_D_U_15_darkshift.png","","","","startling","1","Y","D","U","darkshift","",""
"","","","","","html-slider-response","98","530628","0.0-88.0","howg8venc4","7","NaN","<div style=""width:500px;"">
                            <p style=""font-size:50px; font-weight:bold;""
                            >startling</p>
                            <div style=""width:240px; margin: auto;"">
                                <img src=""images/R_D_U_28_darkshift.png"" style= ""width:200px""alt=""img"">
                            </div>
                        </div>","200","","0","images/R_D_U_28_darkshift.png","","","","startling","1","R","D","U","darkshift","",""
"","","","","","html-slider-response","99","533537","0.0-89.0","howg8venc4","7","NaN","<div style=""width:500px;"">
                            <p style=""font-size:50px; font-weight:bold;""
                            >startling</p>
                            <div style=""width:240px; margin: auto;"">
                                <img src=""images/G_L_U_33_lightshift.png"" style= ""width:200px""alt=""img"">
                            </div>
                        </div>","46","","0","images/G_L_U_33_lightshift.png","","","","startling","1","G","L","U","lightshift","",""
"","","","","","html-slider-response","100","536676","0.0-90.0","howg8venc4","7","NaN","<div style=""width:500px;"">
                            <p style=""font-size:50px; font-weight:bold;""
                            >startling</p>
                            <div style=""width:240px; margin: auto;"">
                                <img src=""images/B_L_S_44_darkshift.png"" style= ""width:200px""alt=""img"">
                            </div>
                        </div>","-109","","0","images/B_L_S_44_darkshift.png","","","","startling","2","B","L","S","darkshift","",""
"","","","","","html-slider-response","101","539073","0.0-91.0","howg8venc4","7","NaN","<div style=""width:500px;"">
                            <p style=""font-size:50px; font-weight:bold;""
                            >startling</p>
                            <div style=""width:240px; margin: auto;"">
                                <img src=""images/G_L_U_33_lightshift.png"" style= ""width:200px""alt=""img"">
                            </div>
                        </div>","85","","0","images/G_L_U_33_lightshift.png","","","","startling","2","G","L","U","lightshift","",""
"","","","","","html-slider-response","102","541099","0.0-92.0","howg8venc4","7","NaN","<div style=""width:500px;"">
                            <p style=""font-size:50px; font-weight:bold;""
                            >startling</p>
                            <div style=""width:240px; margin: auto;"">
                                <img src=""images/G_L_S_30_darkshift.png"" style= ""width:200px""alt=""img"">
                            </div>
                        </div>","107","","0","images/G_L_S_30_darkshift.png","","","","startling","1","G","L","S","darkshift","",""
"","","","","","html-slider-response","103","543224","0.0-93.0","howg8venc4","7","NaN","<div style=""width:500px;"">
                            <p style=""font-size:50px; font-weight:bold;""
                            >startling</p>
                            <div style=""width:240px; margin: auto;"">
                                <img src=""images/G_D_S_37_darkshift.png"" style= ""width:200px""alt=""img"">
                            </div>
                        </div>","200","","0","images/G_D_S_37_darkshift.png","","","","startling","2","G","D","S","darkshift","",""
"","","","","","html-slider-response","104","545503","0.0-94.0","howg8venc4","7","NaN","<div style=""width:500px;"">
                            <p style=""font-size:50px; font-weight:bold;""
                            >startling</p>
                            <div style=""width:240px; margin: auto;"">
                                <img src=""images/R_D_S_27_darkshift.png"" style= ""width:200px""alt=""img"">
                            </div>
                        </div>","200","","0","images/R_D_S_27_darkshift.png","","","","startling","1","R","D","S","darkshift","",""
"","","","","","html-slider-response","105","547648","0.0-95.0","howg8venc4","7","NaN","<div style=""width:500px;"">
                            <p style=""font-size:50px; font-weight:bold;""
                            >startling</p>
                            <div style=""width:240px; margin: auto;"">
                                <img src=""images/G_D_U_41_darkshift.png"" style= ""width:200px""alt=""img"">
                            </div>
                        </div>","200","","0","images/G_D_U_41_darkshift.png","","","","startling","2","G","D","U","darkshift","",""
"","","","","","html-slider-response","106","550670","0.0-96.0","howg8venc4","7","NaN","<div style=""width:500px;"">
                            <p style=""font-size:50px; font-weight:bold;""
                            >startling</p>
                            <div style=""width:240px; margin: auto;"">
                                <img src=""images/B_L_U_2_darkshift.png"" style= ""width:200px""alt=""img"">
                            </div>
                        </div>","-95","","0","images/B_L_U_2_darkshift.png","","","","startling","2","B","L","U","darkshift","",""
"","","","","","html-slider-response","107","552544","0.0-97.0","howg8venc4","7","NaN","<div style=""width:500px;"">
                            <p style=""font-size:50px; font-weight:bold;""
                            >startling</p>
                            <div style=""width:240px; margin: auto;"">
                                <img src=""images/Y_L_U_12_lightshift.png"" style= ""width:200px""alt=""img"">
                            </div>
                        </div>","-200","","0","images/Y_L_U_12_lightshift.png","","","","startling","2","Y","L","U","lightshift","",""
"","","","","","html-slider-response","108","554507","0.0-98.0","howg8venc4","7","NaN","<div style=""width:500px;"">
                            <p style=""font-size:50px; font-weight:bold;""
                            >startling</p>
                            <div style=""width:240px; margin: auto;"">
                                <img src=""images/R_D_U_28_darkshift.png"" style= ""width:200px""alt=""img"">
                            </div>
                        </div>","200","","0","images/R_D_U_28_darkshift.png","","","","startling","2","R","D","U","darkshift","",""
"","","","","","html-slider-response","109","556363","0.0-99.0","howg8venc4","7","NaN","<div style=""width:500px;"">
                            <p style=""font-size:50px; font-weight:bold;""
                            >startling</p>
                            <div style=""width:240px; margin: auto;"">
                                <img src=""images/G_D_U_41_darkshift.png"" style= ""width:200px""alt=""img"">
                            </div>
                        </div>","200","","0","images/G_D_U_41_darkshift.png","","","","startling","1","G","D","U","darkshift","",""
"","","","","","html-slider-response","110","558783","0.0-100.0","howg8venc4","7","NaN","<div style=""width:500px;"">
                            <p style=""font-size:50px; font-weight:bold;""
                            >startling</p>
                            <div style=""width:240px; margin: auto;"">
                                <img src=""images/B_L_U_2_lightshift.png"" style= ""width:200px""alt=""img"">
                            </div>
                        </div>","-110","","0","images/B_L_U_2_lightshift.png","","","","startling","1","B","L","U","lightshift","",""
"","","","","","html-slider-response","111","562669","0.0-101.0","howg8venc4","7","NaN","<div style=""width:500px;"">
                            <p style=""font-size:50px; font-weight:bold;""
                            >startling</p>
                            <div style=""width:240px; margin: auto;"">
                                <img src=""images/R_D_S_27_lightshift.png"" style= ""width:200px""alt=""img"">
                            </div>
                        </div>","-114","","0","images/R_D_S_27_lightshift.png","","","","startling","2","R","D","S","lightshift","",""
"","","","","","html-slider-response","112","565903","0.0-102.0","howg8venc4","7","NaN","<div style=""width:500px;"">
                            <p style=""font-size:50px; font-weight:bold;""
                            >startling</p>
                            <div style=""width:240px; margin: auto;"">
                                <img src=""images/Y_L_S_10_darkshift.png"" style= ""width:200px""alt=""img"">
                            </div>
                        </div>","26","","0","images/Y_L_S_10_darkshift.png","","","","startling","1","Y","L","S","darkshift","",""
"","","","","","html-slider-response","113","567995","0.0-103.0","howg8venc4","7","NaN","<div style=""width:500px;"">
                            <p style=""font-size:50px; font-weight:bold;""
                            >startling</p>
                            <div style=""width:240px; margin: auto;"">
                                <img src=""images/B_D_U_7_darkshift.png"" style= ""width:200px""alt=""img"">
                            </div>
                        </div>","90","","0","images/B_D_U_7_darkshift.png","","","","startling","2","B","D","U","darkshift","",""
"","","","","","html-slider-response","114","569840","0.0-104.0","howg8venc4","7","NaN","<div style=""width:500px;"">
                            <p style=""font-size:50px; font-weight:bold;""
                            >startling</p>
                            <div style=""width:240px; margin: auto;"">
                                <img src=""images/Y_D_S_13_lightshift.png"" style= ""width:200px""alt=""img"">
                            </div>
                        </div>","99","","0","images/Y_D_S_13_lightshift.png","","","","startling","1","Y","D","S","lightshift","",""
"","","","","","html-slider-response","115","572041","0.0-105.0","howg8venc4","7","NaN","<div style=""width:500px;"">
                            <p style=""font-size:50px; font-weight:bold;""
                            >startling</p>
                            <div style=""width:240px; margin: auto;"">
                                <img src=""images/R_D_S_27_darkshift.png"" style= ""width:200px""alt=""img"">
                            </div>
                        </div>","169","","0","images/R_D_S_27_darkshift.png","","","","startling","2","R","D","S","darkshift","",""
"","","","","","html-slider-response","116","574314","0.0-106.0","howg8venc4","7","NaN","<div style=""width:500px;"">
                            <p style=""font-size:50px; font-weight:bold;""
                            >startling</p>
                            <div style=""width:240px; margin: auto;"">
                                <img src=""images/G_D_S_37_lightshift.png"" style= ""width:200px""alt=""img"">
                            </div>
                        </div>","200","","0","images/G_D_S_37_lightshift.png","","","","startling","1","G","D","S","lightshift","",""
"","","","","","html-slider-response","117","576957","0.0-107.0","howg8venc4","7","NaN","<div style=""width:500px;"">
                            <p style=""font-size:50px; font-weight:bold;""
                            >startling</p>
                            <div style=""width:240px; margin: auto;"">
                                <img src=""images/G_L_S_30_lightshift.png"" style= ""width:200px""alt=""img"">
                            </div>
                        </div>","13","","0","images/G_L_S_30_lightshift.png","","","","startling","2","G","L","S","lightshift","",""
"","","","","","html-slider-response","118","579728","0.0-108.0","howg8venc4","7","NaN","<div style=""width:500px;"">
                            <p style=""font-size:50px; font-weight:bold;""
                            >startling</p>
                            <div style=""width:240px; margin: auto;"">
                                <img src=""images/R_D_U_28_lightshift.png"" style= ""width:200px""alt=""img"">
                            </div>
                        </div>","63","","0","images/R_D_U_28_lightshift.png","","","","startling","2","R","D","U","lightshift","",""
"","","","","","html-slider-response","119","582611","0.0-109.0","howg8venc4","7","NaN","<div style=""width:500px;"">
                            <p style=""font-size:50px; font-weight:bold;""
                            >startling</p>
                            <div style=""width:240px; margin: auto;"">
                                <img src=""images/R_L_S_23_lightshift.png"" style= ""width:200px""alt=""img"">
                            </div>
                        </div>","-200","","0","images/R_L_S_23_lightshift.png","","","","startling","2","R","L","S","lightshift","",""
"","","","","","html-slider-response","120","584831","0.0-110.0","howg8venc4","7","NaN","<div style=""width:500px;"">
                            <p style=""font-size:50px; font-weight:bold;""
                            >startling</p>
                            <div style=""width:240px; margin: auto;"">
                                <img src=""images/G_L_S_30_lightshift.png"" style= ""width:200px""alt=""img"">
                            </div>
                        </div>","49","","0","images/G_L_S_30_lightshift.png","","","","startling","1","G","L","S","lightshift","",""
"","","","","","html-slider-response","121","587731","0.0-111.0","howg8venc4","7","NaN","<div style=""width:500px;"">
                            <p style=""font-size:50px; font-weight:bold;""
                            >startling</p>
                            <div style=""width:240px; margin: auto;"">
                                <img src=""images/R_L_S_23_lightshift.png"" style= ""width:200px""alt=""img"">
                            </div>
                        </div>","-150","","0","images/R_L_S_23_lightshift.png","","","","startling","1","R","L","S","lightshift","",""
"","","","","","html-slider-response","122","590509","0.0-112.0","howg8venc4","7","NaN","<div style=""width:500px;"">
                            <p style=""font-size:50px; font-weight:bold;""
                            >startling</p>
                            <div style=""width:240px; margin: auto;"">
                                <img src=""images/Y_D_U_15_lightshift.png"" style= ""width:200px""alt=""img"">
                            </div>
                        </div>","142","","0","images/Y_D_U_15_lightshift.png","","","","startling","2","Y","D","U","lightshift","",""
"","","","","","html-slider-response","123","592511","0.0-113.0","howg8venc4","7","NaN","<div style=""width:500px;"">
                            <p style=""font-size:50px; font-weight:bold;""
                            >startling</p>
                            <div style=""width:240px; margin: auto;"">
                                <img src=""images/G_D_U_41_lightshift.png"" style= ""width:200px""alt=""img"">
                            </div>
                        </div>","200","","0","images/G_D_U_41_lightshift.png","","","","startling","2","G","D","U","lightshift","",""
"","","","","","html-slider-response","124","594338","0.0-114.0","howg8venc4","7","NaN","<div style=""width:500px;"">
                            <p style=""font-size:50px; font-weight:bold;""
                            >startling</p>
                            <div style=""width:240px; margin: auto;"">
                                <img src=""images/G_D_U_41_lightshift.png"" style= ""width:200px""alt=""img"">
                            </div>
                        </div>","200","","0","images/G_D_U_41_lightshift.png","","","","startling","1","G","D","U","lightshift","",""
"","","","","","html-slider-response","125","596396","0.0-115.0","howg8venc4","7","NaN","<div style=""width:500px;"">
                            <p style=""font-size:50px; font-weight:bold;""
                            >startling</p>
                            <div style=""width:240px; margin: auto;"">
                                <img src=""images/G_L_U_33_darkshift.png"" style= ""width:200px""alt=""img"">
                            </div>
                        </div>","200","","0","images/G_L_U_33_darkshift.png","","","","startling","1","G","L","U","darkshift","",""
"","","","","","html-slider-response","126","598592","0.0-116.0","howg8venc4","7","NaN","<div style=""width:500px;"">
                            <p style=""font-size:50px; font-weight:bold;""
                            >startling</p>
                            <div style=""width:240px; margin: auto;"">
                                <img src=""images/Y_D_S_13_darkshift.png"" style= ""width:200px""alt=""img"">
                            </div>
                        </div>","200","","0","images/Y_D_S_13_darkshift.png","","","","startling","1","Y","D","S","darkshift","",""
"","","","","","html-slider-response","127","600811","0.0-117.0","howg8venc4","7","NaN","<div style=""width:500px;"">
                            <p style=""font-size:50px; font-weight:bold;""
                            >startling</p>
                            <div style=""width:240px; margin: auto;"">
                                <img src=""images/B_L_U_2_lightshift.png"" style= ""width:200px""alt=""img"">
                            </div>
                        </div>","-200","","0","images/B_L_U_2_lightshift.png","","","","startling","2","B","L","U","lightshift","",""
"","","","","","html-slider-response","128","603342","0.0-118.0","howg8venc4","7","NaN","<div style=""width:500px;"">
                            <p style=""font-size:50px; font-weight:bold;""
                            >startling</p>
                            <div style=""width:240px; margin: auto;"">
                                <img src=""images/B_L_S_44_lightshift.png"" style= ""width:200px""alt=""img"">
                            </div>
                        </div>","-183","","0","images/B_L_S_44_lightshift.png","","","","startling","2","B","L","S","lightshift","",""
"","","","","","html-slider-response","129","606257","0.0-119.0","howg8venc4","7","NaN","<div style=""width:500px;"">
                            <p style=""font-size:50px; font-weight:bold;""
                            >startling</p>
                            <div style=""width:240px; margin: auto;"">
                                <img src=""images/Y_L_S_10_lightshift.png"" style= ""width:200px""alt=""img"">
                            </div>
                        </div>","-177","","0","images/Y_L_S_10_lightshift.png","","","","startling","2","Y","L","S","lightshift","",""
"","","","","","html-slider-response","130","608205","0.0-120.0","howg8venc4","7","NaN","<div style=""width:500px;"">
                            <p style=""font-size:50px; font-weight:bold;""
                            >startling</p>
                            <div style=""width:240px; margin: auto;"">
                                <img src=""images/Y_L_S_10_lightshift.png"" style= ""width:200px""alt=""img"">
                            </div>
                        </div>","-179","","0","images/Y_L_S_10_lightshift.png","","","","startling","1","Y","L","S","lightshift","",""
"","","","","","html-slider-response","131","610608","0.0-121.0","howg8venc4","7","NaN","<div style=""width:500px;"">
                            <p style=""font-size:50px; font-weight:bold;""
                            >startling</p>
                            <div style=""width:240px; margin: auto;"">
                                <img src=""images/B_D_U_7_darkshift.png"" style= ""width:200px""alt=""img"">
                            </div>
                        </div>","86","","0","images/B_D_U_7_darkshift.png","","","","startling","1","B","D","U","darkshift","",""
"","","","","","html-slider-response","132","612602","0.0-122.0","howg8venc4","7","NaN","<div style=""width:500px;"">
                            <p style=""font-size:50px; font-weight:bold;""
                            >startling</p>
                            <div style=""width:240px; margin: auto;"">
                                <img src=""images/B_D_S_5_darkshift.png"" style= ""width:200px""alt=""img"">
                            </div>
                        </div>","4","","0","images/B_D_S_5_darkshift.png","","","","startling","1","B","D","S","darkshift","",""
"","","","","","html-slider-response","133","614755","0.0-123.0","howg8venc4","7","NaN","<div style=""width:500px;"">
                            <p style=""font-size:50px; font-weight:bold;""
                            >startling</p>
                            <div style=""width:240px; margin: auto;"">
                                <img src=""images/Y_D_U_15_lightshift.png"" style= ""width:200px""alt=""img"">
                            </div>
                        </div>","77","","0","images/Y_D_U_15_lightshift.png","","","","startling","1","Y","D","U","lightshift","",""
"","","","","","html-slider-response","134","616708","0.0-124.0","howg8venc4","7","NaN","<div style=""width:500px;"">
                            <p style=""font-size:50px; font-weight:bold;""
                            >startling</p>
                            <div style=""width:240px; margin: auto;"">
                                <img src=""images/Y_D_U_15_darkshift.png"" style= ""width:200px""alt=""img"">
                            </div>
                        </div>","200","","0","images/Y_D_U_15_darkshift.png","","","","startling","2","Y","D","U","darkshift","",""
"","","","","","html-slider-response","135","620106","0.0-125.0","howg8venc4","7","NaN","<div style=""width:500px;"">
                            <p style=""font-size:50px; font-weight:bold;""
                            >startling</p>
                            <div style=""width:240px; margin: auto;"">
                                <img src=""images/R_L_S_23_darkshift.png"" style= ""width:200px""alt=""img"">
                            </div>
                        </div>","-112","","0","images/R_L_S_23_darkshift.png","","","","startling","1","R","L","S","darkshift","",""
"","","","","","html-slider-response","136","622728","0.0-126.0","howg8venc4","7","NaN","<div style=""width:500px;"">
                            <p style=""font-size:50px; font-weight:bold;""
                            >startling</p>
                            <div style=""width:240px; margin: auto;"">
                                <img src=""images/B_D_U_7_lightshift.png"" style= ""width:200px""alt=""img"">
                            </div>
                        </div>","-28","","0","images/B_D_U_7_lightshift.png","","","","startling","1","B","D","U","lightshift","",""
"","","","","","html-slider-response","137","624873","0.0-127.0","howg8venc4","7","NaN","<div style=""width:500px;"">
                            <p style=""font-size:50px; font-weight:bold;""
                            >startling</p>
                            <div style=""width:240px; margin: auto;"">
                                <img src=""images/B_D_U_7_lightshift.png"" style= ""width:200px""alt=""img"">
                            </div>
                        </div>","-102","","0","images/B_D_U_7_lightshift.png","","","","startling","2","B","D","U","lightshift","",""
"","","","","","html-slider-response","138","627684","0.0-128.0","howg8venc4","7","NaN","<div style=""width:500px;"">
                            <p style=""font-size:50px; font-weight:bold;""
                            >startling</p>
                            <div style=""width:240px; margin: auto;"">
                                <img src=""images/G_D_S_37_darkshift.png"" style= ""width:200px""alt=""img"">
                            </div>
                        </div>","168","","0","images/G_D_S_37_darkshift.png","","","","startling","1","G","D","S","darkshift","",""
"","","","","","html-slider-response","139","629928","0.0-129.0","howg8venc4","7","NaN","<div style=""width:500px;"">
                            <p style=""font-size:50px; font-weight:bold;""
                            >startling</p>
                            <div style=""width:240px; margin: auto;"">
                                <img src=""images/B_L_S_44_darkshift.png"" style= ""width:200px""alt=""img"">
                            </div>
                        </div>","-121","","0","images/B_L_S_44_darkshift.png","","","","startling","1","B","L","S","darkshift","",""
"","","","","","html-slider-response","140","632417","0.0-130.0","howg8venc4","7","NaN","<div style=""width:500px;"">
                            <p style=""font-size:50px; font-weight:bold;""
                            >startling</p>
                            <div style=""width:240px; margin: auto;"">
                                <img src=""images/Y_D_S_13_darkshift.png"" style= ""width:200px""alt=""img"">
                            </div>
                        </div>","200","","0","images/Y_D_S_13_darkshift.png","","","","startling","2","Y","D","S","darkshift","",""
"","","","","","html-slider-response","141","636023","0.0-131.0","howg8venc4","7","NaN","<div style=""width:500px;"">
                            <p style=""font-size:50px; font-weight:bold;""
                            >startling</p>
                            <div style=""width:240px; margin: auto;"">
                                <img src=""images/G_L_S_30_darkshift.png"" style= ""width:200px""alt=""img"">
                            </div>
                        </div>","54","","0","images/G_L_S_30_darkshift.png","","","","startling","2","G","L","S","darkshift","",""
"","","","","","html-slider-response","142","640276","0.0-132.0","howg8venc4","7","NaN","<div style=""width:500px;"">
                            <p style=""font-size:50px; font-weight:bold;""
                            >startling</p>
                            <div style=""width:240px; margin: auto;"">
                                <img src=""images/R_L_S_23_darkshift.png"" style= ""width:200px""alt=""img"">
                            </div>
                        </div>","-126","","0","images/R_L_S_23_darkshift.png","","","","startling","2","R","L","S","darkshift","",""
"","","","","","html-slider-response","143","651591","0.0-133.0","howg8venc4","7","NaN","<div style=""width:500px;"">
                            <p style=""font-size:50px; font-weight:bold;""
                            >startling</p>
                            <div style=""width:240px; margin: auto;"">
                                <img src=""images/Y_L_U_12_darkshift.png"" style= ""width:200px""alt=""img"">
                            </div>
                        </div>","101","","0","images/Y_L_U_12_darkshift.png","","","","startling","2","Y","L","U","darkshift","",""
"","","","","","html-slider-response","144","656848","0.0-134.0","howg8venc4","7","NaN","<div style=""width:500px;"">
                            <p style=""font-size:50px; font-weight:bold;""
                            >startling</p>
                            <div style=""width:240px; margin: auto;"">
                                <img src=""images/R_D_S_27_lightshift.png"" style= ""width:200px""alt=""img"">
                            </div>
                        </div>","-132","","0","images/R_D_S_27_lightshift.png","","","","startling","1","R","D","S","lightshift","",""
"","","","","","html-slider-response","145","662657","0.0-135.0","howg8venc4","7","NaN","<div style=""width:500px;"">
                            <p style=""font-size:50px; font-weight:bold;""
                            >startling</p>
                            <div style=""width:240px; margin: auto;"">
                                <img src=""images/B_D_S_5_lightshift.png"" style= ""width:200px""alt=""img"">
                            </div>
                        </div>","-124","","0","images/B_D_S_5_lightshift.png","","","","startling","2","B","D","S","lightshift","",""
"","","","","","html-slider-response","146","666195","0.0-136.0","howg8venc4","7","NaN","<div style=""width:500px;"">
                            <p style=""font-size:50px; font-weight:bold;""
                            >startling</p>
                            <div style=""width:240px; margin: auto;"">
                                <img src=""images/Y_L_U_12_darkshift.png"" style= ""width:200px""alt=""img"">
                            </div>
                        </div>","108","","0","images/Y_L_U_12_darkshift.png","","","","startling","1","Y","L","U","darkshift","",""
"","","","","","html-slider-response","147","669505","0.0-137.0","howg8venc4","7","NaN","<div style=""width:500px;"">
                            <p style=""font-size:50px; font-weight:bold;""
                            >startling</p>
                            <div style=""width:240px; margin: auto;"">
                                <img src=""images/B_D_S_5_lightshift.png"" style= ""width:200px""alt=""img"">
                            </div>
                        </div>","-118","","0","images/B_D_S_5_lightshift.png","","","","startling","1","B","D","S","lightshift","",""
"","","","","","html-slider-response","148","671980","0.0-138.0","howg8venc4","7","NaN","<div style=""width:500px;"">
                            <p style=""font-size:50px; font-weight:bold;""
                            >startling</p>
                            <div style=""width:240px; margin: auto;"">
                                <img src=""images/B_D_S_5_darkshift.png"" style= ""width:200px""alt=""img"">
                            </div>
                        </div>","46","","0","images/B_D_S_5_darkshift.png","","","","startling","2","B","D","S","darkshift","",""
"","","","","","html-slider-response","149","674767","0.0-139.0","howg8venc4","7","NaN","<div style=""width:500px;"">
                            <p style=""font-size:50px; font-weight:bold;""
                            >startling</p>
                            <div style=""width:240px; margin: auto;"">
                                <img src=""images/R_L_U_26_lightshift.png"" style= ""width:200px""alt=""img"">
                            </div>
                        </div>","-200","","0","images/R_L_U_26_lightshift.png","","","","startling","1","R","L","U","lightshift","",""
"","","","","","html-slider-response","150","677076","0.0-140.0","howg8venc4","7","NaN","<div style=""width:500px;"">
                            <p style=""font-size:50px; font-weight:bold;""
                            >startling</p>
                            <div style=""width:240px; margin: auto;"">
                                <img src=""images/Y_L_S_10_darkshift.png"" style= ""width:200px""alt=""img"">
                            </div>
                        </div>","86","","0","images/Y_L_S_10_darkshift.png","","","","startling","2","Y","L","S","darkshift","",""
"","","","","","html-slider-response","151","679061","0.0-141.0","howg8venc4","7","NaN","<div style=""width:500px;"">
                            <p style=""font-size:50px; font-weight:bold;""
                            >startling</p>
                            <div style=""width:240px; margin: auto;"">
                                <img src=""images/Y_D_S_13_lightshift.png"" style= ""width:200px""alt=""img"">
                            </div>
                        </div>","134","","0","images/Y_D_S_13_lightshift.png","","","","startling","2","Y","D","S","lightshift","",""
"","","","","","html-slider-response","152","681456","0.0-142.0","howg8venc4","7","NaN","<div style=""width:500px;"">
                            <p style=""font-size:50px; font-weight:bold;""
                            >startling</p>
                            <div style=""width:240px; margin: auto;"">
                                <img src=""images/R_L_U_26_darkshift.png"" style= ""width:200px""alt=""img"">
                            </div>
                        </div>","77","","0","images/R_L_U_26_darkshift.png","","","","startling","2","R","L","U","darkshift","",""
"","","","","","html-slider-response","153","684261","0.0-143.0","howg8venc4","7","NaN","<div style=""width:500px;"">
                            <p style=""font-size:50px; font-weight:bold;""
                            >startling</p>
                            <div style=""width:240px; margin: auto;"">
                                <img src=""images/B_L_U_2_darkshift.png"" style= ""width:200px""alt=""img"">
                            </div>
                        </div>","-99","","0","images/B_L_U_2_darkshift.png","","","","startling","1","B","L","U","darkshift","",""
"","","","","","html-button-response","154","685763","0.0-144.0","howg8venc4","7","998","<p>Great Job! You've finished block 2.<br></br> You have 2 block(s) left to go.<br></br></p>","0","","","","","","","","","","","","","",""
"","","","","","html-button-response","155","696889","0.0-145.0","howg8venc4","7","11124","<p>In this block of trials, you will be asked to rate how much you associate each map with:</p > <p style = 'font-size:150%; font-weight: bold'>positive</p><br></br>","0","","","","","","","","","","","","","",""
"","","","","","html-slider-response","156","699078","0.0-146.0","howg8venc4","7","NaN","<div style=""width:500px;"">
                            <p style=""font-size:50px; font-weight:bold;""
                            >positive</p>
                            <div style=""width:240px; margin: auto;"">
                                <img src=""images/G_D_S_37_lightshift.png"" style= ""width:200px""alt=""img"">
                            </div>
                        </div>","-102","","0","images/G_D_S_37_lightshift.png","","","","positive","1","G","D","S","lightshift","",""
"","","","","","html-slider-response","157","701345","0.0-147.0","howg8venc4","7","NaN","<div style=""width:500px;"">
                            <p style=""font-size:50px; font-weight:bold;""
                            >positive</p>
                            <div style=""width:240px; margin: auto;"">
                                <img src=""images/R_D_U_28_darkshift.png"" style= ""width:200px""alt=""img"">
                            </div>
                        </div>","-200","","0","images/R_D_U_28_darkshift.png","","","","positive","1","R","D","U","darkshift","",""
"","","","","","html-slider-response","158","703354","0.0-148.0","howg8venc4","7","NaN","<div style=""width:500px;"">
                            <p style=""font-size:50px; font-weight:bold;""
                            >positive</p>
                            <div style=""width:240px; margin: auto;"">
                                <img src=""images/Y_L_S_10_lightshift.png"" style= ""width:200px""alt=""img"">
                            </div>
                        </div>","200","","0","images/Y_L_S_10_lightshift.png","","","","positive","2","Y","L","S","lightshift","",""
"","","","","","html-slider-response","159","705222","0.0-149.0","howg8venc4","7","NaN","<div style=""width:500px;"">
                            <p style=""font-size:50px; font-weight:bold;""
                            >positive</p>
                            <div style=""width:240px; margin: auto;"">
                                <img src=""images/Y_L_U_12_lightshift.png"" style= ""width:200px""alt=""img"">
                            </div>
                        </div>","200","","0","images/Y_L_U_12_lightshift.png","","","","positive","2","Y","L","U","lightshift","",""
"","","","","","html-slider-response","160","707875","0.0-150.0","howg8venc4","7","NaN","<div style=""width:500px;"">
                            <p style=""font-size:50px; font-weight:bold;""
                            >positive</p>
                            <div style=""width:240px; margin: auto;"">
                                <img src=""images/R_D_S_27_lightshift.png"" style= ""width:200px""alt=""img"">
                            </div>
                        </div>","121","","0","images/R_D_S_27_lightshift.png","","","","positive","1","R","D","S","lightshift","",""
"","","","","","html-slider-response","161","710781","0.0-151.0","howg8venc4","7","NaN","<div style=""width:500px;"">
                            <p style=""font-size:50px; font-weight:bold;""
                            >positive</p>
                            <div style=""width:240px; margin: auto;"">
                                <img src=""images/Y_L_S_10_darkshift.png"" style= ""width:200px""alt=""img"">
                            </div>
                        </div>","-1","","0","images/Y_L_S_10_darkshift.png","","","","positive","2","Y","L","S","darkshift","",""
"","","","","","html-slider-response","162","713344","0.0-152.0","howg8venc4","7","NaN","<div style=""width:500px;"">
                            <p style=""font-size:50px; font-weight:bold;""
                            >positive</p>
                            <div style=""width:240px; margin: auto;"">
                                <img src=""images/G_D_U_41_lightshift.png"" style= ""width:200px""alt=""img"">
                            </div>
                        </div>","-66","","0","images/G_D_U_41_lightshift.png","","","","positive","2","G","D","U","lightshift","",""
"","","","","","html-slider-response","163","715940","0.0-153.0","howg8venc4","7","NaN","<div style=""width:500px;"">
                            <p style=""font-size:50px; font-weight:bold;""
                            >positive</p>
                            <div style=""width:240px; margin: auto;"">
                                <img src=""images/B_D_S_5_darkshift.png"" style= ""width:200px""alt=""img"">
                            </div>
                        </div>","1","","0","images/B_D_S_5_darkshift.png","","","","positive","2","B","D","S","darkshift","",""
"","","","","","html-slider-response","164","717941","0.0-154.0","howg8venc4","7","NaN","<div style=""width:500px;"">
                            <p style=""font-size:50px; font-weight:bold;""
                            >positive</p>
                            <div style=""width:240px; margin: auto;"">
                                <img src=""images/G_L_U_33_lightshift.png"" style= ""width:200px""alt=""img"">
                            </div>
                        </div>","200","","0","images/G_L_U_33_lightshift.png","","","","positive","1","G","L","U","lightshift","",""
"","","","","","html-slider-response","165","722633","0.0-155.0","howg8venc4","7","NaN","<div style=""width:500px;"">
                            <p style=""font-size:50px; font-weight:bold;""
                            >positive</p>
                            <div style=""width:240px; margin: auto;"">
                                <img src=""images/Y_L_S_10_darkshift.png"" style= ""width:200px""alt=""img"">
                            </div>
                        </div>","16","","0","images/Y_L_S_10_darkshift.png","","","","positive","1","Y","L","S","darkshift","",""
"","","","","","html-slider-response","166","725407","0.0-156.0","howg8venc4","7","NaN","<div style=""width:500px;"">
                            <p style=""font-size:50px; font-weight:bold;""
                            >positive</p>
                            <div style=""width:240px; margin: auto;"">
                                <img src=""images/B_D_U_7_lightshift.png"" style= ""width:200px""alt=""img"">
                            </div>
                        </div>","-23","","0","images/B_D_U_7_lightshift.png","","","","positive","1","B","D","U","lightshift","",""
"","","","","","html-slider-response","167","727361","0.0-157.0","howg8venc4","7","NaN","<div style=""width:500px;"">
                            <p style=""font-size:50px; font-weight:bold;""
                            >positive</p>
                            <div style=""width:240px; margin: auto;"">
                                <img src=""images/Y_L_U_12_lightshift.png"" style= ""width:200px""alt=""img"">
                            </div>
                        </div>","200","","0","images/Y_L_U_12_lightshift.png","","","","positive","1","Y","L","U","lightshift","",""
"","","","","","html-slider-response","168","731206","0.0-158.0","howg8venc4","7","NaN","<div style=""width:500px;"">
                            <p style=""font-size:50px; font-weight:bold;""
                            >positive</p>
                            <div style=""width:240px; margin: auto;"">
                                <img src=""images/G_L_S_30_lightshift.png"" style= ""width:200px""alt=""img"">
                            </div>
                        </div>","157","","0","images/G_L_S_30_lightshift.png","","","","positive","2","G","L","S","lightshift","",""
"","","","","","html-slider-response","169","733127","0.0-159.0","howg8venc4","7","NaN","<div style=""width:500px;"">
                            <p style=""font-size:50px; font-weight:bold;""
                            >positive</p>
                            <div style=""width:240px; margin: auto;"">
                                <img src=""images/Y_L_S_10_lightshift.png"" style= ""width:200px""alt=""img"">
                            </div>
                        </div>","200","","0","images/Y_L_S_10_lightshift.png","","","","positive","1","Y","L","S","lightshift","",""
"","","","","","html-slider-response","170","735131","0.0-160.0","howg8venc4","7","NaN","<div style=""width:500px;"">
                            <p style=""font-size:50px; font-weight:bold;""
                            >positive</p>
                            <div style=""width:240px; margin: auto;"">
                                <img src=""images/B_D_S_5_lightshift.png"" style= ""width:200px""alt=""img"">
                            </div>
                        </div>","75","","0","images/B_D_S_5_lightshift.png","","","","positive","2","B","D","S","lightshift","",""
"","","","","","html-slider-response","171","737211","0.0-161.0","howg8venc4","7","NaN","<div style=""width:500px;"">
                            <p style=""font-size:50px; font-weight:bold;""
                            >positive</p>
                            <div style=""width:240px; margin: auto;"">
                                <img src=""images/G_D_S_37_lightshift.png"" style= ""width:200px""alt=""img"">
                            </div>
                        </div>","-33","","0","images/G_D_S_37_lightshift.png","","","","positive","2","G","D","S","lightshift","",""
"","","","","","html-slider-response","172","739359","0.0-162.0","howg8venc4","7","NaN","<div style=""width:500px;"">
                            <p style=""font-size:50px; font-weight:bold;""
                            >positive</p>
                            <div style=""width:240px; margin: auto;"">
                                <img src=""images/G_D_S_37_darkshift.png"" style= ""width:200px""alt=""img"">
                            </div>
                        </div>","-104","","0","images/G_D_S_37_darkshift.png","","","","positive","1","G","D","S","darkshift","",""
"","","","","","html-slider-response","173","741650","0.0-163.0","howg8venc4","7","NaN","<div style=""width:500px;"">
                            <p style=""font-size:50px; font-weight:bold;""
                            >positive</p>
                            <div style=""width:240px; margin: auto;"">
                                <img src=""images/G_D_S_37_darkshift.png"" style= ""width:200px""alt=""img"">
                            </div>
                        </div>","-146","","0","images/G_D_S_37_darkshift.png","","","","positive","2","G","D","S","darkshift","",""
"","","","","","html-slider-response","174","744269","0.0-164.0","howg8venc4","7","NaN","<div style=""width:500px;"">
                            <p style=""font-size:50px; font-weight:bold;""
                            >positive</p>
                            <div style=""width:240px; margin: auto;"">
                                <img src=""images/B_L_U_2_darkshift.png"" style= ""width:200px""alt=""img"">
                            </div>
                        </div>","0","","0","images/B_L_U_2_darkshift.png","","","","positive","1","B","L","U","darkshift","",""
"","","","","","html-slider-response","175","746214","0.0-165.0","howg8venc4","7","NaN","<div style=""width:500px;"">
                            <p style=""font-size:50px; font-weight:bold;""
                            >positive</p>
