"success","timeout","failed_images","failed_audio","failed_video","trial_type","trial_index","time_elapsed","internal_node_id","subject_id","condition_num","rt","stimulus","response","question_order","slider_start","image_path","practiceTrial","practiceTrialNum","correct","concept","repetition","hue","lightness","saturation","shift","ishihara_plate","correct_response"
"true","false","[]","[]","[]","preload","0","667","0.0-0.0","jxfs4mk6xn","15","","","","","","","","","","","","","","","","",""
"","","","","","html-button-response","1","35466","0.0-1.0","jxfs4mk6xn","15","34799","Welcome to our experiment!<p>At the bottom of this screen, you will see a button that says ""Begin Experiment"".<br>Please only click that button when you are ready to complete the 25 minute experiment in one sitting.</p><p> Once you click that button, it will not be possible to restart the experiment.","0","","","","","","","","","","","","","",""
"true","","","","","fullscreen","2","39654","0.0-2.0","jxfs4mk6xn","15","3180","","","","","","","","","","","","","","","",""
"","","","","","survey-multi-select","3","44530","0.0-3.0","jxfs4mk6xn","15","4873","","{""Consent"":[""<strong>I consent</strong>""]}","[0]","","","","","","","","","","","","",""
"","","","","","html-button-response","4","46320","0.0-4.0","jxfs4mk6xn","15","1785","Welcome! <p> This experiment involves two parts: demographic information, followed by the experimental task.<p> It will take about 25 minutes to complete both parts.","0","","","","","","","","","","","","","",""
"","","","","","survey-text","5","64652","0.0-5.0","jxfs4mk6xn","15","18283","","{""Age"":""19"",""Gender"":""female"",""Race/ethnicity"":""white"",""Languages"":""English\ntiny bit of french""}","","","","","","","","","","","","","",""
"","","","","","html-slider-response","6","70894","0.0-6.0","jxfs4mk6xn","15","6237","
                            <div style='text-align:left; font-size:20px; line-height:25px; width: 1400px;'>
                                During this experiment you will be asked to rate how much you associate maps with                    different concepts.<br> Below, you can see some examples of the maps you will be asked to rate. Next to the maps
                    is the list of concepts.<br>You will be asked                    to rate how much you associate each map with each concept on a scale from 'not at all' to 'very much' like the
                    one below. <br><br>
                    Now, please look at the list of concepts and maps. For each concept, think about the map you associate 'very
                    much' with the concept.<br>                     When you see that map during the experiment, please rate it near the 'very much' endpoint of the
                    scale.<br>Now, please think about which map you associate 'not at all'                     with each concept. When you see that map during the experiment, please rate it near the 'not at all' endpoint
                    of the scale.<br>
                    Please use the full range of the scale. That is, if a map is somewhat associated with the concept, you would
                    click partway between the middle point and right side of the scale.                    You will be asked to rate each map for a given concept before moving on to the next concept.<br><br>Press the
                    'Continue' button for instructions on how to use the slider.                    <br><br>
                </div>

                <div style=""width: 500px; margin: 0 auto;"">
                    <!-- Centered text paragraphs -->
                    <div style=""text-align: center; width: 500px;"">
                        <p style=""font-size:25px; line-height:18px;"">calm</p>
                        <p style=""font-size:25px; line-height:18px;"">positive</p>
                        <p style=""font-size:25px;line-height:18px;"">negative</p>
                        <p style=""font-size:25px;line-height:18px;"">startling</p>
                    </div>

                    <!-- Grid section -->
                   <div style=""display: flex; justify-content: center; padding-top: 15px;"">
                    <div style=""display: grid; grid-template-columns: repeat(8, 80px); grid-gap: 5px; width: auto;"">
                        <img src=""images/B_D_U_28_lightshift.png"" alt=""map"" style=""width: 100%;""><img src=""images/G_L_S_10_darkshift.png"" alt=""map"" style=""width: 100%;""><img src=""images/R_D_S_5_lightshift.png"" alt=""map"" style=""width: 100%;""><img src=""images/B_L_S_23_darkshift.png"" alt=""map"" style=""width: 100%;""><img src=""images/G_D_S_13_darkshift.png"" alt=""map"" style=""width: 100%;""><img src=""images/B_D_S_27_lightshift.png"" alt=""map"" style=""width: 100%;""><img src=""images/R_L_U_2_darkshift.png"" alt=""map"" style=""width: 100%;""><img src=""images/Y_D_S_37_darkshift.png"" alt=""map"" style=""width: 100%;""><img src=""images/Y_L_U_33_lightshift.png"" alt=""map"" style=""width: 100%;""><img src=""images/Y_L_U_33_darkshift.png"" alt=""map"" style=""width: 100%;""><img src=""images/B_L_U_26_darkshift.png"" alt=""map"" style=""width: 100%;""><img src=""images/R_L_S_44_darkshift.png"" alt=""map"" style=""width: 100%;""><img src=""images/R_D_U_7_lightshift.png"" alt=""map"" style=""width: 100%;""><img src=""images/G_D_U_15_darkshift.png"" alt=""map"" style=""width: 100%;""><img src=""images/G_L_U_12_darkshift.png"" alt=""map"" style=""width: 100%;""><img src=""images/B_D_U_28_darkshift.png"" alt=""map"" style=""width: 100%;""><img src=""images/Y_L_S_30_darkshift.png"" alt=""map"" style=""width: 100%;""><img src=""images/Y_D_S_37_lightshift.png"" alt=""map"" style=""width: 100%;""><img src=""images/R_D_U_7_darkshift.png"" alt=""map"" style=""width: 100%;""><img src=""images/G_L_U_12_lightshift.png"" alt=""map"" style=""width: 100%;""><img src=""images/R_L_U_2_lightshift.png"" alt=""map"" style=""width: 100%;""><img src=""images/R_D_S_5_darkshift.png"" alt=""map"" style=""width: 100%;""><img src=""images/B_L_S_23_lightshift.png"" alt=""map"" style=""width: 100%;""><img src=""images/Y_D_U_41_darkshift.png"" alt=""map"" style=""width: 100%;""><img src=""images/B_D_S_27_darkshift.png"" alt=""map"" style=""width: 100%;""><img src=""images/Y_D_U_41_lightshift.png"" alt=""map"" style=""width: 100%;""><img src=""images/G_L_S_10_lightshift.png"" alt=""map"" style=""width: 100%;""><img src=""images/G_D_S_13_lightshift.png"" alt=""map"" style=""width: 100%;""><img src=""images/G_D_U_15_lightshift.png"" alt=""map"" style=""width: 100%;""><img src=""images/B_L_U_26_lightshift.png"" alt=""map"" style=""width: 100%;""><img src=""images/R_L_S_44_lightshift.png"" alt=""map"" style=""width: 100%;""><img src=""images/Y_L_S_30_lightshift.png"" alt=""map"" style=""width: 100%;"">
                    </div>
                </div>

                    <!-- Clear floats -->
                    <div style=""clear: both;""></div>
                </div>
                            ","null","","0","maps_anchoring.png","true","","","","","","","","","",""
"","","","","","html-button-response","7","71960","0.0-7.0","jxfs4mk6xn","15","1063","<div style=""width:800px;""><p style=""text-align:left"">To move the slider, click and drag your cursor to the location of the scale where you would like to make your rating and then let go. When you let go of the slider, your response will be recorded and the next trial will begin. <br>
                    We are interested in your initial impressions of each map for the given concept, so please go with your first intuition. <br>
                    Before you begin the experiment, there will be four training trials for you to practice using the scale. <br>
                     When you are ready to start the training trials, please click ""Continue"".</p><br></div>","0","","","","","","","","","","","","","",""
"","","","","","html-slider-response","8","75768","0.0-8.0-0.0","jxfs4mk6xn","15","NaN","<div style=""width:500px;"">
                                    <p style=""font-size:25px;"">Please move the slider all the way to the <br> right endpoint of the scale</p>

                                    </div>
                                </div>","200","","0","","true","0","true","","","","","","","",""
"","","","","","html-button-response","9","77013","0.0-8.0-1.0","jxfs4mk6xn","15","736","<p align='center'><b>Good job!</b> Click on 'Continue' to proceed.</p>","0","","","","","","","","","","","","","",""
"","","","","","html-slider-response","10","78610","0.0-9.0-0.0","jxfs4mk6xn","15","NaN","<div style=""width:500px;"">
                                    <p style=""font-size:25px;"">Please move the slider all the way to the <br> left endpoint of the scale</p>

                                    </div>
                                </div>","-200","","0","","true","1","true","","","","","","","",""
"","","","","","html-button-response","11","79811","0.0-9.0-1.0","jxfs4mk6xn","15","694","<p align='center'><b>Good job!</b> Click on 'Continue' to proceed.</p>","0","","","","","","","","","","","","","",""
"","","","","","html-slider-response","12","81631","0.0-10.0-0.0","jxfs4mk6xn","15","NaN","<div style=""width:500px;"">
                                    <p style=""font-size:25px;"">Please move the slider halfway between the center and right endpoint of the scale</p>

                                    </div>
                                </div>","2","","0","","true","2","false","","","","","","","",""
"","","","","","html-button-response","13","83015","0.0-10.0-1.0","jxfs4mk6xn","15","876","<p align='center'><b>Not quite!</b> The slider was not placed near the instructed located. Click on 'Continue' to try again. </p>","0","","","","","","","","","","","","","",""
"","","","","","html-slider-response","14","86453","0.0-10.1-0.1","jxfs4mk6xn","15","NaN","<div style=""width:500px;"">
                                    <p style=""font-size:25px;"">Please move the slider halfway between the center and right endpoint of the scale</p>

                                    </div>
                                </div>","112","","0","","true","2","false","","","","","","","",""
"","","","","","html-button-response","15","89328","0.0-10.1-1.1","jxfs4mk6xn","15","2369","<p align='center'><b>Not quite!</b> The slider was not placed near the instructed located. Click on 'Continue' to try again. </p>","0","","","","","","","","","","","","","",""
"","","","","","html-slider-response","16","91050","0.0-10.2-0.2","jxfs4mk6xn","15","NaN","<div style=""width:500px;"">
                                    <p style=""font-size:25px;"">Please move the slider halfway between the center and right endpoint of the scale</p>

                                    </div>
                                </div>","97","","0","","true","2","true","","","","","","","",""
"","","","","","html-button-response","17","92299","0.0-10.2-1.2","jxfs4mk6xn","15","744","<p align='center'><b>Good job!</b> Click on 'Continue' to proceed.</p>","0","","","","","","","","","","","","","",""
"","","","","","html-slider-response","18","95088","0.0-11.0-0.0","jxfs4mk6xn","15","NaN","<div style=""width:500px;"">
                                    <p style=""font-size:25px;"">Please move the slider halfway between the center and left endpoint of the scale</p>

                                    </div>
                                </div>","-106","","0","","true","3","true","","","","","","","",""
"","","","","","html-button-response","19","96021","0.0-11.0-1.0","jxfs4mk6xn","15","427","<p align='center'><b>Good job!</b> Click on 'Continue' to proceed.</p>","0","","","","","","","","","","","","","",""
"","","","","","html-button-response","20","97290","0.0-12.0","jxfs4mk6xn","15","1267","<p>Great job! You've completed the practice trials. Now you will begin the main task.</p>","0","","","","","","","","","","","","","",""
"","","","","","html-button-response","21","98794","0.0-13.0","jxfs4mk6xn","15","1503","<p>In this block of trials, you will be asked to rate how much you associate each map with:</p > <p style = 'font-size:150%; font-weight: bold'>startling</p><br></br>","0","","","","","","","","","","","","","",""
"","","","","","html-slider-response","22","102419","0.0-14.0","jxfs4mk6xn","15","NaN","<div style=""width:500px;"">
                            <p style=""font-size:50px; font-weight:bold;""
                            >startling</p>
                            <div style=""width:240px; margin: auto;"">
                                <img src=""images/R_L_U_2_lightshift.png"" style= ""width:200px""alt=""img"">
                            </div>
                        </div>","78","","0","images/R_L_U_2_lightshift.png","","","","startling","2","R","L","U","lightshift","",""
"","","","","","html-slider-response","23","104817","0.0-15.0","jxfs4mk6xn","15","NaN","<div style=""width:500px;"">
                            <p style=""font-size:50px; font-weight:bold;""
                            >startling</p>
                            <div style=""width:240px; margin: auto;"">
                                <img src=""images/G_D_S_13_darkshift.png"" style= ""width:200px""alt=""img"">
                            </div>
                        </div>","-49","","0","images/G_D_S_13_darkshift.png","","","","startling","1","G","D","S","darkshift","",""
"","","","","","html-slider-response","24","106939","0.0-16.0","jxfs4mk6xn","15","NaN","<div style=""width:500px;"">
                            <p style=""font-size:50px; font-weight:bold;""
                            >startling</p>
                            <div style=""width:240px; margin: auto;"">
                                <img src=""images/G_D_U_15_lightshift.png"" style= ""width:200px""alt=""img"">
                            </div>
                        </div>","-120","","0","images/G_D_U_15_lightshift.png","","","","startling","2","G","D","U","lightshift","",""
"","","","","","html-slider-response","25","109165","0.0-17.0","jxfs4mk6xn","15","NaN","<div style=""width:500px;"">
                            <p style=""font-size:50px; font-weight:bold;""
                            >startling</p>
                            <div style=""width:240px; margin: auto;"">
                                <img src=""images/R_L_S_44_lightshift.png"" style= ""width:200px""alt=""img"">
                            </div>
                        </div>","113","","0","images/R_L_S_44_lightshift.png","","","","startling","1","R","L","S","lightshift","",""
"","","","","","html-slider-response","26","111235","0.0-18.0","jxfs4mk6xn","15","NaN","<div style=""width:500px;"">
                            <p style=""font-size:50px; font-weight:bold;""
                            >startling</p>
                            <div style=""width:240px; margin: auto;"">
                                <img src=""images/Y_L_S_30_lightshift.png"" style= ""width:200px""alt=""img"">
                            </div>
                        </div>","30","","0","images/Y_L_S_30_lightshift.png","","","","startling","1","Y","L","S","lightshift","",""
"","","","","","html-slider-response","27","113195","0.0-19.0","jxfs4mk6xn","15","NaN","<div style=""width:500px;"">
                            <p style=""font-size:50px; font-weight:bold;""
                            >startling</p>
                            <div style=""width:240px; margin: auto;"">
                                <img src=""images/B_L_U_26_darkshift.png"" style= ""width:200px""alt=""img"">
                            </div>
                        </div>","-163","","0","images/B_L_U_26_darkshift.png","","","","startling","1","B","L","U","darkshift","",""
"","","","","","html-slider-response","28","115325","0.0-20.0","jxfs4mk6xn","15","NaN","<div style=""width:500px;"">
                            <p style=""font-size:50px; font-weight:bold;""
                            >startling</p>
                            <div style=""width:240px; margin: auto;"">
                                <img src=""images/R_D_U_7_darkshift.png"" style= ""width:200px""alt=""img"">
                            </div>
                        </div>","-31","","0","images/R_D_U_7_darkshift.png","","","","startling","1","R","D","U","darkshift","",""
"","","","","","html-slider-response","29","116883","0.0-21.0","jxfs4mk6xn","15","NaN","<div style=""width:500px;"">
                            <p style=""font-size:50px; font-weight:bold;""
                            >startling</p>
                            <div style=""width:240px; margin: auto;"">
                                <img src=""images/R_L_S_44_lightshift.png"" style= ""width:200px""alt=""img"">
                            </div>
                        </div>","131","","0","images/R_L_S_44_lightshift.png","","","","startling","2","R","L","S","lightshift","",""
"","","","","","html-slider-response","30","119617","0.0-22.0","jxfs4mk6xn","15","NaN","<div style=""width:500px;"">
                            <p style=""font-size:50px; font-weight:bold;""
                            >startling</p>
                            <div style=""width:240px; margin: auto;"">
                                <img src=""images/B_L_U_26_lightshift.png"" style= ""width:200px""alt=""img"">
                            </div>
                        </div>","-22","","0","images/B_L_U_26_lightshift.png","","","","startling","2","B","L","U","lightshift","",""
"","","","","","html-slider-response","31","121874","0.0-23.0","jxfs4mk6xn","15","NaN","<div style=""width:500px;"">
                            <p style=""font-size:50px; font-weight:bold;""
                            >startling</p>
                            <div style=""width:240px; margin: auto;"">
                                <img src=""images/B_D_S_27_lightshift.png"" style= ""width:200px""alt=""img"">
                            </div>
                        </div>","-175","","0","images/B_D_S_27_lightshift.png","","","","startling","2","B","D","S","lightshift","",""
"","","","","","html-slider-response","32","124034","0.0-24.0","jxfs4mk6xn","15","NaN","<div style=""width:500px;"">
                            <p style=""font-size:50px; font-weight:bold;""
                            >startling</p>
                            <div style=""width:240px; margin: auto;"">
                                <img src=""images/G_D_U_15_darkshift.png"" style= ""width:200px""alt=""img"">
                            </div>
                        </div>","-144","","0","images/G_D_U_15_darkshift.png","","","","startling","1","G","D","U","darkshift","",""
"","","","","","html-slider-response","33","126668","0.0-25.0","jxfs4mk6xn","15","NaN","<div style=""width:500px;"">
                            <p style=""font-size:50px; font-weight:bold;""
                            >startling</p>
                            <div style=""width:240px; margin: auto;"">
                                <img src=""images/Y_L_U_33_lightshift.png"" style= ""width:200px""alt=""img"">
                            </div>
                        </div>","86","","0","images/Y_L_U_33_lightshift.png","","","","startling","1","Y","L","U","lightshift","",""
"","","","","","html-slider-response","34","128599","0.0-26.0","jxfs4mk6xn","15","NaN","<div style=""width:500px;"">
                            <p style=""font-size:50px; font-weight:bold;""
                            >startling</p>
                            <div style=""width:240px; margin: auto;"">
                                <img src=""images/G_L_U_12_darkshift.png"" style= ""width:200px""alt=""img"">
                            </div>
                        </div>","-50","","0","images/G_L_U_12_darkshift.png","","","","startling","1","G","L","U","darkshift","",""
"","","","","","html-slider-response","35","130498","0.0-27.0","jxfs4mk6xn","15","NaN","<div style=""width:500px;"">
                            <p style=""font-size:50px; font-weight:bold;""
                            >startling</p>
                            <div style=""width:240px; margin: auto;"">
                                <img src=""images/R_L_U_2_lightshift.png"" style= ""width:200px""alt=""img"">
                            </div>
                        </div>","58","","0","images/R_L_U_2_lightshift.png","","","","startling","1","R","L","U","lightshift","",""
"","","","","","html-slider-response","36","132082","0.0-28.0","jxfs4mk6xn","15","NaN","<div style=""width:500px;"">
                            <p style=""font-size:50px; font-weight:bold;""
                            >startling</p>
                            <div style=""width:240px; margin: auto;"">
                                <img src=""images/G_D_S_13_darkshift.png"" style= ""width:200px""alt=""img"">
                            </div>
                        </div>","-137","","0","images/G_D_S_13_darkshift.png","","","","startling","2","G","D","S","darkshift","",""
"","","","","","html-slider-response","37","133978","0.0-29.0","jxfs4mk6xn","15","NaN","<div style=""width:500px;"">
                            <p style=""font-size:50px; font-weight:bold;""
                            >startling</p>
                            <div style=""width:240px; margin: auto;"">
                                <img src=""images/R_D_U_7_darkshift.png"" style= ""width:200px""alt=""img"">
                            </div>
                        </div>","-187","","0","images/R_D_U_7_darkshift.png","","","","startling","2","R","D","U","darkshift","",""
"","","","","","html-slider-response","38","136952","0.0-30.0","jxfs4mk6xn","15","NaN","<div style=""width:500px;"">
                            <p style=""font-size:50px; font-weight:bold;""
                            >startling</p>
                            <div style=""width:240px; margin: auto;"">
                                <img src=""images/R_L_U_2_darkshift.png"" style= ""width:200px""alt=""img"">
                            </div>
                        </div>","-50","","0","images/R_L_U_2_darkshift.png","","","","startling","2","R","L","U","darkshift","",""
"","","","","","html-slider-response","39","138765","0.0-31.0","jxfs4mk6xn","15","NaN","<div style=""width:500px;"">
                            <p style=""font-size:50px; font-weight:bold;""
                            >startling</p>
                            <div style=""width:240px; margin: auto;"">
                                <img src=""images/Y_L_S_30_darkshift.png"" style= ""width:200px""alt=""img"">
                            </div>
                        </div>","13","","0","images/Y_L_S_30_darkshift.png","","","","startling","1","Y","L","S","darkshift","",""
"","","","","","html-slider-response","40","141167","0.0-32.0","jxfs4mk6xn","15","NaN","<div style=""width:500px;"">
                            <p style=""font-size:50px; font-weight:bold;""
                            >startling</p>
                            <div style=""width:240px; margin: auto;"">
                                <img src=""images/B_D_U_28_lightshift.png"" style= ""width:200px""alt=""img"">
                            </div>
                        </div>","-189","","0","images/B_D_U_28_lightshift.png","","","","startling","2","B","D","U","lightshift","",""
"","","","","","html-slider-response","41","142690","0.0-33.0","jxfs4mk6xn","15","NaN","<div style=""width:500px;"">
                            <p style=""font-size:50px; font-weight:bold;""
                            >startling</p>
                            <div style=""width:240px; margin: auto;"">
                                <img src=""images/R_L_S_44_darkshift.png"" style= ""width:200px""alt=""img"">
                            </div>
                        </div>","2","","0","images/R_L_S_44_darkshift.png","","","","startling","2","R","L","S","darkshift","",""
"","","","","","html-slider-response","42","144886","0.0-34.0","jxfs4mk6xn","15","NaN","<div style=""width:500px;"">
                            <p style=""font-size:50px; font-weight:bold;""
                            >startling</p>
                            <div style=""width:240px; margin: auto;"">
                                <img src=""images/Y_D_U_41_lightshift.png"" style= ""width:200px""alt=""img"">
                            </div>
                        </div>","-200","","0","images/Y_D_U_41_lightshift.png","","","","startling","1","Y","D","U","lightshift","",""
"","","","","","html-slider-response","43","146959","0.0-35.0","jxfs4mk6xn","15","NaN","<div style=""width:500px;"">
                            <p style=""font-size:50px; font-weight:bold;""
                            >startling</p>
                            <div style=""width:240px; margin: auto;"">
                                <img src=""images/G_D_S_13_lightshift.png"" style= ""width:200px""alt=""img"">
                            </div>
                        </div>","23","","0","images/G_D_S_13_lightshift.png","","","","startling","1","G","D","S","lightshift","",""
"","","","","","html-slider-response","44","148801","0.0-36.0","jxfs4mk6xn","15","NaN","<div style=""width:500px;"">
                            <p style=""font-size:50px; font-weight:bold;""
                            >startling</p>
                            <div style=""width:240px; margin: auto;"">
                                <img src=""images/R_D_S_5_darkshift.png"" style= ""width:200px""alt=""img"">
                            </div>
                        </div>","-140","","0","images/R_D_S_5_darkshift.png","","","","startling","1","R","D","S","darkshift","",""
"","","","","","html-slider-response","45","150903","0.0-37.0","jxfs4mk6xn","15","NaN","<div style=""width:500px;"">
                            <p style=""font-size:50px; font-weight:bold;""
                            >startling</p>
                            <div style=""width:240px; margin: auto;"">
                                <img src=""images/Y_L_U_33_darkshift.png"" style= ""width:200px""alt=""img"">
                            </div>
                        </div>","-36","","0","images/Y_L_U_33_darkshift.png","","","","startling","1","Y","L","U","darkshift","",""
"","","","","","html-slider-response","46","152671","0.0-38.0","jxfs4mk6xn","15","NaN","<div style=""width:500px;"">
                            <p style=""font-size:50px; font-weight:bold;""
                            >startling</p>
                            <div style=""width:240px; margin: auto;"">
                                <img src=""images/B_D_S_27_darkshift.png"" style= ""width:200px""alt=""img"">
                            </div>
                        </div>","-114","","0","images/B_D_S_27_darkshift.png","","","","startling","2","B","D","S","darkshift","",""
"","","","","","html-slider-response","47","154742","0.0-39.0","jxfs4mk6xn","15","NaN","<div style=""width:500px;"">
                            <p style=""font-size:50px; font-weight:bold;""
                            >startling</p>
                            <div style=""width:240px; margin: auto;"">
                                <img src=""images/B_L_U_26_darkshift.png"" style= ""width:200px""alt=""img"">
                            </div>
                        </div>","-164","","0","images/B_L_U_26_darkshift.png","","","","startling","2","B","L","U","darkshift","",""
"","","","","","html-slider-response","48","157033","0.0-40.0","jxfs4mk6xn","15","NaN","<div style=""width:500px;"">
                            <p style=""font-size:50px; font-weight:bold;""
                            >startling</p>
                            <div style=""width:240px; margin: auto;"">
                                <img src=""images/Y_L_S_30_darkshift.png"" style= ""width:200px""alt=""img"">
                            </div>
                        </div>","24","","0","images/Y_L_S_30_darkshift.png","","","","startling","2","Y","L","S","darkshift","",""
"","","","","","html-slider-response","49","159016","0.0-41.0","jxfs4mk6xn","15","NaN","<div style=""width:500px;"">
                            <p style=""font-size:50px; font-weight:bold;""
                            >startling</p>
                            <div style=""width:240px; margin: auto;"">
                                <img src=""images/B_L_S_23_lightshift.png"" style= ""width:200px""alt=""img"">
                            </div>
                        </div>","42","","0","images/B_L_S_23_lightshift.png","","","","startling","2","B","L","S","lightshift","",""
"","","","","","html-slider-response","50","160811","0.0-42.0","jxfs4mk6xn","15","NaN","<div style=""width:500px;"">
                            <p style=""font-size:50px; font-weight:bold;""
                            >startling</p>
                            <div style=""width:240px; margin: auto;"">
                                <img src=""images/R_D_S_5_lightshift.png"" style= ""width:200px""alt=""img"">
                            </div>
                        </div>","-26","","0","images/R_D_S_5_lightshift.png","","","","startling","1","R","D","S","lightshift","",""
"","","","","","html-slider-response","51","162666","0.0-43.0","jxfs4mk6xn","15","NaN","<div style=""width:500px;"">
                            <p style=""font-size:50px; font-weight:bold;""
                            >startling</p>
                            <div style=""width:240px; margin: auto;"">
                                <img src=""images/R_D_S_5_lightshift.png"" style= ""width:200px""alt=""img"">
                            </div>
                        </div>","-48","","0","images/R_D_S_5_lightshift.png","","","","startling","2","R","D","S","lightshift","",""
"","","","","","html-slider-response","52","164604","0.0-44.0","jxfs4mk6xn","15","NaN","<div style=""width:500px;"">
                            <p style=""font-size:50px; font-weight:bold;""
                            >startling</p>
                            <div style=""width:240px; margin: auto;"">
                                <img src=""images/Y_L_U_33_lightshift.png"" style= ""width:200px""alt=""img"">
                            </div>
                        </div>","51","","0","images/Y_L_U_33_lightshift.png","","","","startling","2","Y","L","U","lightshift","",""
"","","","","","html-slider-response","53","167022","0.0-45.0","jxfs4mk6xn","15","NaN","<div style=""width:500px;"">
                            <p style=""font-size:50px; font-weight:bold;""
                            >startling</p>
                            <div style=""width:240px; margin: auto;"">
                                <img src=""images/B_L_S_23_lightshift.png"" style= ""width:200px""alt=""img"">
                            </div>
                        </div>","38","","0","images/B_L_S_23_lightshift.png","","","","startling","1","B","L","S","lightshift","",""
"","","","","","html-slider-response","54","168695","0.0-46.0","jxfs4mk6xn","15","NaN","<div style=""width:500px;"">
                            <p style=""font-size:50px; font-weight:bold;""
                            >startling</p>
                            <div style=""width:240px; margin: auto;"">
                                <img src=""images/G_L_S_10_darkshift.png"" style= ""width:200px""alt=""img"">
                            </div>
                        </div>","-46","","0","images/G_L_S_10_darkshift.png","","","","startling","2","G","L","S","darkshift","",""
"","","","","","html-slider-response","55","170515","0.0-47.0","jxfs4mk6xn","15","NaN","<div style=""width:500px;"">
                            <p style=""font-size:50px; font-weight:bold;""
                            >startling</p>
                            <div style=""width:240px; margin: auto;"">
                                <img src=""images/R_D_S_5_darkshift.png"" style= ""width:200px""alt=""img"">
                            </div>
                        </div>","-113","","0","images/R_D_S_5_darkshift.png","","","","startling","2","R","D","S","darkshift","",""
"","","","","","html-slider-response","56","172286","0.0-48.0","jxfs4mk6xn","15","NaN","<div style=""width:500px;"">
                            <p style=""font-size:50px; font-weight:bold;""
                            >startling</p>
                            <div style=""width:240px; margin: auto;"">
                                <img src=""images/R_D_U_7_lightshift.png"" style= ""width:200px""alt=""img"">
                            </div>
                        </div>","-172","","0","images/R_D_U_7_lightshift.png","","","","startling","1","R","D","U","lightshift","",""
"","","","","","html-slider-response","57","174317","0.0-49.0","jxfs4mk6xn","15","NaN","<div style=""width:500px;"">
                            <p style=""font-size:50px; font-weight:bold;""
                            >startling</p>
                            <div style=""width:240px; margin: auto;"">
                                <img src=""images/B_D_U_28_darkshift.png"" style= ""width:200px""alt=""img"">
                            </div>
                        </div>","-200","","0","images/B_D_U_28_darkshift.png","","","","startling","1","B","D","U","darkshift","",""
"","","","","","html-slider-response","58","177253","0.0-50.0","jxfs4mk6xn","15","NaN","<div style=""width:500px;"">
                            <p style=""font-size:50px; font-weight:bold;""
                            >startling</p>
                            <div style=""width:240px; margin: auto;"">
                                <img src=""images/G_L_U_12_darkshift.png"" style= ""width:200px""alt=""img"">
                            </div>
                        </div>","-86","","0","images/G_L_U_12_darkshift.png","","","","startling","2","G","L","U","darkshift","",""
"","","","","","html-slider-response","59","179149","0.0-51.0","jxfs4mk6xn","15","NaN","<div style=""width:500px;"">
                            <p style=""font-size:50px; font-weight:bold;""
                            >startling</p>
                            <div style=""width:240px; margin: auto;"">
                                <img src=""images/Y_L_U_33_darkshift.png"" style= ""width:200px""alt=""img"">
                            </div>
                        </div>","-105","","0","images/Y_L_U_33_darkshift.png","","","","startling","2","Y","L","U","darkshift","",""
"","","","","","html-slider-response","60","181104","0.0-52.0","jxfs4mk6xn","15","NaN","<div style=""width:500px;"">
                            <p style=""font-size:50px; font-weight:bold;""
                            >startling</p>
                            <div style=""width:240px; margin: auto;"">
                                <img src=""images/G_L_U_12_lightshift.png"" style= ""width:200px""alt=""img"">
                            </div>
                        </div>","117","","0","images/G_L_U_12_lightshift.png","","","","startling","2","G","L","U","lightshift","",""
"","","","","","html-slider-response","61","182949","0.0-53.0","jxfs4mk6xn","15","NaN","<div style=""width:500px;"">
                            <p style=""font-size:50px; font-weight:bold;""
                            >startling</p>
                            <div style=""width:240px; margin: auto;"">
                                <img src=""images/G_D_U_15_darkshift.png"" style= ""width:200px""alt=""img"">
                            </div>
                        </div>","-200","","0","images/G_D_U_15_darkshift.png","","","","startling","2","G","D","U","darkshift","",""
"","","","","","html-slider-response","62","185108","0.0-54.0","jxfs4mk6xn","15","NaN","<div style=""width:500px;"">
                            <p style=""font-size:50px; font-weight:bold;""
                            >startling</p>
                            <div style=""width:240px; margin: auto;"">
                                <img src=""images/Y_D_U_41_darkshift.png"" style= ""width:200px""alt=""img"">
                            </div>
                        </div>","-200","","0","images/Y_D_U_41_darkshift.png","","","","startling","2","Y","D","U","darkshift","",""
"","","","","","html-slider-response","63","187029","0.0-55.0","jxfs4mk6xn","15","NaN","<div style=""width:500px;"">
                            <p style=""font-size:50px; font-weight:bold;""
                            >startling</p>
                            <div style=""width:240px; margin: auto;"">
                                <img src=""images/G_L_S_10_lightshift.png"" style= ""width:200px""alt=""img"">
                            </div>
                        </div>","54","","0","images/G_L_S_10_lightshift.png","","","","startling","1","G","L","S","lightshift","",""
"","","","","","html-slider-response","64","189192","0.0-56.0","jxfs4mk6xn","15","NaN","<div style=""width:500px;"">
                            <p style=""font-size:50px; font-weight:bold;""
                            >startling</p>
                            <div style=""width:240px; margin: auto;"">
                                <img src=""images/B_D_S_27_darkshift.png"" style= ""width:200px""alt=""img"">
                            </div>
                        </div>","-140","","0","images/B_D_S_27_darkshift.png","","","","startling","1","B","D","S","darkshift","",""
"","","","","","html-slider-response","65","191076","0.0-57.0","jxfs4mk6xn","15","NaN","<div style=""width:500px;"">
                            <p style=""font-size:50px; font-weight:bold;""
                            >startling</p>
                            <div style=""width:240px; margin: auto;"">
                                <img src=""images/G_D_U_15_lightshift.png"" style= ""width:200px""alt=""img"">
                            </div>
                        </div>","-83","","0","images/G_D_U_15_lightshift.png","","","","startling","1","G","D","U","lightshift","",""
"","","","","","html-slider-response","66","193026","0.0-58.0","jxfs4mk6xn","15","NaN","<div style=""width:500px;"">
                            <p style=""font-size:50px; font-weight:bold;""
                            >startling</p>
                            <div style=""width:240px; margin: auto;"">
                                <img src=""images/B_D_U_28_darkshift.png"" style= ""width:200px""alt=""img"">
                            </div>
                        </div>","-200","","0","images/B_D_U_28_darkshift.png","","","","startling","2","B","D","U","darkshift","",""
"","","","","","html-slider-response","67","195323","0.0-59.0","jxfs4mk6xn","15","NaN","<div style=""width:500px;"">
                            <p style=""font-size:50px; font-weight:bold;""
                            >startling</p>
                            <div style=""width:240px; margin: auto;"">
                                <img src=""images/B_D_S_27_lightshift.png"" style= ""width:200px""alt=""img"">
                            </div>
                        </div>","-67","","0","images/B_D_S_27_lightshift.png","","","","startling","1","B","D","S","lightshift","",""
"","","","","","html-slider-response","68","196942","0.0-60.0","jxfs4mk6xn","15","NaN","<div style=""width:500px;"">
                            <p style=""font-size:50px; font-weight:bold;""
                            >startling</p>
                            <div style=""width:240px; margin: auto;"">
                                <img src=""images/R_D_U_7_lightshift.png"" style= ""width:200px""alt=""img"">
                            </div>
                        </div>","-113","","0","images/R_D_U_7_lightshift.png","","","","startling","2","R","D","U","lightshift","",""
"","","","","","html-slider-response","69","198509","0.0-61.0","jxfs4mk6xn","15","NaN","<div style=""width:500px;"">
                            <p style=""font-size:50px; font-weight:bold;""
                            >startling</p>
                            <div style=""width:240px; margin: auto;"">
                                <img src=""images/B_L_U_26_lightshift.png"" style= ""width:200px""alt=""img"">
                            </div>
                        </div>","131","","0","images/B_L_U_26_lightshift.png","","","","startling","1","B","L","U","lightshift","",""
"","","","","","html-slider-response","70","200298","0.0-62.0","jxfs4mk6xn","15","NaN","<div style=""width:500px;"">
                            <p style=""font-size:50px; font-weight:bold;""
                            >startling</p>
                            <div style=""width:240px; margin: auto;"">
                                <img src=""images/G_L_S_10_lightshift.png"" style= ""width:200px""alt=""img"">
                            </div>
                        </div>","62","","0","images/G_L_S_10_lightshift.png","","","","startling","2","G","L","S","lightshift","",""
"","","","","","html-slider-response","71","201901","0.0-63.0","jxfs4mk6xn","15","NaN","<div style=""width:500px;"">
                            <p style=""font-size:50px; font-weight:bold;""
                            >startling</p>
                            <div style=""width:240px; margin: auto;"">
                                <img src=""images/Y_D_U_41_darkshift.png"" style= ""width:200px""alt=""img"">
                            </div>
                        </div>","-200","","0","images/Y_D_U_41_darkshift.png","","","","startling","1","Y","D","U","darkshift","",""
"","","","","","html-slider-response","72","203659","0.0-64.0","jxfs4mk6xn","15","NaN","<div style=""width:500px;"">
                            <p style=""font-size:50px; font-weight:bold;""
                            >startling</p>
                            <div style=""width:240px; margin: auto;"">
                                <img src=""images/G_L_U_12_lightshift.png"" style= ""width:200px""alt=""img"">
                            </div>
                        </div>","182","","0","images/G_L_U_12_lightshift.png","","","","startling","1","G","L","U","lightshift","",""
"","","","","","html-slider-response","73","205278","0.0-65.0","jxfs4mk6xn","15","NaN","<div style=""width:500px;"">
                            <p style=""font-size:50px; font-weight:bold;""
                            >startling</p>
                            <div style=""width:240px; margin: auto;"">
                                <img src=""images/Y_D_S_37_darkshift.png"" style= ""width:200px""alt=""img"">
                            </div>
                        </div>","-138","","0","images/Y_D_S_37_darkshift.png","","","","startling","1","Y","D","S","darkshift","",""
"","","","","","html-slider-response","74","207413","0.0-66.0","jxfs4mk6xn","15","NaN","<div style=""width:500px;"">
                            <p style=""font-size:50px; font-weight:bold;""
                            >startling</p>
                            <div style=""width:240px; margin: auto;"">
                                <img src=""images/G_L_S_10_darkshift.png"" style= ""width:200px""alt=""img"">
                            </div>
                        </div>","-53","","0","images/G_L_S_10_darkshift.png","","","","startling","1","G","L","S","darkshift","",""
"","","","","","html-slider-response","75","209079","0.0-67.0","jxfs4mk6xn","15","NaN","<div style=""width:500px;"">
                            <p style=""font-size:50px; font-weight:bold;""
                            >startling</p>
                            <div style=""width:240px; margin: auto;"">
                                <img src=""images/Y_D_S_37_darkshift.png"" style= ""width:200px""alt=""img"">
                            </div>
                        </div>","-200","","0","images/Y_D_S_37_darkshift.png","","","","startling","2","Y","D","S","darkshift","",""
"","","","","","html-slider-response","76","210683","0.0-68.0","jxfs4mk6xn","15","NaN","<div style=""width:500px;"">
                            <p style=""font-size:50px; font-weight:bold;""
                            >startling</p>
                            <div style=""width:240px; margin: auto;"">
                                <img src=""images/G_D_S_13_lightshift.png"" style= ""width:200px""alt=""img"">
                            </div>
                        </div>","-71","","0","images/G_D_S_13_lightshift.png","","","","startling","2","G","D","S","lightshift","",""
"","","","","","html-slider-response","77","212215","0.0-69.0","jxfs4mk6xn","15","NaN","<div style=""width:500px;"">
                            <p style=""font-size:50px; font-weight:bold;""
                            >startling</p>
                            <div style=""width:240px; margin: auto;"">
                                <img src=""images/R_L_S_44_darkshift.png"" style= ""width:200px""alt=""img"">
                            </div>
                        </div>","47","","0","images/R_L_S_44_darkshift.png","","","","startling","1","R","L","S","darkshift","",""
"","","","","","html-slider-response","78","213732","0.0-70.0","jxfs4mk6xn","15","NaN","<div style=""width:500px;"">
                            <p style=""font-size:50px; font-weight:bold;""
                            >startling</p>
                            <div style=""width:240px; margin: auto;"">
                                <img src=""images/Y_D_U_41_lightshift.png"" style= ""width:200px""alt=""img"">
                            </div>
                        </div>","-151","","0","images/Y_D_U_41_lightshift.png","","","","startling","2","Y","D","U","lightshift","",""
"","","","","","html-slider-response","79","215447","0.0-71.0","jxfs4mk6xn","15","NaN","<div style=""width:500px;"">
                            <p style=""font-size:50px; font-weight:bold;""
                            >startling</p>
                            <div style=""width:240px; margin: auto;"">
                                <img src=""images/Y_D_S_37_lightshift.png"" style= ""width:200px""alt=""img"">
                            </div>
                        </div>","-121","","0","images/Y_D_S_37_lightshift.png","","","","startling","2","Y","D","S","lightshift","",""
"","","","","","html-slider-response","80","216801","0.0-72.0","jxfs4mk6xn","15","NaN","<div style=""width:500px;"">
                            <p style=""font-size:50px; font-weight:bold;""
                            >startling</p>
                            <div style=""width:240px; margin: auto;"">
                                <img src=""images/B_D_U_28_lightshift.png"" style= ""width:200px""alt=""img"">
                            </div>
                        </div>","-19","","0","images/B_D_U_28_lightshift.png","","","","startling","1","B","D","U","lightshift","",""
"","","","","","html-slider-response","81","219094","0.0-73.0","jxfs4mk6xn","15","NaN","<div style=""width:500px;"">
                            <p style=""font-size:50px; font-weight:bold;""
                            >startling</p>
                            <div style=""width:240px; margin: auto;"">
                                <img src=""images/Y_L_S_30_lightshift.png"" style= ""width:200px""alt=""img"">
                            </div>
                        </div>","20","","0","images/Y_L_S_30_lightshift.png","","","","startling","2","Y","L","S","lightshift","",""
"","","","","","html-slider-response","82","220887","0.0-74.0","jxfs4mk6xn","15","NaN","<div style=""width:500px;"">
                            <p style=""font-size:50px; font-weight:bold;""
                            >startling</p>
                            <div style=""width:240px; margin: auto;"">
                                <img src=""images/Y_D_S_37_lightshift.png"" style= ""width:200px""alt=""img"">
                            </div>
                        </div>","-162","","0","images/Y_D_S_37_lightshift.png","","","","startling","1","Y","D","S","lightshift","",""
"","","","","","html-slider-response","83","222179","0.0-75.0","jxfs4mk6xn","15","NaN","<div style=""width:500px;"">
                            <p style=""font-size:50px; font-weight:bold;""
                            >startling</p>
                            <div style=""width:240px; margin: auto;"">
                                <img src=""images/B_L_S_23_darkshift.png"" style= ""width:200px""alt=""img"">
                            </div>
                        </div>","0","","0","images/B_L_S_23_darkshift.png","","","","startling","2","B","L","S","darkshift","",""
"","","","","","html-slider-response","84","224790","0.0-76.0","jxfs4mk6xn","15","NaN","<div style=""width:500px;"">
                            <p style=""font-size:50px; font-weight:bold;""
                            >startling</p>
                            <div style=""width:240px; margin: auto;"">
                                <img src=""images/R_L_U_2_darkshift.png"" style= ""width:200px""alt=""img"">
                            </div>
                        </div>","-30","","0","images/R_L_U_2_darkshift.png","","","","startling","1","R","L","U","darkshift","",""
"","","","","","html-slider-response","85","226376","0.0-77.0","jxfs4mk6xn","15","NaN","<div style=""width:500px;"">
                            <p style=""font-size:50px; font-weight:bold;""
                            >startling</p>
                            <div style=""width:240px; margin: auto;"">
                                <img src=""images/B_L_S_23_darkshift.png"" style= ""width:200px""alt=""img"">
                            </div>
                        </div>","-23","","0","images/B_L_S_23_darkshift.png","","","","startling","1","B","L","S","darkshift","",""
"","","","","","html-button-response","86","234926","0.0-78.0","jxfs4mk6xn","15","8047","<p>Great Job! You've finished block 1.<br></br> You have 3 block(s) left to go.<br></br></p>","0","","","","","","","","","","","","","",""
"","","","","","html-button-response","87","235985","0.0-79.0","jxfs4mk6xn","15","1058","<p>In this block of trials, you will be asked to rate how much you associate each map with:</p > <p style = 'font-size:150%; font-weight: bold'>calm</p><br></br>","0","","","","","","","","","","","","","",""
"","","","","","html-slider-response","88","237680","0.0-80.0","jxfs4mk6xn","15","NaN","<div style=""width:500px;"">
                            <p style=""font-size:50px; font-weight:bold;""
                            >calm</p>
                            <div style=""width:240px; margin: auto;"">
                                <img src=""images/B_L_S_23_lightshift.png"" style= ""width:200px""alt=""img"">
                            </div>
                        </div>","-78","","0","images/B_L_S_23_lightshift.png","","","","calm","2","B","L","S","lightshift","",""
"","","","","","html-slider-response","89","239592","0.0-81.0","jxfs4mk6xn","15","NaN","<div style=""width:500px;"">
                            <p style=""font-size:50px; font-weight:bold;""
                            >calm</p>
                            <div style=""width:240px; margin: auto;"">
                                <img src=""images/R_L_U_2_darkshift.png"" style= ""width:200px""alt=""img"">
                            </div>
                        </div>","26","","0","images/R_L_U_2_darkshift.png","","","","calm","2","R","L","U","darkshift","",""
"","","","","","html-slider-response","90","241241","0.0-82.0","jxfs4mk6xn","15","NaN","<div style=""width:500px;"">
                            <p style=""font-size:50px; font-weight:bold;""
                            >calm</p>
                            <div style=""width:240px; margin: auto;"">
                                <img src=""images/R_D_S_5_darkshift.png"" style= ""width:200px""alt=""img"">
                            </div>
                        </div>","99","","0","images/R_D_S_5_darkshift.png","","","","calm","2","R","D","S","darkshift","",""
"","","","","","html-slider-response","91","243327","0.0-83.0","jxfs4mk6xn","15","NaN","<div style=""width:500px;"">
                            <p style=""font-size:50px; font-weight:bold;""
                            >calm</p>
                            <div style=""width:240px; margin: auto;"">
                                <img src=""images/R_D_U_7_darkshift.png"" style= ""width:200px""alt=""img"">
                            </div>
                        </div>","150","","0","images/R_D_U_7_darkshift.png","","","","calm","1","R","D","U","darkshift","",""
"","","","","","html-slider-response","92","244853","0.0-84.0","jxfs4mk6xn","15","NaN","<div style=""width:500px;"">
                            <p style=""font-size:50px; font-weight:bold;""
                            >calm</p>
                            <div style=""width:240px; margin: auto;"">
                                <img src=""images/B_L_U_26_lightshift.png"" style= ""width:200px""alt=""img"">
                            </div>
                        </div>","-106","","0","images/B_L_U_26_lightshift.png","","","","calm","2","B","L","U","lightshift","",""
"","","","","","html-slider-response","93","247264","0.0-85.0","jxfs4mk6xn","15","NaN","<div style=""width:500px;"">
                            <p style=""font-size:50px; font-weight:bold;""
                            >calm</p>
                            <div style=""width:240px; margin: auto;"">
                                <img src=""images/R_D_U_7_lightshift.png"" style= ""width:200px""alt=""img"">
                            </div>
                        </div>","-42","","0","images/R_D_U_7_lightshift.png","","","","calm","2","R","D","U","lightshift","",""
"","","","","","html-slider-response","94","248980","0.0-86.0","jxfs4mk6xn","15","NaN","<div style=""width:500px;"">
                            <p style=""font-size:50px; font-weight:bold;""
                            >calm</p>
                            <div style=""width:240px; margin: auto;"">
                                <img src=""images/Y_L_U_33_lightshift.png"" style= ""width:200px""alt=""img"">
                            </div>
                        </div>","-143","","0","images/Y_L_U_33_lightshift.png","","","","calm","1","Y","L","U","lightshift","",""
"","","","","","html-slider-response","95","250882","0.0-87.0","jxfs4mk6xn","15","NaN","<div style=""width:500px;"">
                            <p style=""font-size:50px; font-weight:bold;""
                            >calm</p>
                            <div style=""width:240px; margin: auto;"">
                                <img src=""images/B_D_U_28_lightshift.png"" style= ""width:200px""alt=""img"">
                            </div>
                        </div>","38","","0","images/B_D_U_28_lightshift.png","","","","calm","2","B","D","U","lightshift","",""
"","","","","","html-slider-response","96","252868","0.0-88.0","jxfs4mk6xn","15","NaN","<div style=""width:500px;"">
                            <p style=""font-size:50px; font-weight:bold;""
                            >calm</p>
                            <div style=""width:240px; margin: auto;"">
                                <img src=""images/R_L_U_2_lightshift.png"" style= ""width:200px""alt=""img"">
                            </div>
                        </div>","-200","","0","images/R_L_U_2_lightshift.png","","","","calm","2","R","L","U","lightshift","",""
"","","","","","html-slider-response","97","254732","0.0-89.0","jxfs4mk6xn","15","NaN","<div style=""width:500px;"">
                            <p style=""font-size:50px; font-weight:bold;""
                            >calm</p>
                            <div style=""width:240px; margin: auto;"">
                                <img src=""images/Y_L_S_30_lightshift.png"" style= ""width:200px""alt=""img"">
                            </div>
                        </div>","-114","","0","images/Y_L_S_30_lightshift.png","","","","calm","2","Y","L","S","lightshift","",""
"","","","","","html-slider-response","98","256381","0.0-90.0","jxfs4mk6xn","15","NaN","<div style=""width:500px;"">
                            <p style=""font-size:50px; font-weight:bold;""
                            >calm</p>
                            <div style=""width:240px; margin: auto;"">
                                <img src=""images/B_D_S_27_darkshift.png"" style= ""width:200px""alt=""img"">
                            </div>
                        </div>","129","","0","images/B_D_S_27_darkshift.png","","","","calm","2","B","D","S","darkshift","",""
"","","","","","html-slider-response","99","258158","0.0-91.0","jxfs4mk6xn","15","NaN","<div style=""width:500px;"">
                            <p style=""font-size:50px; font-weight:bold;""
                            >calm</p>
                            <div style=""width:240px; margin: auto;"">
                                <img src=""images/G_L_U_12_lightshift.png"" style= ""width:200px""alt=""img"">
                            </div>
                        </div>","-163","","0","images/G_L_U_12_lightshift.png","","","","calm","1","G","L","U","lightshift","",""
"","","","","","html-slider-response","100","260300","0.0-92.0","jxfs4mk6xn","15","NaN","<div style=""width:500px;"">
                            <p style=""font-size:50px; font-weight:bold;""
                            >calm</p>
                            <div style=""width:240px; margin: auto;"">
                                <img src=""images/G_D_S_13_darkshift.png"" style= ""width:200px""alt=""img"">
                            </div>
                        </div>","36","","0","images/G_D_S_13_darkshift.png","","","","calm","2","G","D","S","darkshift","",""
"","","","","","html-slider-response","101","263041","0.0-93.0","jxfs4mk6xn","15","NaN","<div style=""width:500px;"">
                            <p style=""font-size:50px; font-weight:bold;""
                            >calm</p>
                            <div style=""width:240px; margin: auto;"">
                                <img src=""images/B_D_U_28_lightshift.png"" style= ""width:200px""alt=""img"">
                            </div>
                        </div>","66","","0","images/B_D_U_28_lightshift.png","","","","calm","1","B","D","U","lightshift","",""
"","","","","","html-slider-response","102","264707","0.0-94.0","jxfs4mk6xn","15","NaN","<div style=""width:500px;"">
                            <p style=""font-size:50px; font-weight:bold;""
                            >calm</p>
                            <div style=""width:240px; margin: auto;"">
                                <img src=""images/Y_L_S_30_darkshift.png"" style= ""width:200px""alt=""img"">
                            </div>
                        </div>","-71","","0","images/Y_L_S_30_darkshift.png","","","","calm","1","Y","L","S","darkshift","",""
"","","","","","html-slider-response","103","266499","0.0-95.0","jxfs4mk6xn","15","NaN","<div style=""width:500px;"">
                            <p style=""font-size:50px; font-weight:bold;""
                            >calm</p>
                            <div style=""width:240px; margin: auto;"">
                                <img src=""images/B_D_S_27_darkshift.png"" style= ""width:200px""alt=""img"">
                            </div>
                        </div>","91","","0","images/B_D_S_27_darkshift.png","","","","calm","1","B","D","S","darkshift","",""
"","","","","","html-slider-response","104","268271","0.0-96.0","jxfs4mk6xn","15","NaN","<div style=""width:500px;"">
                            <p style=""font-size:50px; font-weight:bold;""
                            >calm</p>
                            <div style=""width:240px; margin: auto;"">
                                <img src=""images/R_D_U_7_darkshift.png"" style= ""width:200px""alt=""img"">
                            </div>
                        </div>","150","","0","images/R_D_U_7_darkshift.png","","","","calm","2","R","D","U","darkshift","",""
"","","","","","html-slider-response","105","269870","0.0-97.0","jxfs4mk6xn","15","NaN","<div style=""width:500px;"">
                            <p style=""font-size:50px; font-weight:bold;""
                            >calm</p>
                            <div style=""width:240px; margin: auto;"">
                                <img src=""images/B_D_U_28_darkshift.png"" style= ""width:200px""alt=""img"">
                            </div>
                        </div>","200","","0","images/B_D_U_28_darkshift.png","","","","calm","2","B","D","U","darkshift","",""
"","","","","","html-slider-response","106","271580","0.0-98.0","jxfs4mk6xn","15","NaN","<div style=""width:500px;"">
                            <p style=""font-size:50px; font-weight:bold;""
                            >calm</p>
                            <div style=""width:240px; margin: auto;"">
                                <img src=""images/G_L_U_12_darkshift.png"" style= ""width:200px""alt=""img"">
                            </div>
                        </div>","-55","","0","images/G_L_U_12_darkshift.png","","","","calm","2","G","L","U","darkshift","",""
"","","","","","html-slider-response","107","273264","0.0-99.0","jxfs4mk6xn","15","NaN","<div style=""width:500px;"">
                            <p style=""font-size:50px; font-weight:bold;""
                            >calm</p>
                            <div style=""width:240px; margin: auto;"">
                                <img src=""images/G_D_S_13_darkshift.png"" style= ""width:200px""alt=""img"">
                            </div>
                        </div>","33","","0","images/G_D_S_13_darkshift.png","","","","calm","1","G","D","S","darkshift","",""
"","","","","","html-slider-response","108","275140","0.0-100.0","jxfs4mk6xn","15","NaN","<div style=""width:500px;"">
                            <p style=""font-size:50px; font-weight:bold;""
                            >calm</p>
                            <div style=""width:240px; margin: auto;"">
                                <img src=""images/Y_D_S_37_darkshift.png"" style= ""width:200px""alt=""img"">
                            </div>
                        </div>","135","","0","images/Y_D_S_37_darkshift.png","","","","calm","2","Y","D","S","darkshift","",""
"","","","","","html-slider-response","109","277009","0.0-101.0","jxfs4mk6xn","15","NaN","<div style=""width:500px;"">
                            <p style=""font-size:50px; font-weight:bold;""
                            >calm</p>
                            <div style=""width:240px; margin: auto;"">
                                <img src=""images/R_L_U_2_darkshift.png"" style= ""width:200px""alt=""img"">
                            </div>
                        </div>","97","","0","images/R_L_U_2_darkshift.png","","","","calm","1","R","L","U","darkshift","",""
"","","","","","html-slider-response","110","278537","0.0-102.0","jxfs4mk6xn","15","NaN","<div style=""width:500px;"">
                            <p style=""font-size:50px; font-weight:bold;""
                            >calm</p>
                            <div style=""width:240px; margin: auto;"">
                                <img src=""images/G_D_U_15_lightshift.png"" style= ""width:200px""alt=""img"">
                            </div>
                        </div>","131","","0","images/G_D_U_15_lightshift.png","","","","calm","1","G","D","U","lightshift","",""
"","","","","","html-slider-response","111","280122","0.0-103.0","jxfs4mk6xn","15","NaN","<div style=""width:500px;"">
                            <p style=""font-size:50px; font-weight:bold;""
                            >calm</p>
                            <div style=""width:240px; margin: auto;"">
                                <img src=""images/Y_L_U_33_darkshift.png"" style= ""width:200px""alt=""img"">
                            </div>
                        </div>","-86","","0","images/Y_L_U_33_darkshift.png","","","","calm","2","Y","L","U","darkshift","",""
"","","","","","html-slider-response","112","281852","0.0-104.0","jxfs4mk6xn","15","NaN","<div style=""width:500px;"">
                            <p style=""font-size:50px; font-weight:bold;""
                            >calm</p>
                            <div style=""width:240px; margin: auto;"">
                                <img src=""images/R_L_S_44_lightshift.png"" style= ""width:200px""alt=""img"">
                            </div>
                        </div>","-86","","0","images/R_L_S_44_lightshift.png","","","","calm","2","R","L","S","lightshift","",""
"","","","","","html-slider-response","113","283322","0.0-105.0","jxfs4mk6xn","15","NaN","<div style=""width:500px;"">
                            <p style=""font-size:50px; font-weight:bold;""
                            >calm</p>
                            <div style=""width:240px; margin: auto;"">
                                <img src=""images/G_L_U_12_darkshift.png"" style= ""width:200px""alt=""img"">
                            </div>
                        </div>","-92","","0","images/G_L_U_12_darkshift.png","","","","calm","1","G","L","U","darkshift","",""
"","","","","","html-slider-response","114","284674","0.0-106.0","jxfs4mk6xn","15","NaN","<div style=""width:500px;"">
                            <p style=""font-size:50px; font-weight:bold;""
                            >calm</p>
                            <div style=""width:240px; margin: auto;"">
                                <img src=""images/G_L_S_10_darkshift.png"" style= ""width:200px""alt=""img"">
                            </div>
                        </div>","-74","","0","images/G_L_S_10_darkshift.png","","","","calm","2","G","L","S","darkshift","",""
"","","","","","html-slider-response","115","286306","0.0-107.0","jxfs4mk6xn","15","NaN","<div style=""width:500px;"">
                            <p style=""font-size:50px; font-weight:bold;""
                            >calm</p>
                            <div style=""width:240px; margin: auto;"">
                                <img src=""images/R_D_S_5_lightshift.png"" style= ""width:200px""alt=""img"">
                            </div>
                        </div>","43","","0","images/R_D_S_5_lightshift.png","","","","calm","1","R","D","S","lightshift","",""
"","","","","","html-slider-response","116","287986","0.0-108.0","jxfs4mk6xn","15","NaN","<div style=""width:500px;"">
                            <p style=""font-size:50px; font-weight:bold;""
                            >calm</p>
                            <div style=""width:240px; margin: auto;"">
                                <img src=""images/R_D_U_7_lightshift.png"" style= ""width:200px""alt=""img"">
                            </div>
                        </div>","134","","0","images/R_D_U_7_lightshift.png","","","","calm","1","R","D","U","lightshift","",""
"","","","","","html-slider-response","117","290011","0.0-109.0","jxfs4mk6xn","15","NaN","<div style=""width:500px;"">
                            <p style=""font-size:50px; font-weight:bold;""
                            >calm</p>
                            <div style=""width:240px; margin: auto;"">
                                <img src=""images/R_D_S_5_lightshift.png"" style= ""width:200px""alt=""img"">
                            </div>
                        </div>","-61","","0","images/R_D_S_5_lightshift.png","","","","calm","2","R","D","S","lightshift","",""
"","","","","","html-slider-response","118","291863","0.0-110.0","jxfs4mk6xn","15","NaN","<div style=""width:500px;"">
                            <p style=""font-size:50px; font-weight:bold;""
                            >calm</p>
                            <div style=""width:240px; margin: auto;"">
                                <img src=""images/R_L_U_2_lightshift.png"" style= ""width:200px""alt=""img"">
                            </div>
                        </div>","-94","","0","images/R_L_U_2_lightshift.png","","","","calm","1","R","L","U","lightshift","",""
"","","","","","html-slider-response","119","293501","0.0-111.0","jxfs4mk6xn","15","NaN","<div style=""width:500px;"">
                            <p style=""font-size:50px; font-weight:bold;""
                            >calm</p>
                            <div style=""width:240px; margin: auto;"">
                                <img src=""images/Y_D_U_41_lightshift.png"" style= ""width:200px""alt=""img"">
                            </div>
                        </div>","82","","0","images/Y_D_U_41_lightshift.png","","","","calm","2","Y","D","U","lightshift","",""
"","","","","","html-slider-response","120","295035","0.0-112.0","jxfs4mk6xn","15","NaN","<div style=""width:500px;"">
                            <p style=""font-size:50px; font-weight:bold;""
                            >calm</p>
                            <div style=""width:240px; margin: auto;"">
                                <img src=""images/Y_D_U_41_lightshift.png"" style= ""width:200px""alt=""img"">
                            </div>
                        </div>","102","","0","images/Y_D_U_41_lightshift.png","","","","calm","1","Y","D","U","lightshift","",""
"","","","","","html-slider-response","121","296677","0.0-113.0","jxfs4mk6xn","15","NaN","<div style=""width:500px;"">
                            <p style=""font-size:50px; font-weight:bold;""
                            >calm</p>
                            <div style=""width:240px; margin: auto;"">
                                <img src=""images/B_L_S_23_lightshift.png"" style= ""width:200px""alt=""img"">
                            </div>
                        </div>","-95","","0","images/B_L_S_23_lightshift.png","","","","calm","1","B","L","S","lightshift","",""
"","","","","","html-slider-response","122","298487","0.0-114.0","jxfs4mk6xn","15","NaN","<div style=""width:500px;"">
                            <p style=""font-size:50px; font-weight:bold;""
                            >calm</p>
                            <div style=""width:240px; margin: auto;"">
                                <img src=""images/Y_D_S_37_lightshift.png"" style= ""width:200px""alt=""img"">
                            </div>
                        </div>","70","","0","images/Y_D_S_37_lightshift.png","","","","calm","2","Y","D","S","lightshift","",""
"","","","","","html-slider-response","123","300135","0.0-115.0","jxfs4mk6xn","15","NaN","<div style=""width:500px;"">
                            <p style=""font-size:50px; font-weight:bold;""
                            >calm</p>
                            <div style=""width:240px; margin: auto;"">
                                <img src=""images/G_D_S_13_lightshift.png"" style= ""width:200px""alt=""img"">
                            </div>
                        </div>","48","","0","images/G_D_S_13_lightshift.png","","","","calm","1","G","D","S","lightshift","",""
"","","","","","html-slider-response","124","302582","0.0-116.0","jxfs4mk6xn","15","NaN","<div style=""width:500px;"">
                            <p style=""font-size:50px; font-weight:bold;""
                            >calm</p>
                            <div style=""width:240px; margin: auto;"">
                                <img src=""images/Y_L_S_30_darkshift.png"" style= ""width:200px""alt=""img"">
                            </div>
                        </div>","-19","","0","images/Y_L_S_30_darkshift.png","","","","calm","2","Y","L","S","darkshift","",""
"","","","","","html-slider-response","125","304242","0.0-117.0","jxfs4mk6xn","15","NaN","<div style=""width:500px;"">
                            <p style=""font-size:50px; font-weight:bold;""
                            >calm</p>
                            <div style=""width:240px; margin: auto;"">
                                <img src=""images/Y_L_S_30_lightshift.png"" style= ""width:200px""alt=""img"">
                            </div>
                        </div>","-50","","0","images/Y_L_S_30_lightshift.png","","","","calm","1","Y","L","S","lightshift","",""
"","","","","","html-slider-response","126","306003","0.0-118.0","jxfs4mk6xn","15","NaN","<div style=""width:500px;"">
                            <p style=""font-size:50px; font-weight:bold;""
                            >calm</p>
                            <div style=""width:240px; margin: auto;"">
                                <img src=""images/B_D_S_27_lightshift.png"" style= ""width:200px""alt=""img"">
                            </div>
                        </div>","159","","0","images/B_D_S_27_lightshift.png","","","","calm","1","B","D","S","lightshift","",""
"","","","","","html-slider-response","127","307746","0.0-119.0","jxfs4mk6xn","15","NaN","<div style=""width:500px;"">
                            <p style=""font-size:50px; font-weight:bold;""
                            >calm</p>
                            <div style=""width:240px; margin: auto;"">
                                <img src=""images/B_L_U_26_lightshift.png"" style= ""width:200px""alt=""img"">
                            </div>
                        </div>","-198","","0","images/B_L_U_26_lightshift.png","","","","calm","1","B","L","U","lightshift","",""
"","","","","","html-slider-response","128","309750","0.0-120.0","jxfs4mk6xn","15","NaN","<div style=""width:500px;"">
                            <p style=""font-size:50px; font-weight:bold;""
                            >calm</p>
                            <div style=""width:240px; margin: auto;"">
                                <img src=""images/Y_L_U_33_lightshift.png"" style= ""width:200px""alt=""img"">
                            </div>
                        </div>","-200","","0","images/Y_L_U_33_lightshift.png","","","","calm","2","Y","L","U","lightshift","",""
"","","","","","html-slider-response","129","311888","0.0-121.0","jxfs4mk6xn","15","NaN","<div style=""width:500px;"">
                            <p style=""font-size:50px; font-weight:bold;""
                            >calm</p>
                            <div style=""width:240px; margin: auto;"">
                                <img src=""images/B_L_U_26_darkshift.png"" style= ""width:200px""alt=""img"">
                            </div>
                        </div>","46","","0","images/B_L_U_26_darkshift.png","","","","calm","1","B","L","U","darkshift","",""
"","","","","","html-slider-response","130","313584","0.0-122.0","jxfs4mk6xn","15","NaN","<div style=""width:500px;"">
                            <p style=""font-size:50px; font-weight:bold;""
                            >calm</p>
                            <div style=""width:240px; margin: auto;"">
                                <img src=""images/G_L_S_10_lightshift.png"" style= ""width:200px""alt=""img"">
                            </div>
                        </div>","-80","","0","images/G_L_S_10_lightshift.png","","","","calm","1","G","L","S","lightshift","",""
"","","","","","html-slider-response","131","315731","0.0-123.0","jxfs4mk6xn","15","NaN","<div style=""width:500px;"">
                            <p style=""font-size:50px; font-weight:bold;""
                            >calm</p>
                            <div style=""width:240px; margin: auto;"">
                                <img src=""images/Y_D_S_37_lightshift.png"" style= ""width:200px""alt=""img"">
                            </div>
                        </div>","153","","0","images/Y_D_S_37_lightshift.png","","","","calm","1","Y","D","S","lightshift","",""
"","","","","","html-slider-response","132","317417","0.0-124.0","jxfs4mk6xn","15","NaN","<div style=""width:500px;"">
                            <p style=""font-size:50px; font-weight:bold;""
                            >calm</p>
                            <div style=""width:240px; margin: auto;"">
                                <img src=""images/Y_D_U_41_darkshift.png"" style= ""width:200px""alt=""img"">
                            </div>
                        </div>","98","","0","images/Y_D_U_41_darkshift.png","","","","calm","1","Y","D","U","darkshift","",""
"","","","","","html-slider-response","133","318905","0.0-125.0","jxfs4mk6xn","15","NaN","<div style=""width:500px;"">
                            <p style=""font-size:50px; font-weight:bold;""
                            >calm</p>
                            <div style=""width:240px; margin: auto;"">
                                <img src=""images/R_L_S_44_darkshift.png"" style= ""width:200px""alt=""img"">
                            </div>
                        </div>","-102","","0","images/R_L_S_44_darkshift.png","","","","calm","2","R","L","S","darkshift","",""
"","","","","","html-slider-response","134","320611","0.0-126.0","jxfs4mk6xn","15","NaN","<div style=""width:500px;"">
                            <p style=""font-size:50px; font-weight:bold;""
                            >calm</p>
                            <div style=""width:240px; margin: auto;"">
                                <img src=""images/Y_D_U_41_darkshift.png"" style= ""width:200px""alt=""img"">
                            </div>
                        </div>","158","","0","images/Y_D_U_41_darkshift.png","","","","calm","2","Y","D","U","darkshift","",""
"","","","","","html-slider-response","135","322229","0.0-127.0","jxfs4mk6xn","15","NaN","<div style=""width:500px;"">
                            <p style=""font-size:50px; font-weight:bold;""
                            >calm</p>
                            <div style=""width:240px; margin: auto;"">
                                <img src=""images/G_L_U_12_lightshift.png"" style= ""width:200px""alt=""img"">
                            </div>
                        </div>","-104","","0","images/G_L_U_12_lightshift.png","","","","calm","2","G","L","U","lightshift","",""
"","","","","","html-slider-response","136","324628","0.0-128.0","jxfs4mk6xn","15","NaN","<div style=""width:500px;"">
                            <p style=""font-size:50px; font-weight:bold;""
                            >calm</p>
                            <div style=""width:240px; margin: auto;"">
                                <img src=""images/B_L_S_23_darkshift.png"" style= ""width:200px""alt=""img"">
                            </div>
                        </div>","-30","","0","images/B_L_S_23_darkshift.png","","","","calm","2","B","L","S","darkshift","",""
"","","","","","html-slider-response","137","326050","0.0-129.0","jxfs4mk6xn","15","NaN","<div style=""width:500px;"">
                            <p style=""font-size:50px; font-weight:bold;""
                            >calm</p>
                            <div style=""width:240px; margin: auto;"">
                                <img src=""images/B_L_S_23_darkshift.png"" style= ""width:200px""alt=""img"">
                            </div>
                        </div>","-27","","0","images/B_L_S_23_darkshift.png","","","","calm","1","B","L","S","darkshift","",""
"","","","","","html-slider-response","138","327829","0.0-130.0","jxfs4mk6xn","15","NaN","<div style=""width:500px;"">
                            <p style=""font-size:50px; font-weight:bold;""
                            >calm</p>
                            <div style=""width:240px; margin: auto;"">
                                <img src=""images/Y_D_S_37_darkshift.png"" style= ""width:200px""alt=""img"">
                            </div>
                        </div>","137","","0","images/Y_D_S_37_darkshift.png","","","","calm","1","Y","D","S","darkshift","",""
"","","","","","html-slider-response","139","329315","0.0-131.0","jxfs4mk6xn","15","NaN","<div style=""width:500px;"">
                            <p style=""font-size:50px; font-weight:bold;""
                            >calm</p>
                            <div style=""width:240px; margin: auto;"">
                                <img src=""images/G_D_S_13_lightshift.png"" style= ""width:200px""alt=""img"">
                            </div>
                        </div>","-75","","0","images/G_D_S_13_lightshift.png","","","","calm","2","G","D","S","lightshift","",""
"","","","","","html-slider-response","140","331045","0.0-132.0","jxfs4mk6xn","15","NaN","<div style=""width:500px;"">
                            <p style=""font-size:50px; font-weight:bold;""
                            >calm</p>
                            <div style=""width:240px; margin: auto;"">
                                <img src=""images/G_D_U_15_lightshift.png"" style= ""width:200px""alt=""img"">
                            </div>
                        </div>","174","","0","images/G_D_U_15_lightshift.png","","","","calm","2","G","D","U","lightshift","",""
"","","","","","html-slider-response","141","332872","0.0-133.0","jxfs4mk6xn","15","NaN","<div style=""width:500px;"">
                            <p style=""font-size:50px; font-weight:bold;""
                            >calm</p>
                            <div style=""width:240px; margin: auto;"">
                                <img src=""images/G_L_S_10_darkshift.png"" style= ""width:200px""alt=""img"">
                            </div>
                        </div>","-86","","0","images/G_L_S_10_darkshift.png","","","","calm","1","G","L","S","darkshift","",""
"","","","","","html-slider-response","142","334634","0.0-134.0","jxfs4mk6xn","15","NaN","<div style=""width:500px;"">
                            <p style=""font-size:50px; font-weight:bold;""
                            >calm</p>
                            <div style=""width:240px; margin: auto;"">
                                <img src=""images/R_D_S_5_darkshift.png"" style= ""width:200px""alt=""img"">
                            </div>
                        </div>","-51","","0","images/R_D_S_5_darkshift.png","","","","calm","1","R","D","S","darkshift","",""
"","","","","","html-slider-response","143","336608","0.0-135.0","jxfs4mk6xn","15","NaN","<div style=""width:500px;"">
                            <p style=""font-size:50px; font-weight:bold;""
                            >calm</p>
                            <div style=""width:240px; margin: auto;"">
                                <img src=""images/Y_L_U_33_darkshift.png"" style= ""width:200px""alt=""img"">
                            </div>
                        </div>","-115","","0","images/Y_L_U_33_darkshift.png","","","","calm","1","Y","L","U","darkshift","",""
"","","","","","html-slider-response","144","338936","0.0-136.0","jxfs4mk6xn","15","NaN","<div style=""width:500px;"">
                            <p style=""font-size:50px; font-weight:bold;""
                            >calm</p>
                            <div style=""width:240px; margin: auto;"">
                                <img src=""images/B_L_U_26_darkshift.png"" style= ""width:200px""alt=""img"">
                            </div>
                        </div>","-106","","0","images/B_L_U_26_darkshift.png","","","","calm","2","B","L","U","darkshift","",""
"","","","","","html-slider-response","145","340609","0.0-137.0","jxfs4mk6xn","15","NaN","<div style=""width:500px;"">
                            <p style=""font-size:50px; font-weight:bold;""
                            >calm</p>
                            <div style=""width:240px; margin: auto;"">
                                <img src=""images/B_D_S_27_lightshift.png"" style= ""width:200px""alt=""img"">
                            </div>
                        </div>","-49","","0","images/B_D_S_27_lightshift.png","","","","calm","2","B","D","S","lightshift","",""
"","","","","","html-slider-response","146","342367","0.0-138.0","jxfs4mk6xn","15","NaN","<div style=""width:500px;"">
                            <p style=""font-size:50px; font-weight:bold;""
                            >calm</p>
                            <div style=""width:240px; margin: auto;"">
                                <img src=""images/B_D_U_28_darkshift.png"" style= ""width:200px""alt=""img"">
                            </div>
                        </div>","200","","0","images/B_D_U_28_darkshift.png","","","","calm","1","B","D","U","darkshift","",""
"","","","","","html-slider-response","147","344051","0.0-139.0","jxfs4mk6xn","15","NaN","<div style=""width:500px;"">
                            <p style=""font-size:50px; font-weight:bold;""
                            >calm</p>
                            <div style=""width:240px; margin: auto;"">
                                <img src=""images/G_D_U_15_darkshift.png"" style= ""width:200px""alt=""img"">
                            </div>
                        </div>","94","","0","images/G_D_U_15_darkshift.png","","","","calm","2","G","D","U","darkshift","",""
"","","","","","html-slider-response","148","345555","0.0-140.0","jxfs4mk6xn","15","NaN","<div style=""width:500px;"">
                            <p style=""font-size:50px; font-weight:bold;""
                            >calm</p>
                            <div style=""width:240px; margin: auto;"">
                                <img src=""images/G_D_U_15_darkshift.png"" style= ""width:200px""alt=""img"">
                            </div>
                        </div>","125","","0","images/G_D_U_15_darkshift.png","","","","calm","1","G","D","U","darkshift","",""
"","","","","","html-slider-response","149","347003","0.0-141.0","jxfs4mk6xn","15","NaN","<div style=""width:500px;"">
                            <p style=""font-size:50px; font-weight:bold;""
                            >calm</p>
                            <div style=""width:240px; margin: auto;"">
                                <img src=""images/R_L_S_44_lightshift.png"" style= ""width:200px""alt=""img"">
                            </div>
                        </div>","-78","","0","images/R_L_S_44_lightshift.png","","","","calm","1","R","L","S","lightshift","",""
"","","","","","html-slider-response","150","349160","0.0-142.0","jxfs4mk6xn","15","NaN","<div style=""width:500px;"">
                            <p style=""font-size:50px; font-weight:bold;""
                            >calm</p>
                            <div style=""width:240px; margin: auto;"">
                                <img src=""images/G_L_S_10_lightshift.png"" style= ""width:200px""alt=""img"">
                            </div>
                        </div>","-113","","0","images/G_L_S_10_lightshift.png","","","","calm","2","G","L","S","lightshift","",""
"","","","","","html-slider-response","151","350810","0.0-143.0","jxfs4mk6xn","15","NaN","<div style=""width:500px;"">
                            <p style=""font-size:50px; font-weight:bold;""
                            >calm</p>
                            <div style=""width:240px; margin: auto;"">
                                <img src=""images/R_L_S_44_darkshift.png"" style= ""width:200px""alt=""img"">
                            </div>
                        </div>","-63","","0","images/R_L_S_44_darkshift.png","","","","calm","1","R","L","S","darkshift","",""
"","","","","","html-button-response","152","352087","0.0-144.0","jxfs4mk6xn","15","769","<p>Great Job! You've finished block 2.<br></br> You have 2 block(s) left to go.<br></br></p>","0","","","","","","","","","","","","","",""
"","","","","","html-button-response","153","352846","0.0-145.0","jxfs4mk6xn","15","757","<p>In this block of trials, you will be asked to rate how much you associate each map with:</p > <p style = 'font-size:150%; font-weight: bold'>positive</p><br></br>","0","","","","","","","","","","","","","",""
"","","","","","html-slider-response","154","354115","0.0-146.0","jxfs4mk6xn","15","NaN","<div style=""width:500px;"">
                            <p style=""font-size:50px; font-weight:bold;""
                            >positive</p>
                            <div style=""width:240px; margin: auto;"">
                                <img src=""images/R_D_S_5_lightshift.png"" style= ""width:200px""alt=""img"">
                            </div>
                        </div>","145","","0","images/R_D_S_5_lightshift.png","","","","positive","1","R","D","S","lightshift","",""
"","","","","","html-slider-response","155","355951","0.0-147.0","jxfs4mk6xn","15","NaN","<div style=""width:500px;"">
                            <p style=""font-size:50px; font-weight:bold;""
                            >positive</p>
                            <div style=""width:240px; margin: auto;"">
                                <img src=""images/R_D_U_7_darkshift.png"" style= ""width:200px""alt=""img"">
                            </div>
                        </div>","-107","","0","images/R_D_U_7_darkshift.png","","","","positive","2","R","D","U","darkshift","",""
"","","","","","html-slider-response","156","357762","0.0-148.0","jxfs4mk6xn","15","NaN","<div style=""width:500px;"">
                            <p style=""font-size:50px; font-weight:bold;""
                            >positive</p>
                            <div style=""width:240px; margin: auto;"">
                                <img src=""images/Y_D_U_41_lightshift.png"" style= ""width:200px""alt=""img"">
                            </div>
                        </div>","-150","","0","images/Y_D_U_41_lightshift.png","","","","positive","1","Y","D","U","lightshift","",""
"","","","","","html-slider-response","157","359377","0.0-149.0","jxfs4mk6xn","15","NaN","<div style=""width:500px;"">
                            <p style=""font-size:50px; font-weight:bold;""
                            >positive</p>
                            <div style=""width:240px; margin: auto;"">
                                <img src=""images/G_L_U_12_darkshift.png"" style= ""width:200px""alt=""img"">
                            </div>
                        </div>","100","","0","images/G_L_U_12_darkshift.png","","","","positive","1","G","L","U","darkshift","",""
"","","","","","html-slider-response","158","360863","0.0-150.0","jxfs4mk6xn","15","NaN","<div style=""width:500px;"">
                            <p style=""font-size:50px; font-weight:bold;""
                            >positive</p>
                            <div style=""width:240px; margin: auto;"">
                                <img src=""images/R_L_U_2_darkshift.png"" style= ""width:200px""alt=""img"">
                            </div>
                        </div>","150","","0","images/R_L_U_2_darkshift.png","","","","positive","1","R","L","U","darkshift","",""
"","","","","","html-slider-response","159","362950","0.0-151.0","jxfs4mk6xn","15","NaN","<div style=""width:500px;"">
                            <p style=""font-size:50px; font-weight:bold;""
                            >positive</p>
                            <div style=""width:240px; margin: auto;"">
                                <img src=""images/B_D_S_27_darkshift.png"" style= ""width:200px""alt=""img"">
                            </div>
                        </div>","37","","0","images/B_D_S_27_darkshift.png","","","","positive","1","B","D","S","darkshift","",""
"","","","","","html-slider-response","160","364899","0.0-152.0","jxfs4mk6xn","15","NaN","<div style=""width:500px;"">
                            <p style=""font-size:50px; font-weight:bold;""
                            >positive</p>
                            <div style=""width:240px; margin: auto;"">
                                <img src=""images/G_D_S_13_darkshift.png"" style= ""width:200px""alt=""img"">
                            </div>
                        </div>","-32","","0","images/G_D_S_13_darkshift.png","","","","positive","2","G","D","S","darkshift","",""
"","","","","","html-slider-response","161","366951","0.0-153.0","jxfs4mk6xn","15","NaN","<div style=""width:500px;"">
                            <p style=""font-size:50px; font-weight:bold;""
                            >positive</p>
                            <div style=""width:240px; margin: auto;"">
                                <img src=""images/G_L_U_12_lightshift.png"" style= ""width:200px""alt=""img"">
                            </div>
                        </div>","-98","","0","images/G_L_U_12_lightshift.png","","","","positive","2","G","L","U","lightshift","",""
"","","","","","html-slider-response","162","369329","0.0-154.0","jxfs4mk6xn","15","NaN","<div style=""width:500px;"">
                            <p style=""font-size:50px; font-weight:bold;""
                            >positive</p>
                            <div style=""width:240px; margin: auto;"">
                                <img src=""images/B_D_U_28_lightshift.png"" style= ""width:200px""alt=""img"">
                            </div>
                        </div>","24","","0","images/B_D_U_28_lightshift.png","","","","positive","2","B","D","U","lightshift","",""
"","","","","","html-slider-response","163","371043","0.0-155.0","jxfs4mk6xn","15","NaN","<div style=""width:500px;"">
                            <p style=""font-size:50px; font-weight:bold;""
                            >positive</p>
                            <div style=""width:240px; margin: auto;"">
                                <img src=""images/B_D_S_27_darkshift.png"" style= ""width:200px""alt=""img"">
                            </div>
                        </div>","91","","0","images/B_D_S_27_darkshift.png","","","","positive","2","B","D","S","darkshift","",""
"","","","","","html-slider-response","164","372730","0.0-156.0","jxfs4mk6xn","15","NaN","<div style=""width:500px;"">
                            <p style=""font-size:50px; font-weight:bold;""
                            >positive</p>
                            <div style=""width:240px; margin: auto;"">
                                <img src=""images/B_D_U_28_darkshift.png"" style= ""width:200px""alt=""img"">
                            </div>
                        </div>","-42","","0","images/B_D_U_28_darkshift.png","","","","positive","1","B","D","U","darkshift","",""
"","","","","","html-slider-response","165","374792","0.0-157.0","jxfs4mk6xn","15","NaN","<div style=""width:500px;"">
                            <p style=""font-size:50px; font-weight:bold;""
                            >positive</p>
                            <div style=""width:240px; margin: auto;"">
                                <img src=""images/R_L_U_2_lightshift.png"" style= ""width:200px""alt=""img"">
                            </div>
                        </div>","-22","","0","images/R_L_U_2_lightshift.png","","","","positive","1","R","L","U","lightshift","",""
"","","","","","html-slider-response","166","376506","0.0-158.0","jxfs4mk6xn","15","NaN","<div style=""width:500px;"">
                            <p style=""font-size:50px; font-weight:bold;""
                            >positive</p>
                            <div style=""width:240px; margin: auto;"">
                                <img src=""images/R_D_U_7_lightshift.png"" style= ""width:200px""alt=""img"">
                            </div>
                        </div>","-18","","0","images/R_D_U_7_lightshift.png","","","","positive","2","R","D","U","lightshift","",""
"","","","","","html-slider-response","167","378374","0.0-159.0","jxfs4mk6xn","15","NaN","<div style=""width:500px;"">
                            <p style=""font-size:50px; font-weight:bold;""
                            >positive</p>
                            <div style=""width:240px; margin: auto;"">
                                <img src=""images/B_D_U_28_lightshift.png"" style= ""width:200px""alt=""img"">
                            </div>
                        </div>","-18","","0","images/B_D_U_28_lightshift.png","","","","positive","1","B","D","U","lightshift","",""
"","","","","","html-slider-response","168","380742","0.0-160.0","jxfs4mk6xn","15","NaN","<div style=""width:500px;"">
                            <p style=""font-size:50px; font-weight:bold;""
                            >positive</p>
                            <div style=""width:240px; margin: auto;"">
                                <img src=""images/G_D_S_13_lightshift.png"" style= ""width:200px""alt=""img"">
                            </div>
                        </div>","-50","","0","images/G_D_S_13_lightshift.png","","","","positive","2","G","D","S","lightshift","",""
"","","","","","html-slider-response","169","382438","0.0-161.0","jxfs4mk6xn","15","NaN","<div style=""width:500px;"">
                            <p style=""font-size:50px; font-weight:bold;""
                            >positive</p>
                            <div style=""width:240px; margin: auto;"">
                                <img src=""images/G_L_S_10_lightshift.png"" style= ""width:200px""alt=""img"">
                            </div>
                        </div>","45","","0","images/G_L_S_10_lightshift.png","","","","positive","2","G","L","S","lightshift","",""
"","","","","","html-slider-response","170","384195","0.0-162.0","jxfs4mk6xn","15","NaN","<div style=""width:500px;"">
                            <p style=""font-size:50px; font-weight:bold;""
                            >positive</p>
                            <div style=""width:240px; margin: auto;"">
                                <img src=""images/G_L_S_10_darkshift.png"" style= ""width:200px""alt=""img"">
                            </div>
                        </div>","62","","0","images/G_L_S_10_darkshift.png","","","","positive","2","G","L","S","darkshift","",""
"","","","","","html-slider-response","171","385817","0.0-163.0","jxfs4mk6xn","15","NaN","<div style=""width:500px;"">
                            <p style=""font-size:50px; font-weight:bold;""
                            >positive</p>
                            <div style=""width:240px; margin: auto;"">
                                <img src=""images/Y_L_S_30_lightshift.png"" style= ""width:200px""alt=""img"">
                            </div>
                        </div>","-73","","0","images/Y_L_S_30_lightshift.png","","","","positive","1","Y","L","S","lightshift","",""
"","","","","","html-slider-response","172","387367","0.0-164.0","jxfs4mk6xn","15","NaN","<div style=""width:500px;"">
                            <p style=""font-size:50px; font-weight:bold;""
                            >positive</p>
                            <div style=""width:240px; margin: auto;"">
                                <img src=""images/B_D_S_27_lightshift.png"" style= ""width:200px""alt=""img"">
                            </div>
                        </div>","87","","0","images/B_D_S_27_lightshift.png","","","","positive","2","B","D","S","lightshift","",""
"","","","","","html-slider-response","173","389213","0.0-165.0","jxfs4mk6xn","15","NaN","<div style=""width:500px;"">
                            <p style=""font-size:50px; font-weight:bold;""
                            >positive</p>
                            <div style=""width:240px; margin: auto;"">
                                <img src=""images/Y_D_S_37_darkshift.png"" style= ""width:200px""alt=""img"">
                            </div>
                        </div>","-161","","0","images/Y_D_S_37_darkshift.png","","","","positive","2","Y","D","S","darkshift","",""
"","","","","","html-slider-response","174","390846","0.0-166.0","jxfs4mk6xn","15","NaN","<div style=""width:500px;"">
                            <p style=""font-size:50px; font-weight:bold;""
                            >positive</p>
                            <div style=""width:240px; margin: auto;"">
                                <img src=""images/R_L_S_44_darkshift.png"" style= ""width:200px""alt=""img"">
                            </div>
                        </div>","150","","0","images/R_L_S_44_darkshift.png","","","","positive","1","R","L","S","darkshift","",""
