"success","timeout","failed_images","failed_audio","failed_video","trial_type","trial_index","time_elapsed","internal_node_id","subject_id","condition_num","rt","stimulus","response","question_order","slider_start","image_path","practiceTrial","practiceTrialNum","correct","concept","repetition","hue","lightness","saturation","shift","ishihara_plate","correct_response"
"true","false","[]","[]","[]","preload","0","344","0.0-0.0","k76poegtxa","15","","","","","","","","","","","","","","","","",""
"","","","","","html-button-response","1","37782","0.0-1.0","k76poegtxa","15","37437","Welcome to our experiment!<p>At the bottom of this screen, you will see a button that says ""Begin Experiment"".<br>Please only click that button when you are ready to complete the 25 minute experiment in one sitting.</p><p> Once you click that button, it will not be possible to restart the experiment.","0","","","","","","","","","","","","","",""
"true","","","","","fullscreen","2","43114","0.0-2.0","k76poegtxa","15","4320","","","","","","","","","","","","","","","",""
"","","","","","survey-multi-select","3","102699","0.0-3.0","k76poegtxa","15","59581","","{""Consent"":[""<strong>I consent</strong>""]}","[0]","","","","","","","","","","","","",""
"","","","","","html-button-response","4","104605","0.0-4.0","k76poegtxa","15","1905","Welcome! <p> This experiment involves two parts: demographic information, followed by the experimental task.<p> It will take about 25 minutes to complete both parts.","0","","","","","","","","","","","","","",""
"","","","","","survey-text","5","120493","0.0-5.0","k76poegtxa","15","15882","","{""Age"":""18"",""Gender"":""female"",""Race/ethnicity"":""white"",""Languages"":""english""}","","","","","","","","","","","","","",""
"","","","","","html-slider-response","6","198712","0.0-6.0","k76poegtxa","15","78215","
                            <div style='text-align:left; font-size:20px; line-height:25px; width: 1400px;'>
                                During this experiment you will be asked to rate how much you associate maps with                    different concepts.<br> Below, you can see some examples of the maps you will be asked to rate. Next to the maps
                    is the list of concepts.<br>You will be asked                    to rate how much you associate each map with each concept on a scale from 'not at all' to 'very much' like the
                    one below. <br><br>
                    Now, please look at the list of concepts and maps. For each concept, think about the map you associate 'very
                    much' with the concept.<br>                     When you see that map during the experiment, please rate it near the 'very much' endpoint of the
                    scale.<br>Now, please think about which map you associate 'not at all'                     with each concept. When you see that map during the experiment, please rate it near the 'not at all' endpoint
                    of the scale.<br>
                    Please use the full range of the scale. That is, if a map is somewhat associated with the concept, you would
                    click partway between the middle point and right side of the scale.                    You will be asked to rate each map for a given concept before moving on to the next concept.<br><br>Press the
                    'Continue' button for instructions on how to use the slider.                    <br><br>
                </div>

                <div style=""width: 500px; margin: 0 auto;"">
                    <!-- Centered text paragraphs -->
                    <div style=""text-align: center; width: 500px;"">
                        <p style=""font-size:25px; line-height:18px;"">calm</p>
                        <p style=""font-size:25px; line-height:18px;"">positive</p>
                        <p style=""font-size:25px;line-height:18px;"">negative</p>
                        <p style=""font-size:25px;line-height:18px;"">startling</p>
                    </div>

                    <!-- Grid section -->
                   <div style=""display: flex; justify-content: center; padding-top: 15px;"">
                    <div style=""display: grid; grid-template-columns: repeat(8, 80px); grid-gap: 5px; width: auto;"">
                        <img src=""images/B_D_U_28_lightshift.png"" alt=""map"" style=""width: 100%;""><img src=""images/R_D_S_5_darkshift.png"" alt=""map"" style=""width: 100%;""><img src=""images/R_L_U_2_lightshift.png"" alt=""map"" style=""width: 100%;""><img src=""images/Y_L_S_30_darkshift.png"" alt=""map"" style=""width: 100%;""><img src=""images/G_D_U_15_lightshift.png"" alt=""map"" style=""width: 100%;""><img src=""images/G_L_U_12_darkshift.png"" alt=""map"" style=""width: 100%;""><img src=""images/G_D_S_13_darkshift.png"" alt=""map"" style=""width: 100%;""><img src=""images/B_D_U_28_darkshift.png"" alt=""map"" style=""width: 100%;""><img src=""images/B_L_S_23_darkshift.png"" alt=""map"" style=""width: 100%;""><img src=""images/R_L_U_2_darkshift.png"" alt=""map"" style=""width: 100%;""><img src=""images/B_L_U_26_lightshift.png"" alt=""map"" style=""width: 100%;""><img src=""images/R_L_S_44_lightshift.png"" alt=""map"" style=""width: 100%;""><img src=""images/G_L_U_12_lightshift.png"" alt=""map"" style=""width: 100%;""><img src=""images/G_D_S_13_lightshift.png"" alt=""map"" style=""width: 100%;""><img src=""images/B_L_U_26_darkshift.png"" alt=""map"" style=""width: 100%;""><img src=""images/Y_L_U_33_lightshift.png"" alt=""map"" style=""width: 100%;""><img src=""images/Y_L_U_33_darkshift.png"" alt=""map"" style=""width: 100%;""><img src=""images/G_L_S_10_lightshift.png"" alt=""map"" style=""width: 100%;""><img src=""images/Y_D_U_41_darkshift.png"" alt=""map"" style=""width: 100%;""><img src=""images/Y_L_S_30_lightshift.png"" alt=""map"" style=""width: 100%;""><img src=""images/R_D_U_7_lightshift.png"" alt=""map"" style=""width: 100%;""><img src=""images/B_L_S_23_lightshift.png"" alt=""map"" style=""width: 100%;""><img src=""images/B_D_S_27_lightshift.png"" alt=""map"" style=""width: 100%;""><img src=""images/Y_D_U_41_lightshift.png"" alt=""map"" style=""width: 100%;""><img src=""images/R_L_S_44_darkshift.png"" alt=""map"" style=""width: 100%;""><img src=""images/Y_D_S_37_darkshift.png"" alt=""map"" style=""width: 100%;""><img src=""images/G_D_U_15_darkshift.png"" alt=""map"" style=""width: 100%;""><img src=""images/R_D_S_5_lightshift.png"" alt=""map"" style=""width: 100%;""><img src=""images/G_L_S_10_darkshift.png"" alt=""map"" style=""width: 100%;""><img src=""images/B_D_S_27_darkshift.png"" alt=""map"" style=""width: 100%;""><img src=""images/Y_D_S_37_lightshift.png"" alt=""map"" style=""width: 100%;""><img src=""images/R_D_U_7_darkshift.png"" alt=""map"" style=""width: 100%;"">
                    </div>
                </div>

                    <!-- Clear floats -->
                    <div style=""clear: both;""></div>
                </div>
                            ","120","","0","maps_anchoring.png","true","","","","","","","","","",""
"","","","","","html-button-response","7","210643","0.0-7.0","k76poegtxa","15","11930","<div style=""width:800px;""><p style=""text-align:left"">To move the slider, click and drag your cursor to the location of the scale where you would like to make your rating and then let go. When you let go of the slider, your response will be recorded and the next trial will begin. <br>
                    We are interested in your initial impressions of each map for the given concept, so please go with your first intuition. <br>
                    Before you begin the experiment, there will be four training trials for you to practice using the scale. <br>
                     When you are ready to start the training trials, please click ""Continue"".</p><br></div>","0","","","","","","","","","","","","","",""
"","","","","","html-slider-response","8","213780","0.0-8.0-0.0","k76poegtxa","15","NaN","<div style=""width:500px;"">
                                    <p style=""font-size:25px;"">Please move the slider all the way to the <br> right endpoint of the scale</p>

                                    </div>
                                </div>","200","","0","","true","0","true","","","","","","","",""
"","","","","","html-button-response","9","215654","0.0-8.0-1.0","k76poegtxa","15","1367","<p align='center'><b>Good job!</b> Click on 'Continue' to proceed.</p>","0","","","","","","","","","","","","","",""
"","","","","","html-slider-response","10","217738","0.0-9.0-0.0","k76poegtxa","15","NaN","<div style=""width:500px;"">
                                    <p style=""font-size:25px;"">Please move the slider all the way to the <br> left endpoint of the scale</p>

                                    </div>
                                </div>","-200","","0","","true","1","true","","","","","","","",""
"","","","","","html-button-response","11","219435","0.0-9.0-1.0","k76poegtxa","15","1195","<p align='center'><b>Good job!</b> Click on 'Continue' to proceed.</p>","0","","","","","","","","","","","","","",""
"","","","","","html-slider-response","12","224234","0.0-10.0-0.0","k76poegtxa","15","NaN","<div style=""width:500px;"">
                                    <p style=""font-size:25px;"">Please move the slider halfway between the center and right endpoint of the scale</p>

                                    </div>
                                </div>","105","","0","","true","2","true","","","","","","","",""
"","","","","","html-button-response","13","225937","0.0-10.0-1.0","k76poegtxa","15","1201","<p align='center'><b>Good job!</b> Click on 'Continue' to proceed.</p>","0","","","","","","","","","","","","","",""
"","","","","","html-slider-response","14","228244","0.0-11.0-0.0","k76poegtxa","15","NaN","<div style=""width:500px;"">
                                    <p style=""font-size:25px;"">Please move the slider halfway between the center and left endpoint of the scale</p>

                                    </div>
                                </div>","-112","","0","","true","3","false","","","","","","","",""
"","","","","","html-button-response","15","232324","0.0-11.0-1.0","k76poegtxa","15","3578","<p align='center'><b>Not quite!</b> The slider was not placed near the instructed located. Click on 'Continue' to try again. </p>","0","","","","","","","","","","","","","",""
"","","","","","html-slider-response","16","236357","0.0-11.1-0.1","k76poegtxa","15","NaN","<div style=""width:500px;"">
                                    <p style=""font-size:25px;"">Please move the slider halfway between the center and left endpoint of the scale</p>

                                    </div>
                                </div>","-106","","0","","true","3","true","","","","","","","",""
"","","","","","html-button-response","17","238161","0.0-11.1-1.1","k76poegtxa","15","1287","<p align='center'><b>Good job!</b> Click on 'Continue' to proceed.</p>","0","","","","","","","","","","","","","",""
"","","","","","html-button-response","18","240630","0.0-12.0","k76poegtxa","15","2468","<p>Great job! You've completed the practice trials. Now you will begin the main task.</p>","0","","","","","","","","","","","","","",""
"","","","","","html-button-response","19","245066","0.0-13.0","k76poegtxa","15","4436","<p>In this block of trials, you will be asked to rate how much you associate each map with:</p > <p style = 'font-size:150%; font-weight: bold'>positive</p><br></br>","0","","","","","","","","","","","","","",""
"","","","","","html-slider-response","20","246765","0.0-14.0","k76poegtxa","15","NaN","<div style=""width:500px;"">
                            <p style=""font-size:50px; font-weight:bold;""
                            >positive</p>
                            <div style=""width:240px; margin: auto;"">
                                <img src=""images/Y_D_U_41_lightshift.png"" style= ""width:200px""alt=""img"">
                            </div>
                        </div>","-200","","0","images/Y_D_U_41_lightshift.png","","","","positive","1","Y","D","U","lightshift","",""
"","","","","","html-slider-response","21","249934","0.0-15.0","k76poegtxa","15","NaN","<div style=""width:500px;"">
                            <p style=""font-size:50px; font-weight:bold;""
                            >positive</p>
                            <div style=""width:240px; margin: auto;"">
                                <img src=""images/G_D_U_15_darkshift.png"" style= ""width:200px""alt=""img"">
                            </div>
                        </div>","-154","","0","images/G_D_U_15_darkshift.png","","","","positive","1","G","D","U","darkshift","",""
"","","","","","html-slider-response","22","252800","0.0-16.0","k76poegtxa","15","NaN","<div style=""width:500px;"">
                            <p style=""font-size:50px; font-weight:bold;""
                            >positive</p>
                            <div style=""width:240px; margin: auto;"">
                                <img src=""images/G_D_U_15_lightshift.png"" style= ""width:200px""alt=""img"">
                            </div>
                        </div>","30","","0","images/G_D_U_15_lightshift.png","","","","positive","2","G","D","U","lightshift","",""
"","","","","","html-slider-response","23","255233","0.0-17.0","k76poegtxa","15","NaN","<div style=""width:500px;"">
                            <p style=""font-size:50px; font-weight:bold;""
                            >positive</p>
                            <div style=""width:240px; margin: auto;"">
                                <img src=""images/Y_L_S_30_darkshift.png"" style= ""width:200px""alt=""img"">
                            </div>
                        </div>","200","","0","images/Y_L_S_30_darkshift.png","","","","positive","2","Y","L","S","darkshift","",""
"","","","","","html-slider-response","24","257578","0.0-18.0","k76poegtxa","15","NaN","<div style=""width:500px;"">
                            <p style=""font-size:50px; font-weight:bold;""
                            >positive</p>
                            <div style=""width:240px; margin: auto;"">
                                <img src=""images/B_D_S_27_darkshift.png"" style= ""width:200px""alt=""img"">
                            </div>
                        </div>","-22","","0","images/B_D_S_27_darkshift.png","","","","positive","1","B","D","S","darkshift","",""
"","","","","","html-slider-response","25","261121","0.0-19.0","k76poegtxa","15","NaN","<div style=""width:500px;"">
                            <p style=""font-size:50px; font-weight:bold;""
                            >positive</p>
                            <div style=""width:240px; margin: auto;"">
                                <img src=""images/R_D_S_5_darkshift.png"" style= ""width:200px""alt=""img"">
                            </div>
                        </div>","25","","0","images/R_D_S_5_darkshift.png","","","","positive","2","R","D","S","darkshift","",""
"","","","","","html-slider-response","26","263411","0.0-20.0","k76poegtxa","15","NaN","<div style=""width:500px;"">
                            <p style=""font-size:50px; font-weight:bold;""
                            >positive</p>
                            <div style=""width:240px; margin: auto;"">
                                <img src=""images/B_D_U_28_lightshift.png"" style= ""width:200px""alt=""img"">
                            </div>
                        </div>","79","","0","images/B_D_U_28_lightshift.png","","","","positive","2","B","D","U","lightshift","",""
"","","","","","html-slider-response","27","265641","0.0-21.0","k76poegtxa","15","NaN","<div style=""width:500px;"">
                            <p style=""font-size:50px; font-weight:bold;""
                            >positive</p>
                            <div style=""width:240px; margin: auto;"">
                                <img src=""images/Y_L_S_30_lightshift.png"" style= ""width:200px""alt=""img"">
                            </div>
                        </div>","200","","0","images/Y_L_S_30_lightshift.png","","","","positive","1","Y","L","S","lightshift","",""
"","","","","","html-slider-response","28","268616","0.0-22.0","k76poegtxa","15","NaN","<div style=""width:500px;"">
                            <p style=""font-size:50px; font-weight:bold;""
                            >positive</p>
                            <div style=""width:240px; margin: auto;"">
                                <img src=""images/R_L_U_2_lightshift.png"" style= ""width:200px""alt=""img"">
                            </div>
                        </div>","86","","0","images/R_L_U_2_lightshift.png","","","","positive","1","R","L","U","lightshift","",""
"","","","","","html-slider-response","29","270622","0.0-23.0","k76poegtxa","15","NaN","<div style=""width:500px;"">
                            <p style=""font-size:50px; font-weight:bold;""
                            >positive</p>
                            <div style=""width:240px; margin: auto;"">
                                <img src=""images/Y_D_S_37_darkshift.png"" style= ""width:200px""alt=""img"">
                            </div>
                        </div>","-200","","0","images/Y_D_S_37_darkshift.png","","","","positive","1","Y","D","S","darkshift","",""
"","","","","","html-slider-response","30","275442","0.0-24.0","k76poegtxa","15","NaN","<div style=""width:500px;"">
                            <p style=""font-size:50px; font-weight:bold;""
                            >positive</p>
                            <div style=""width:240px; margin: auto;"">
                                <img src=""images/R_D_S_5_darkshift.png"" style= ""width:200px""alt=""img"">
                            </div>
                        </div>","10","","0","images/R_D_S_5_darkshift.png","","","","positive","1","R","D","S","darkshift","",""
"","","","","","html-slider-response","31","279447","0.0-25.0","k76poegtxa","15","NaN","<div style=""width:500px;"">
                            <p style=""font-size:50px; font-weight:bold;""
                            >positive</p>
                            <div style=""width:240px; margin: auto;"">
                                <img src=""images/R_L_S_44_lightshift.png"" style= ""width:200px""alt=""img"">
                            </div>
                        </div>","198","","0","images/R_L_S_44_lightshift.png","","","","positive","1","R","L","S","lightshift","",""
"","","","","","html-slider-response","32","280797","0.0-26.0","k76poegtxa","15","NaN","<div style=""width:500px;"">
                            <p style=""font-size:50px; font-weight:bold;""
                            >positive</p>
                            <div style=""width:240px; margin: auto;"">
                                <img src=""images/R_D_S_5_lightshift.png"" style= ""width:200px""alt=""img"">
                            </div>
                        </div>","198","","0","images/R_D_S_5_lightshift.png","","","","positive","1","R","D","S","lightshift","",""
"","","","","","html-slider-response","33","282179","0.0-27.0","k76poegtxa","15","NaN","<div style=""width:500px;"">
                            <p style=""font-size:50px; font-weight:bold;""
                            >positive</p>
                            <div style=""width:240px; margin: auto;"">
                                <img src=""images/Y_L_U_33_darkshift.png"" style= ""width:200px""alt=""img"">
                            </div>
                        </div>","198","","0","images/Y_L_U_33_darkshift.png","","","","positive","1","Y","L","U","darkshift","",""
"","","","","","html-slider-response","34","284496","0.0-28.0","k76poegtxa","15","NaN","<div style=""width:500px;"">
                            <p style=""font-size:50px; font-weight:bold;""
                            >positive</p>
                            <div style=""width:240px; margin: auto;"">
                                <img src=""images/G_D_U_15_lightshift.png"" style= ""width:200px""alt=""img"">
                            </div>
                        </div>","82","","0","images/G_D_U_15_lightshift.png","","","","positive","1","G","D","U","lightshift","",""
"","","","","","html-slider-response","35","286242","0.0-29.0","k76poegtxa","15","NaN","<div style=""width:500px;"">
                            <p style=""font-size:50px; font-weight:bold;""
                            >positive</p>
                            <div style=""width:240px; margin: auto;"">
                                <img src=""images/G_D_S_13_darkshift.png"" style= ""width:200px""alt=""img"">
                            </div>
                        </div>","-73","","0","images/G_D_S_13_darkshift.png","","","","positive","1","G","D","S","darkshift","",""
"","","","","","html-slider-response","36","288969","0.0-30.0","k76poegtxa","15","NaN","<div style=""width:500px;"">
                            <p style=""font-size:50px; font-weight:bold;""
                            >positive</p>
                            <div style=""width:240px; margin: auto;"">
                                <img src=""images/Y_L_U_33_darkshift.png"" style= ""width:200px""alt=""img"">
                            </div>
                        </div>","198","","0","images/Y_L_U_33_darkshift.png","","","","positive","2","Y","L","U","darkshift","",""
"","","","","","html-slider-response","37","291386","0.0-31.0","k76poegtxa","15","NaN","<div style=""width:500px;"">
                            <p style=""font-size:50px; font-weight:bold;""
                            >positive</p>
                            <div style=""width:240px; margin: auto;"">
                                <img src=""images/B_L_S_23_darkshift.png"" style= ""width:200px""alt=""img"">
                            </div>
                        </div>","70","","0","images/B_L_S_23_darkshift.png","","","","positive","1","B","L","S","darkshift","",""
"","","","","","html-slider-response","38","293451","0.0-32.0","k76poegtxa","15","NaN","<div style=""width:500px;"">
                            <p style=""font-size:50px; font-weight:bold;""
                            >positive</p>
                            <div style=""width:240px; margin: auto;"">
                                <img src=""images/Y_L_S_30_darkshift.png"" style= ""width:200px""alt=""img"">
                            </div>
                        </div>","124","","0","images/Y_L_S_30_darkshift.png","","","","positive","1","Y","L","S","darkshift","",""
"","","","","","html-slider-response","39","295755","0.0-33.0","k76poegtxa","15","NaN","<div style=""width:500px;"">
                            <p style=""font-size:50px; font-weight:bold;""
                            >positive</p>
                            <div style=""width:240px; margin: auto;"">
                                <img src=""images/B_L_U_26_darkshift.png"" style= ""width:200px""alt=""img"">
                            </div>
                        </div>","38","","0","images/B_L_U_26_darkshift.png","","","","positive","1","B","L","U","darkshift","",""
"","","","","","html-slider-response","40","297953","0.0-34.0","k76poegtxa","15","NaN","<div style=""width:500px;"">
                            <p style=""font-size:50px; font-weight:bold;""
                            >positive</p>
                            <div style=""width:240px; margin: auto;"">
                                <img src=""images/Y_D_U_41_lightshift.png"" style= ""width:200px""alt=""img"">
                            </div>
                        </div>","-39","","0","images/Y_D_U_41_lightshift.png","","","","positive","2","Y","D","U","lightshift","",""
"","","","","","html-slider-response","41","299994","0.0-35.0","k76poegtxa","15","NaN","<div style=""width:500px;"">
                            <p style=""font-size:50px; font-weight:bold;""
                            >positive</p>
                            <div style=""width:240px; margin: auto;"">
                                <img src=""images/B_D_S_27_lightshift.png"" style= ""width:200px""alt=""img"">
                            </div>
                        </div>","26","","0","images/B_D_S_27_lightshift.png","","","","positive","1","B","D","S","lightshift","",""
"","","","","","html-slider-response","42","302724","0.0-36.0","k76poegtxa","15","NaN","<div style=""width:500px;"">
                            <p style=""font-size:50px; font-weight:bold;""
                            >positive</p>
                            <div style=""width:240px; margin: auto;"">
                                <img src=""images/G_L_S_10_lightshift.png"" style= ""width:200px""alt=""img"">
                            </div>
                        </div>","197","","0","images/G_L_S_10_lightshift.png","","","","positive","2","G","L","S","lightshift","",""
"","","","","","html-slider-response","43","304946","0.0-37.0","k76poegtxa","15","NaN","<div style=""width:500px;"">
                            <p style=""font-size:50px; font-weight:bold;""
                            >positive</p>
                            <div style=""width:240px; margin: auto;"">
                                <img src=""images/B_L_U_26_lightshift.png"" style= ""width:200px""alt=""img"">
                            </div>
                        </div>","101","","0","images/B_L_U_26_lightshift.png","","","","positive","2","B","L","U","lightshift","",""
"","","","","","html-slider-response","44","307389","0.0-38.0","k76poegtxa","15","NaN","<div style=""width:500px;"">
                            <p style=""font-size:50px; font-weight:bold;""
                            >positive</p>
                            <div style=""width:240px; margin: auto;"">
                                <img src=""images/Y_D_U_41_darkshift.png"" style= ""width:200px""alt=""img"">
                            </div>
                        </div>","-197","","0","images/Y_D_U_41_darkshift.png","","","","positive","2","Y","D","U","darkshift","",""
"","","","","","html-slider-response","45","309641","0.0-39.0","k76poegtxa","15","NaN","<div style=""width:500px;"">
                            <p style=""font-size:50px; font-weight:bold;""
                            >positive</p>
                            <div style=""width:240px; margin: auto;"">
                                <img src=""images/G_D_S_13_lightshift.png"" style= ""width:200px""alt=""img"">
                            </div>
                        </div>","14","","0","images/G_D_S_13_lightshift.png","","","","positive","1","G","D","S","lightshift","",""
"","","","","","html-slider-response","46","312995","0.0-40.0","k76poegtxa","15","NaN","<div style=""width:500px;"">
                            <p style=""font-size:50px; font-weight:bold;""
                            >positive</p>
                            <div style=""width:240px; margin: auto;"">
                                <img src=""images/R_D_U_7_lightshift.png"" style= ""width:200px""alt=""img"">
                            </div>
                        </div>","197","","0","images/R_D_U_7_lightshift.png","","","","positive","2","R","D","U","lightshift","",""
"","","","","","html-slider-response","47","315231","0.0-41.0","k76poegtxa","15","NaN","<div style=""width:500px;"">
                            <p style=""font-size:50px; font-weight:bold;""
                            >positive</p>
                            <div style=""width:240px; margin: auto;"">
                                <img src=""images/G_D_U_15_darkshift.png"" style= ""width:200px""alt=""img"">
                            </div>
                        </div>","-138","","0","images/G_D_U_15_darkshift.png","","","","positive","2","G","D","U","darkshift","",""
"","","","","","html-slider-response","48","317899","0.0-42.0","k76poegtxa","15","NaN","<div style=""width:500px;"">
                            <p style=""font-size:50px; font-weight:bold;""
                            >positive</p>
                            <div style=""width:240px; margin: auto;"">
                                <img src=""images/R_D_S_5_lightshift.png"" style= ""width:200px""alt=""img"">
                            </div>
                        </div>","196","","0","images/R_D_S_5_lightshift.png","","","","positive","2","R","D","S","lightshift","",""
"","","","","","html-slider-response","49","319965","0.0-43.0","k76poegtxa","15","NaN","<div style=""width:500px;"">
                            <p style=""font-size:50px; font-weight:bold;""
                            >positive</p>
                            <div style=""width:240px; margin: auto;"">
                                <img src=""images/B_D_S_27_lightshift.png"" style= ""width:200px""alt=""img"">
                            </div>
                        </div>","88","","0","images/B_D_S_27_lightshift.png","","","","positive","2","B","D","S","lightshift","",""
"","","","","","html-slider-response","50","321464","0.0-44.0","k76poegtxa","15","NaN","<div style=""width:500px;"">
                            <p style=""font-size:50px; font-weight:bold;""
                            >positive</p>
                            <div style=""width:240px; margin: auto;"">
                                <img src=""images/B_L_S_23_darkshift.png"" style= ""width:200px""alt=""img"">
                            </div>
                        </div>","88","","0","images/B_L_S_23_darkshift.png","","","","positive","2","B","L","S","darkshift","",""
"","","","","","html-slider-response","51","323718","0.0-45.0","k76poegtxa","15","NaN","<div style=""width:500px;"">
                            <p style=""font-size:50px; font-weight:bold;""
                            >positive</p>
                            <div style=""width:240px; margin: auto;"">
                                <img src=""images/B_D_U_28_darkshift.png"" style= ""width:200px""alt=""img"">
                            </div>
                        </div>","-154","","0","images/B_D_U_28_darkshift.png","","","","positive","2","B","D","U","darkshift","",""
"","","","","","html-slider-response","52","325582","0.0-46.0","k76poegtxa","15","NaN","<div style=""width:500px;"">
                            <p style=""font-size:50px; font-weight:bold;""
                            >positive</p>
                            <div style=""width:240px; margin: auto;"">
                                <img src=""images/G_D_S_13_darkshift.png"" style= ""width:200px""alt=""img"">
                            </div>
                        </div>","-61","","0","images/G_D_S_13_darkshift.png","","","","positive","2","G","D","S","darkshift","",""
"","","","","","html-slider-response","53","327687","0.0-47.0","k76poegtxa","15","NaN","<div style=""width:500px;"">
                            <p style=""font-size:50px; font-weight:bold;""
                            >positive</p>
                            <div style=""width:240px; margin: auto;"">
                                <img src=""images/G_L_S_10_darkshift.png"" style= ""width:200px""alt=""img"">
                            </div>
                        </div>","-40","","0","images/G_L_S_10_darkshift.png","","","","positive","1","G","L","S","darkshift","",""
"","","","","","html-slider-response","54","330870","0.0-48.0","k76poegtxa","15","NaN","<div style=""width:500px;"">
                            <p style=""font-size:50px; font-weight:bold;""
                            >positive</p>
                            <div style=""width:240px; margin: auto;"">
                                <img src=""images/R_L_U_2_lightshift.png"" style= ""width:200px""alt=""img"">
                            </div>
                        </div>","197","","0","images/R_L_U_2_lightshift.png","","","","positive","2","R","L","U","lightshift","",""
"","","","","","html-slider-response","55","333611","0.0-49.0","k76poegtxa","15","NaN","<div style=""width:500px;"">
                            <p style=""font-size:50px; font-weight:bold;""
                            >positive</p>
                            <div style=""width:240px; margin: auto;"">
                                <img src=""images/Y_L_U_33_lightshift.png"" style= ""width:200px""alt=""img"">
                            </div>
                        </div>","186","","0","images/Y_L_U_33_lightshift.png","","","","positive","1","Y","L","U","lightshift","",""
"","","","","","html-slider-response","56","336171","0.0-50.0","k76poegtxa","15","NaN","<div style=""width:500px;"">
                            <p style=""font-size:50px; font-weight:bold;""
                            >positive</p>
                            <div style=""width:240px; margin: auto;"">
                                <img src=""images/B_L_S_23_lightshift.png"" style= ""width:200px""alt=""img"">
                            </div>
                        </div>","-106","","0","images/B_L_S_23_lightshift.png","","","","positive","1","B","L","S","lightshift","",""
"","","","","","html-slider-response","57","338055","0.0-51.0","k76poegtxa","15","NaN","<div style=""width:500px;"">
                            <p style=""font-size:50px; font-weight:bold;""
                            >positive</p>
                            <div style=""width:240px; margin: auto;"">
                                <img src=""images/B_D_U_28_lightshift.png"" style= ""width:200px""alt=""img"">
                            </div>
                        </div>","-66","","0","images/B_D_U_28_lightshift.png","","","","positive","1","B","D","U","lightshift","",""
"","","","","","html-slider-response","58","340225","0.0-52.0","k76poegtxa","15","NaN","<div style=""width:500px;"">
                            <p style=""font-size:50px; font-weight:bold;""
                            >positive</p>
                            <div style=""width:240px; margin: auto;"">
                                <img src=""images/R_D_U_7_darkshift.png"" style= ""width:200px""alt=""img"">
                            </div>
                        </div>","-26","","0","images/R_D_U_7_darkshift.png","","","","positive","1","R","D","U","darkshift","",""
"","","","","","html-slider-response","59","342363","0.0-53.0","k76poegtxa","15","NaN","<div style=""width:500px;"">
                            <p style=""font-size:50px; font-weight:bold;""
                            >positive</p>
                            <div style=""width:240px; margin: auto;"">
                                <img src=""images/Y_L_U_33_lightshift.png"" style= ""width:200px""alt=""img"">
                            </div>
                        </div>","170","","0","images/Y_L_U_33_lightshift.png","","","","positive","2","Y","L","U","lightshift","",""
"","","","","","html-slider-response","60","344142","0.0-54.0","k76poegtxa","15","NaN","<div style=""width:500px;"">
                            <p style=""font-size:50px; font-weight:bold;""
                            >positive</p>
                            <div style=""width:240px; margin: auto;"">
                                <img src=""images/Y_D_S_37_lightshift.png"" style= ""width:200px""alt=""img"">
                            </div>
                        </div>","138","","0","images/Y_D_S_37_lightshift.png","","","","positive","1","Y","D","S","lightshift","",""
"","","","","","html-slider-response","61","346455","0.0-55.0","k76poegtxa","15","NaN","<div style=""width:500px;"">
                            <p style=""font-size:50px; font-weight:bold;""
                            >positive</p>
                            <div style=""width:240px; margin: auto;"">
                                <img src=""images/R_L_S_44_lightshift.png"" style= ""width:200px""alt=""img"">
                            </div>
                        </div>","198","","0","images/R_L_S_44_lightshift.png","","","","positive","2","R","L","S","lightshift","",""
"","","","","","html-slider-response","62","348783","0.0-56.0","k76poegtxa","15","NaN","<div style=""width:500px;"">
                            <p style=""font-size:50px; font-weight:bold;""
                            >positive</p>
                            <div style=""width:240px; margin: auto;"">
                                <img src=""images/R_L_S_44_darkshift.png"" style= ""width:200px""alt=""img"">
                            </div>
                        </div>","200","","0","images/R_L_S_44_darkshift.png","","","","positive","1","R","L","S","darkshift","",""
"","","","","","html-slider-response","63","352550","0.0-57.0","k76poegtxa","15","NaN","<div style=""width:500px;"">
                            <p style=""font-size:50px; font-weight:bold;""
                            >positive</p>
                            <div style=""width:240px; margin: auto;"">
                                <img src=""images/G_D_S_13_lightshift.png"" style= ""width:200px""alt=""img"">
                            </div>
                        </div>","198","","0","images/G_D_S_13_lightshift.png","","","","positive","2","G","D","S","lightshift","",""
"","","","","","html-slider-response","64","354898","0.0-58.0","k76poegtxa","15","NaN","<div style=""width:500px;"">
                            <p style=""font-size:50px; font-weight:bold;""
                            >positive</p>
                            <div style=""width:240px; margin: auto;"">
                                <img src=""images/Y_L_S_30_lightshift.png"" style= ""width:200px""alt=""img"">
                            </div>
                        </div>","198","","0","images/Y_L_S_30_lightshift.png","","","","positive","2","Y","L","S","lightshift","",""
"","","","","","html-slider-response","65","357296","0.0-59.0","k76poegtxa","15","NaN","<div style=""width:500px;"">
                            <p style=""font-size:50px; font-weight:bold;""
                            >positive</p>
                            <div style=""width:240px; margin: auto;"">
                                <img src=""images/R_L_U_2_darkshift.png"" style= ""width:200px""alt=""img"">
                            </div>
                        </div>","24","","0","images/R_L_U_2_darkshift.png","","","","positive","2","R","L","U","darkshift","",""
"","","","","","html-slider-response","66","360332","0.0-60.0","k76poegtxa","15","NaN","<div style=""width:500px;"">
                            <p style=""font-size:50px; font-weight:bold;""
                            >positive</p>
                            <div style=""width:240px; margin: auto;"">
                                <img src=""images/R_L_S_44_darkshift.png"" style= ""width:200px""alt=""img"">
                            </div>
                        </div>","195","","0","images/R_L_S_44_darkshift.png","","","","positive","2","R","L","S","darkshift","",""
"","","","","","html-slider-response","67","362624","0.0-61.0","k76poegtxa","15","NaN","<div style=""width:500px;"">
                            <p style=""font-size:50px; font-weight:bold;""
                            >positive</p>
                            <div style=""width:240px; margin: auto;"">
                                <img src=""images/G_L_U_12_darkshift.png"" style= ""width:200px""alt=""img"">
                            </div>
                        </div>","96","","0","images/G_L_U_12_darkshift.png","","","","positive","1","G","L","U","darkshift","",""
"","","","","","html-slider-response","68","364920","0.0-62.0","k76poegtxa","15","NaN","<div style=""width:500px;"">
                            <p style=""font-size:50px; font-weight:bold;""
                            >positive</p>
                            <div style=""width:240px; margin: auto;"">
                                <img src=""images/B_L_U_26_lightshift.png"" style= ""width:200px""alt=""img"">
                            </div>
                        </div>","186","","0","images/B_L_U_26_lightshift.png","","","","positive","1","B","L","U","lightshift","",""
"","","","","","html-slider-response","69","367085","0.0-63.0","k76poegtxa","15","NaN","<div style=""width:500px;"">
                            <p style=""font-size:50px; font-weight:bold;""
                            >positive</p>
                            <div style=""width:240px; margin: auto;"">
                                <img src=""images/Y_D_U_41_darkshift.png"" style= ""width:200px""alt=""img"">
                            </div>
                        </div>","-144","","0","images/Y_D_U_41_darkshift.png","","","","positive","1","Y","D","U","darkshift","",""
"","","","","","html-slider-response","70","369189","0.0-64.0","k76poegtxa","15","NaN","<div style=""width:500px;"">
                            <p style=""font-size:50px; font-weight:bold;""
                            >positive</p>
                            <div style=""width:240px; margin: auto;"">
                                <img src=""images/G_L_U_12_lightshift.png"" style= ""width:200px""alt=""img"">
                            </div>
                        </div>","86","","0","images/G_L_U_12_lightshift.png","","","","positive","2","G","L","U","lightshift","",""
"","","","","","html-slider-response","71","371070","0.0-65.0","k76poegtxa","15","NaN","<div style=""width:500px;"">
                            <p style=""font-size:50px; font-weight:bold;""
                            >positive</p>
                            <div style=""width:240px; margin: auto;"">
                                <img src=""images/G_L_S_10_lightshift.png"" style= ""width:200px""alt=""img"">
                            </div>
                        </div>","32","","0","images/G_L_S_10_lightshift.png","","","","positive","1","G","L","S","lightshift","",""
"","","","","","html-slider-response","72","373088","0.0-66.0","k76poegtxa","15","NaN","<div style=""width:500px;"">
                            <p style=""font-size:50px; font-weight:bold;""
                            >positive</p>
                            <div style=""width:240px; margin: auto;"">
                                <img src=""images/G_L_U_12_darkshift.png"" style= ""width:200px""alt=""img"">
                            </div>
                        </div>","53","","0","images/G_L_U_12_darkshift.png","","","","positive","2","G","L","U","darkshift","",""
"","","","","","html-slider-response","73","375294","0.0-67.0","k76poegtxa","15","NaN","<div style=""width:500px;"">
                            <p style=""font-size:50px; font-weight:bold;""
                            >positive</p>
                            <div style=""width:240px; margin: auto;"">
                                <img src=""images/R_D_U_7_lightshift.png"" style= ""width:200px""alt=""img"">
                            </div>
                        </div>","194","","0","images/R_D_U_7_lightshift.png","","","","positive","1","R","D","U","lightshift","",""
"","","","","","html-slider-response","74","377242","0.0-68.0","k76poegtxa","15","NaN","<div style=""width:500px;"">
                            <p style=""font-size:50px; font-weight:bold;""
                            >positive</p>
                            <div style=""width:240px; margin: auto;"">
                                <img src=""images/Y_D_S_37_lightshift.png"" style= ""width:200px""alt=""img"">
                            </div>
                        </div>","194","","0","images/Y_D_S_37_lightshift.png","","","","positive","2","Y","D","S","lightshift","",""
"","","","","","html-slider-response","75","378742","0.0-69.0","k76poegtxa","15","NaN","<div style=""width:500px;"">
                            <p style=""font-size:50px; font-weight:bold;""
                            >positive</p>
                            <div style=""width:240px; margin: auto;"">
                                <img src=""images/G_L_U_12_lightshift.png"" style= ""width:200px""alt=""img"">
                            </div>
                        </div>","194","","0","images/G_L_U_12_lightshift.png","","","","positive","1","G","L","U","lightshift","",""
"","","","","","html-slider-response","76","381210","0.0-70.0","k76poegtxa","15","NaN","<div style=""width:500px;"">
                            <p style=""font-size:50px; font-weight:bold;""
                            >positive</p>
                            <div style=""width:240px; margin: auto;"">
                                <img src=""images/R_D_U_7_darkshift.png"" style= ""width:200px""alt=""img"">
                            </div>
                        </div>","-126","","0","images/R_D_U_7_darkshift.png","","","","positive","2","R","D","U","darkshift","",""
"","","","","","html-slider-response","77","383562","0.0-71.0","k76poegtxa","15","NaN","<div style=""width:500px;"">
                            <p style=""font-size:50px; font-weight:bold;""
                            >positive</p>
                            <div style=""width:240px; margin: auto;"">
                                <img src=""images/Y_D_S_37_darkshift.png"" style= ""width:200px""alt=""img"">
                            </div>
                        </div>","-192","","0","images/Y_D_S_37_darkshift.png","","","","positive","2","Y","D","S","darkshift","",""
"","","","","","html-slider-response","78","386363","0.0-72.0","k76poegtxa","15","NaN","<div style=""width:500px;"">
                            <p style=""font-size:50px; font-weight:bold;""
                            >positive</p>
                            <div style=""width:240px; margin: auto;"">
                                <img src=""images/R_L_U_2_darkshift.png"" style= ""width:200px""alt=""img"">
                            </div>
                        </div>","144","","0","images/R_L_U_2_darkshift.png","","","","positive","1","R","L","U","darkshift","",""
"","","","","","html-slider-response","79","389095","0.0-73.0","k76poegtxa","15","NaN","<div style=""width:500px;"">
                            <p style=""font-size:50px; font-weight:bold;""
                            >positive</p>
                            <div style=""width:240px; margin: auto;"">
                                <img src=""images/B_D_U_28_darkshift.png"" style= ""width:200px""alt=""img"">
                            </div>
                        </div>","-39","","0","images/B_D_U_28_darkshift.png","","","","positive","1","B","D","U","darkshift","",""
"","","","","","html-slider-response","80","391935","0.0-74.0","k76poegtxa","15","NaN","<div style=""width:500px;"">
                            <p style=""font-size:50px; font-weight:bold;""
                            >positive</p>
                            <div style=""width:240px; margin: auto;"">
                                <img src=""images/B_L_S_23_lightshift.png"" style= ""width:200px""alt=""img"">
                            </div>
                        </div>","195","","0","images/B_L_S_23_lightshift.png","","","","positive","2","B","L","S","lightshift","",""
"","","","","","html-slider-response","81","394031","0.0-75.0","k76poegtxa","15","NaN","<div style=""width:500px;"">
                            <p style=""font-size:50px; font-weight:bold;""
                            >positive</p>
                            <div style=""width:240px; margin: auto;"">
                                <img src=""images/B_L_U_26_darkshift.png"" style= ""width:200px""alt=""img"">
                            </div>
                        </div>","195","","0","images/B_L_U_26_darkshift.png","","","","positive","2","B","L","U","darkshift","",""
"","","","","","html-slider-response","82","397155","0.0-76.0","k76poegtxa","15","NaN","<div style=""width:500px;"">
                            <p style=""font-size:50px; font-weight:bold;""
                            >positive</p>
                            <div style=""width:240px; margin: auto;"">
                                <img src=""images/B_D_S_27_darkshift.png"" style= ""width:200px""alt=""img"">
                            </div>
                        </div>","38","","0","images/B_D_S_27_darkshift.png","","","","positive","2","B","D","S","darkshift","",""
"","","","","","html-slider-response","83","398737","0.0-77.0","k76poegtxa","15","NaN","<div style=""width:500px;"">
                            <p style=""font-size:50px; font-weight:bold;""
                            >positive</p>
                            <div style=""width:240px; margin: auto;"">
                                <img src=""images/G_L_S_10_darkshift.png"" style= ""width:200px""alt=""img"">
                            </div>
                        </div>","38","","0","images/G_L_S_10_darkshift.png","","","","positive","2","G","L","S","darkshift","",""
"","","","","","html-button-response","84","402072","0.0-78.0","k76poegtxa","15","2833","<p>Great Job! You've finished block 1.<br></br> You have 3 block(s) left to go.<br></br></p>","0","","","","","","","","","","","","","",""
"","","","","","html-button-response","85","410284","0.0-79.0","k76poegtxa","15","8211","<p>In this block of trials, you will be asked to rate how much you associate each map with:</p > <p style = 'font-size:150%; font-weight: bold'>calm</p><br></br>","0","","","","","","","","","","","","","",""
"","","","","","html-slider-response","86","412045","0.0-80.0","k76poegtxa","15","NaN","<div style=""width:500px;"">
                            <p style=""font-size:50px; font-weight:bold;""
                            >calm</p>
                            <div style=""width:240px; margin: auto;"">
                                <img src=""images/B_D_S_27_lightshift.png"" style= ""width:200px""alt=""img"">
                            </div>
                        </div>","155","","0","images/B_D_S_27_lightshift.png","","","","calm","2","B","D","S","lightshift","",""
"","","","","","html-slider-response","87","414245","0.0-81.0","k76poegtxa","15","NaN","<div style=""width:500px;"">
                            <p style=""font-size:50px; font-weight:bold;""
                            >calm</p>
                            <div style=""width:240px; margin: auto;"">
                                <img src=""images/G_L_U_12_lightshift.png"" style= ""width:200px""alt=""img"">
                            </div>
                        </div>","-94","","0","images/G_L_U_12_lightshift.png","","","","calm","2","G","L","U","lightshift","",""
"","","","","","html-slider-response","88","416162","0.0-82.0","k76poegtxa","15","NaN","<div style=""width:500px;"">
                            <p style=""font-size:50px; font-weight:bold;""
                            >calm</p>
                            <div style=""width:240px; margin: auto;"">
                                <img src=""images/B_L_U_26_darkshift.png"" style= ""width:200px""alt=""img"">
                            </div>
                        </div>","126","","0","images/B_L_U_26_darkshift.png","","","","calm","1","B","L","U","darkshift","",""
"","","","","","html-slider-response","89","418219","0.0-83.0","k76poegtxa","15","NaN","<div style=""width:500px;"">
                            <p style=""font-size:50px; font-weight:bold;""
                            >calm</p>
                            <div style=""width:240px; margin: auto;"">
                                <img src=""images/Y_L_S_30_lightshift.png"" style= ""width:200px""alt=""img"">
                            </div>
                        </div>","-150","","0","images/Y_L_S_30_lightshift.png","","","","calm","1","Y","L","S","lightshift","",""
"","","","","","html-slider-response","90","420433","0.0-84.0","k76poegtxa","15","NaN","<div style=""width:500px;"">
                            <p style=""font-size:50px; font-weight:bold;""
                            >calm</p>
                            <div style=""width:240px; margin: auto;"">
                                <img src=""images/Y_L_U_33_darkshift.png"" style= ""width:200px""alt=""img"">
                            </div>
                        </div>","-196","","0","images/Y_L_U_33_darkshift.png","","","","calm","1","Y","L","U","darkshift","",""
"","","","","","html-slider-response","91","422966","0.0-85.0","k76poegtxa","15","NaN","<div style=""width:500px;"">
                            <p style=""font-size:50px; font-weight:bold;""
                            >calm</p>
                            <div style=""width:240px; margin: auto;"">
                                <img src=""images/R_L_U_2_lightshift.png"" style= ""width:200px""alt=""img"">
                            </div>
                        </div>","195","","0","images/R_L_U_2_lightshift.png","","","","calm","1","R","L","U","lightshift","",""
"","","","","","html-slider-response","92","424365","0.0-86.0","k76poegtxa","15","NaN","<div style=""width:500px;"">
                            <p style=""font-size:50px; font-weight:bold;""
                            >calm</p>
                            <div style=""width:240px; margin: auto;"">
                                <img src=""images/B_L_S_23_darkshift.png"" style= ""width:200px""alt=""img"">
                            </div>
                        </div>","195","","0","images/B_L_S_23_darkshift.png","","","","calm","2","B","L","S","darkshift","",""
"","","","","","html-slider-response","93","426531","0.0-87.0","k76poegtxa","15","NaN","<div style=""width:500px;"">
                            <p style=""font-size:50px; font-weight:bold;""
                            >calm</p>
                            <div style=""width:240px; margin: auto;"">
                                <img src=""images/B_D_U_28_darkshift.png"" style= ""width:200px""alt=""img"">
                            </div>
                        </div>","198","","0","images/B_D_U_28_darkshift.png","","","","calm","2","B","D","U","darkshift","",""
"","","","","","html-slider-response","94","429584","0.0-88.0","k76poegtxa","15","NaN","<div style=""width:500px;"">
                            <p style=""font-size:50px; font-weight:bold;""
                            >calm</p>
                            <div style=""width:240px; margin: auto;"">
                                <img src=""images/R_L_U_2_darkshift.png"" style= ""width:200px""alt=""img"">
                            </div>
                        </div>","40","","0","images/R_L_U_2_darkshift.png","","","","calm","1","R","L","U","darkshift","",""
"","","","","","html-slider-response","95","431636","0.0-89.0","k76poegtxa","15","NaN","<div style=""width:500px;"">
                            <p style=""font-size:50px; font-weight:bold;""
                            >calm</p>
                            <div style=""width:240px; margin: auto;"">
                                <img src=""images/Y_D_S_37_lightshift.png"" style= ""width:200px""alt=""img"">
                            </div>
                        </div>","-58","","0","images/Y_D_S_37_lightshift.png","","","","calm","1","Y","D","S","lightshift","",""
"","","","","","html-slider-response","96","435219","0.0-90.0","k76poegtxa","15","NaN","<div style=""width:500px;"">
                            <p style=""font-size:50px; font-weight:bold;""
                            >calm</p>
                            <div style=""width:240px; margin: auto;"">
                                <img src=""images/G_L_S_10_lightshift.png"" style= ""width:200px""alt=""img"">
                            </div>
                        </div>","-194","","0","images/G_L_S_10_lightshift.png","","","","calm","1","G","L","S","lightshift","",""
"","","","","","html-slider-response","97","438219","0.0-91.0","k76poegtxa","15","NaN","<div style=""width:500px;"">
                            <p style=""font-size:50px; font-weight:bold;""
                            >calm</p>
                            <div style=""width:240px; margin: auto;"">
                                <img src=""images/Y_D_S_37_lightshift.png"" style= ""width:200px""alt=""img"">
                            </div>
                        </div>","-13","","0","images/Y_D_S_37_lightshift.png","","","","calm","2","Y","D","S","lightshift","",""
"","","","","","html-slider-response","98","441221","0.0-92.0","k76poegtxa","15","NaN","<div style=""width:500px;"">
                            <p style=""font-size:50px; font-weight:bold;""
                            >calm</p>
                            <div style=""width:240px; margin: auto;"">
                                <img src=""images/R_D_S_5_darkshift.png"" style= ""width:200px""alt=""img"">
                            </div>
                        </div>","154","","0","images/R_D_S_5_darkshift.png","","","","calm","1","R","D","S","darkshift","",""
"","","","","","html-slider-response","99","443973","0.0-93.0","k76poegtxa","15","NaN","<div style=""width:500px;"">
                            <p style=""font-size:50px; font-weight:bold;""
                            >calm</p>
                            <div style=""width:240px; margin: auto;"">
                                <img src=""images/R_D_U_7_darkshift.png"" style= ""width:200px""alt=""img"">
                            </div>
                        </div>","178","","0","images/R_D_U_7_darkshift.png","","","","calm","2","R","D","U","darkshift","",""
"","","","","","html-slider-response","100","446844","0.0-94.0","k76poegtxa","15","NaN","<div style=""width:500px;"">
                            <p style=""font-size:50px; font-weight:bold;""
                            >calm</p>
                            <div style=""width:240px; margin: auto;"">
                                <img src=""images/G_D_U_15_darkshift.png"" style= ""width:200px""alt=""img"">
                            </div>
                        </div>","200","","0","images/G_D_U_15_darkshift.png","","","","calm","2","G","D","U","darkshift","",""
"","","","","","html-slider-response","101","448662","0.0-95.0","k76poegtxa","15","NaN","<div style=""width:500px;"">
                            <p style=""font-size:50px; font-weight:bold;""
                            >calm</p>
                            <div style=""width:240px; margin: auto;"">
                                <img src=""images/B_D_S_27_darkshift.png"" style= ""width:200px""alt=""img"">
                            </div>
                        </div>","200","","0","images/B_D_S_27_darkshift.png","","","","calm","2","B","D","S","darkshift","",""
"","","","","","html-slider-response","102","451041","0.0-96.0","k76poegtxa","15","NaN","<div style=""width:500px;"">
                            <p style=""font-size:50px; font-weight:bold;""
                            >calm</p>
                            <div style=""width:240px; margin: auto;"">
                                <img src=""images/Y_D_S_37_darkshift.png"" style= ""width:200px""alt=""img"">
                            </div>
                        </div>","-139","","0","images/Y_D_S_37_darkshift.png","","","","calm","1","Y","D","S","darkshift","",""
"","","","","","html-slider-response","103","453965","0.0-97.0","k76poegtxa","15","NaN","<div style=""width:500px;"">
                            <p style=""font-size:50px; font-weight:bold;""
                            >calm</p>
                            <div style=""width:240px; margin: auto;"">
                                <img src=""images/R_D_U_7_lightshift.png"" style= ""width:200px""alt=""img"">
                            </div>
                        </div>","-170","","0","images/R_D_U_7_lightshift.png","","","","calm","2","R","D","U","lightshift","",""
"","","","","","html-slider-response","104","458316","0.0-98.0","k76poegtxa","15","NaN","<div style=""width:500px;"">
                            <p style=""font-size:50px; font-weight:bold;""
                            >calm</p>
                            <div style=""width:240px; margin: auto;"">
                                <img src=""images/Y_D_S_37_darkshift.png"" style= ""width:200px""alt=""img"">
                            </div>
                        </div>","-163","","0","images/Y_D_S_37_darkshift.png","","","","calm","2","Y","D","S","darkshift","",""
"","","","","","html-slider-response","105","460938","0.0-99.0","k76poegtxa","15","NaN","<div style=""width:500px;"">
                            <p style=""font-size:50px; font-weight:bold;""
                            >calm</p>
                            <div style=""width:240px; margin: auto;"">
                                <img src=""images/G_L_U_12_darkshift.png"" style= ""width:200px""alt=""img"">
                            </div>
                        </div>","196","","0","images/G_L_U_12_darkshift.png","","","","calm","2","G","L","U","darkshift","",""
"","","","","","html-slider-response","106","464444","0.0-100.0","k76poegtxa","15","NaN","<div style=""width:500px;"">
                            <p style=""font-size:50px; font-weight:bold;""
                            >calm</p>
                            <div style=""width:240px; margin: auto;"">
                                <img src=""images/R_D_S_5_lightshift.png"" style= ""width:200px""alt=""img"">
                            </div>
                        </div>","-150","","0","images/R_D_S_5_lightshift.png","","","","calm","1","R","D","S","lightshift","",""
"","","","","","html-slider-response","107","467400","0.0-101.0","k76poegtxa","15","NaN","<div style=""width:500px;"">
                            <p style=""font-size:50px; font-weight:bold;""
                            >calm</p>
                            <div style=""width:240px; margin: auto;"">
                                <img src=""images/G_L_S_10_darkshift.png"" style= ""width:200px""alt=""img"">
                            </div>
                        </div>","14","","0","images/G_L_S_10_darkshift.png","","","","calm","1","G","L","S","darkshift","",""
"","","","","","html-slider-response","108","469868","0.0-102.0","k76poegtxa","15","NaN","<div style=""width:500px;"">
                            <p style=""font-size:50px; font-weight:bold;""
                            >calm</p>
                            <div style=""width:240px; margin: auto;"">
                                <img src=""images/G_D_S_13_lightshift.png"" style= ""width:200px""alt=""img"">
                            </div>
                        </div>","16","","0","images/G_D_S_13_lightshift.png","","","","calm","2","G","D","S","lightshift","",""
"","","","","","html-slider-response","109","472000","0.0-103.0","k76poegtxa","15","NaN","<div style=""width:500px;"">
                            <p style=""font-size:50px; font-weight:bold;""
                            >calm</p>
                            <div style=""width:240px; margin: auto;"">
                                <img src=""images/Y_L_S_30_lightshift.png"" style= ""width:200px""alt=""img"">
                            </div>
                        </div>","-51","","0","images/Y_L_S_30_lightshift.png","","","","calm","2","Y","L","S","lightshift","",""
"","","","","","html-slider-response","110","475157","0.0-104.0","k76poegtxa","15","NaN","<div style=""width:500px;"">
                            <p style=""font-size:50px; font-weight:bold;""
                            >calm</p>
                            <div style=""width:240px; margin: auto;"">
                                <img src=""images/R_L_S_44_lightshift.png"" style= ""width:200px""alt=""img"">
                            </div>
                        </div>","-192","","0","images/R_L_S_44_lightshift.png","","","","calm","2","R","L","S","lightshift","",""
"","","","","","html-slider-response","111","477661","0.0-105.0","k76poegtxa","15","NaN","<div style=""width:500px;"">
                            <p style=""font-size:50px; font-weight:bold;""
                            >calm</p>
                            <div style=""width:240px; margin: auto;"">
                                <img src=""images/R_D_U_7_lightshift.png"" style= ""width:200px""alt=""img"">
                            </div>
                        </div>","-57","","0","images/R_D_U_7_lightshift.png","","","","calm","1","R","D","U","lightshift","",""
"","","","","","html-slider-response","112","480110","0.0-106.0","k76poegtxa","15","NaN","<div style=""width:500px;"">
                            <p style=""font-size:50px; font-weight:bold;""
                            >calm</p>
                            <div style=""width:240px; margin: auto;"">
                                <img src=""images/R_L_U_2_lightshift.png"" style= ""width:200px""alt=""img"">
                            </div>
                        </div>","-192","","0","images/R_L_U_2_lightshift.png","","","","calm","2","R","L","U","lightshift","",""
"","","","","","html-slider-response","113","482427","0.0-107.0","k76poegtxa","15","NaN","<div style=""width:500px;"">
                            <p style=""font-size:50px; font-weight:bold;""
                            >calm</p>
                            <div style=""width:240px; margin: auto;"">
                                <img src=""images/B_L_U_26_lightshift.png"" style= ""width:200px""alt=""img"">
                            </div>
                        </div>","194","","0","images/B_L_U_26_lightshift.png","","","","calm","1","B","L","U","lightshift","",""
"","","","","","html-slider-response","114","485338","0.0-108.0","k76poegtxa","15","NaN","<div style=""width:500px;"">
                            <p style=""font-size:50px; font-weight:bold;""
                            >calm</p>
                            <div style=""width:240px; margin: auto;"">
                                <img src=""images/Y_L_U_33_darkshift.png"" style= ""width:200px""alt=""img"">
                            </div>
                        </div>","-29","","0","images/Y_L_U_33_darkshift.png","","","","calm","2","Y","L","U","darkshift","",""
"","","","","","html-slider-response","115","488764","0.0-109.0","k76poegtxa","15","NaN","<div style=""width:500px;"">
                            <p style=""font-size:50px; font-weight:bold;""
                            >calm</p>
                            <div style=""width:240px; margin: auto;"">
                                <img src=""images/B_L_S_23_lightshift.png"" style= ""width:200px""alt=""img"">
                            </div>
                        </div>","-48","","0","images/B_L_S_23_lightshift.png","","","","calm","1","B","L","S","lightshift","",""
"","","","","","html-slider-response","116","492198","0.0-110.0","k76poegtxa","15","NaN","<div style=""width:500px;"">
                            <p style=""font-size:50px; font-weight:bold;""
                            >calm</p>
                            <div style=""width:240px; margin: auto;"">
                                <img src=""images/G_D_S_13_darkshift.png"" style= ""width:200px""alt=""img"">
                            </div>
                        </div>","197","","0","images/G_D_S_13_darkshift.png","","","","calm","1","G","D","S","darkshift","",""
"","","","","","html-slider-response","117","495650","0.0-111.0","k76poegtxa","15","NaN","<div style=""width:500px;"">
                            <p style=""font-size:50px; font-weight:bold;""
                            >calm</p>
                            <div style=""width:240px; margin: auto;"">
                                <img src=""images/B_D_S_27_lightshift.png"" style= ""width:200px""alt=""img"">
                            </div>
                        </div>","196","","0","images/B_D_S_27_lightshift.png","","","","calm","1","B","D","S","lightshift","",""
"","","","","","html-slider-response","118","497485","0.0-112.0","k76poegtxa","15","NaN","<div style=""width:500px;"">
                            <p style=""font-size:50px; font-weight:bold;""
                            >calm</p>
                            <div style=""width:240px; margin: auto;"">
                                <img src=""images/R_D_S_5_lightshift.png"" style= ""width:200px""alt=""img"">
                            </div>
                        </div>","196","","0","images/R_D_S_5_lightshift.png","","","","calm","2","R","D","S","lightshift","",""
"","","","","","html-slider-response","119","500050","0.0-113.0","k76poegtxa","15","NaN","<div style=""width:500px;"">
                            <p style=""font-size:50px; font-weight:bold;""
                            >calm</p>
                            <div style=""width:240px; margin: auto;"">
                                <img src=""images/B_D_U_28_lightshift.png"" style= ""width:200px""alt=""img"">
                            </div>
                        </div>","198","","0","images/B_D_U_28_lightshift.png","","","","calm","2","B","D","U","lightshift","",""
"","","","","","html-slider-response","120","502687","0.0-114.0","k76poegtxa","15","NaN","<div style=""width:500px;"">
                            <p style=""font-size:50px; font-weight:bold;""
                            >calm</p>
                            <div style=""width:240px; margin: auto;"">
                                <img src=""images/R_L_S_44_darkshift.png"" style= ""width:200px""alt=""img"">
                            </div>
                        </div>","-195","","0","images/R_L_S_44_darkshift.png","","","","calm","1","R","L","S","darkshift","",""
"","","","","","html-slider-response","121","505686","0.0-115.0","k76poegtxa","15","NaN","<div style=""width:500px;"">
                            <p style=""font-size:50px; font-weight:bold;""
                            >calm</p>
                            <div style=""width:240px; margin: auto;"">
                                <img src=""images/B_D_U_28_darkshift.png"" style= ""width:200px""alt=""img"">
                            </div>
                        </div>","199","","0","images/B_D_U_28_darkshift.png","","","","calm","1","B","D","U","darkshift","",""
"","","","","","html-slider-response","122","507862","0.0-116.0","k76poegtxa","15","NaN","<div style=""width:500px;"">
                            <p style=""font-size:50px; font-weight:bold;""
                            >calm</p>
                            <div style=""width:240px; margin: auto;"">
                                <img src=""images/B_L_U_26_darkshift.png"" style= ""width:200px""alt=""img"">
                            </div>
                        </div>","71","","0","images/B_L_U_26_darkshift.png","","","","calm","2","B","L","U","darkshift","",""
"","","","","","html-slider-response","123","509971","0.0-117.0","k76poegtxa","15","NaN","<div style=""width:500px;"">
                            <p style=""font-size:50px; font-weight:bold;""
                            >calm</p>
                            <div style=""width:240px; margin: auto;"">
                                <img src=""images/B_D_U_28_lightshift.png"" style= ""width:200px""alt=""img"">
                            </div>
                        </div>","141","","0","images/B_D_U_28_lightshift.png","","","","calm","1","B","D","U","lightshift","",""
"","","","","","html-slider-response","124","511420","0.0-118.0","k76poegtxa","15","NaN","<div style=""width:500px;"">
                            <p style=""font-size:50px; font-weight:bold;""
                            >calm</p>
                            <div style=""width:240px; margin: auto;"">
                                <img src=""images/B_L_U_26_lightshift.png"" style= ""width:200px""alt=""img"">
                            </div>
                        </div>","141","","0","images/B_L_U_26_lightshift.png","","","","calm","2","B","L","U","lightshift","",""
"","","","","","html-slider-response","125","512756","0.0-119.0","k76poegtxa","15","NaN","<div style=""width:500px;"">
                            <p style=""font-size:50px; font-weight:bold;""
                            >calm</p>
                            <div style=""width:240px; margin: auto;"">
                                <img src=""images/B_L_S_23_darkshift.png"" style= ""width:200px""alt=""img"">
                            </div>
                        </div>","141","","0","images/B_L_S_23_darkshift.png","","","","calm","1","B","L","S","darkshift","",""
"","","","","","html-slider-response","126","515545","0.0-120.0","k76poegtxa","15","NaN","<div style=""width:500px;"">
                            <p style=""font-size:50px; font-weight:bold;""
                            >calm</p>
                            <div style=""width:240px; margin: auto;"">
                                <img src=""images/G_L_S_10_lightshift.png"" style= ""width:200px""alt=""img"">
                            </div>
                        </div>","16","","0","images/G_L_S_10_lightshift.png","","","","calm","2","G","L","S","lightshift","",""
"","","","","","html-slider-response","127","517856","0.0-121.0","k76poegtxa","15","NaN","<div style=""width:500px;"">
                            <p style=""font-size:50px; font-weight:bold;""
                            >calm</p>
                            <div style=""width:240px; margin: auto;"">
                                <img src=""images/Y_L_U_33_lightshift.png"" style= ""width:200px""alt=""img"">
                            </div>
                        </div>","-55","","0","images/Y_L_U_33_lightshift.png","","","","calm","1","Y","L","U","lightshift","",""
"","","","","","html-slider-response","128","519929","0.0-122.0","k76poegtxa","15","NaN","<div style=""width:500px;"">
                            <p style=""font-size:50px; font-weight:bold;""
                            >calm</p>
                            <div style=""width:240px; margin: auto;"">
                                <img src=""images/G_L_U_12_lightshift.png"" style= ""width:200px""alt=""img"">
                            </div>
                        </div>","-55","","0","images/G_L_U_12_lightshift.png","","","","calm","1","G","L","U","lightshift","",""
"","","","","","html-slider-response","129","522063","0.0-123.0","k76poegtxa","15","NaN","<div style=""width:500px;"">
                            <p style=""font-size:50px; font-weight:bold;""
                            >calm</p>
                            <div style=""width:240px; margin: auto;"">
                                <img src=""images/Y_D_U_41_darkshift.png"" style= ""width:200px""alt=""img"">
                            </div>
                        </div>","-117","","0","images/Y_D_U_41_darkshift.png","","","","calm","1","Y","D","U","darkshift","",""
"","","","","","html-slider-response","130","524710","0.0-124.0","k76poegtxa","15","NaN","<div style=""width:500px;"">
                            <p style=""font-size:50px; font-weight:bold;""
                            >calm</p>
                            <div style=""width:240px; margin: auto;"">
                                <img src=""images/G_L_S_10_darkshift.png"" style= ""width:200px""alt=""img"">
                            </div>
                        </div>","64","","0","images/G_L_S_10_darkshift.png","","","","calm","2","G","L","S","darkshift","",""
"","","","","","html-slider-response","131","527832","0.0-125.0","k76poegtxa","15","NaN","<div style=""width:500px;"">
                            <p style=""font-size:50px; font-weight:bold;""
                            >calm</p>
                            <div style=""width:240px; margin: auto;"">
                                <img src=""images/B_D_S_27_darkshift.png"" style= ""width:200px""alt=""img"">
                            </div>
                        </div>","198","","0","images/B_D_S_27_darkshift.png","","","","calm","1","B","D","S","darkshift","",""
"","","","","","html-slider-response","132","530483","0.0-126.0","k76poegtxa","15","NaN","<div style=""width:500px;"">
                            <p style=""font-size:50px; font-weight:bold;""
                            >calm</p>
                            <div style=""width:240px; margin: auto;"">
                                <img src=""images/R_D_U_7_darkshift.png"" style= ""width:200px""alt=""img"">
                            </div>
                        </div>","192","","0","images/R_D_U_7_darkshift.png","","","","calm","1","R","D","U","darkshift","",""
"","","","","","html-slider-response","133","532630","0.0-127.0","k76poegtxa","15","NaN","<div style=""width:500px;"">
                            <p style=""font-size:50px; font-weight:bold;""
                            >calm</p>
                            <div style=""width:240px; margin: auto;"">
                                <img src=""images/Y_D_U_41_lightshift.png"" style= ""width:200px""alt=""img"">
                            </div>
                        </div>","-170","","0","images/Y_D_U_41_lightshift.png","","","","calm","1","Y","D","U","lightshift","",""
"","","","","","html-slider-response","134","534950","0.0-128.0","k76poegtxa","15","NaN","<div style=""width:500px;"">
                            <p style=""font-size:50px; font-weight:bold;""
                            >calm</p>
                            <div style=""width:240px; margin: auto;"">
                                <img src=""images/Y_L_S_30_darkshift.png"" style= ""width:200px""alt=""img"">
                            </div>
                        </div>","-165","","0","images/Y_L_S_30_darkshift.png","","","","calm","1","Y","L","S","darkshift","",""
"","","","","","html-slider-response","135","537111","0.0-129.0","k76poegtxa","15","NaN","<div style=""width:500px;"">
                            <p style=""font-size:50px; font-weight:bold;""
                            >calm</p>
                            <div style=""width:240px; margin: auto;"">
                                <img src=""images/G_D_U_15_lightshift.png"" style= ""width:200px""alt=""img"">
                            </div>
                        </div>","174","","0","images/G_D_U_15_lightshift.png","","","","calm","1","G","D","U","lightshift","",""
"","","","","","html-slider-response","136","538871","0.0-130.0","k76poegtxa","15","NaN","<div style=""width:500px;"">
                            <p style=""font-size:50px; font-weight:bold;""
                            >calm</p>
                            <div style=""width:240px; margin: auto;"">
                                <img src=""images/G_D_U_15_lightshift.png"" style= ""width:200px""alt=""img"">
                            </div>
                        </div>","154","","0","images/G_D_U_15_lightshift.png","","","","calm","2","G","D","U","lightshift","",""
"","","","","","html-slider-response","137","542840","0.0-131.0","k76poegtxa","15","NaN","<div style=""width:500px;"">
                            <p style=""font-size:50px; font-weight:bold;""
                            >calm</p>
                            <div style=""width:240px; margin: auto;"">
                                <img src=""images/B_L_S_23_lightshift.png"" style= ""width:200px""alt=""img"">
                            </div>
                        </div>","154","","0","images/B_L_S_23_lightshift.png","","","","calm","2","B","L","S","lightshift","",""
"","","","","","html-slider-response","138","545605","0.0-132.0","k76poegtxa","15","NaN","<div style=""width:500px;"">
                            <p style=""font-size:50px; font-weight:bold;""
                            >calm</p>
                            <div style=""width:240px; margin: auto;"">
                                <img src=""images/Y_D_U_41_darkshift.png"" style= ""width:200px""alt=""img"">
                            </div>
                        </div>","-81","","0","images/Y_D_U_41_darkshift.png","","","","calm","2","Y","D","U","darkshift","",""
"","","","","","html-slider-response","139","548208","0.0-133.0","k76poegtxa","15","NaN","<div style=""width:500px;"">
                            <p style=""font-size:50px; font-weight:bold;""
                            >calm</p>
                            <div style=""width:240px; margin: auto;"">
                                <img src=""images/R_D_S_5_darkshift.png"" style= ""width:200px""alt=""img"">
                            </div>
                        </div>","55","","0","images/R_D_S_5_darkshift.png","","","","calm","2","R","D","S","darkshift","",""
"","","","","","html-slider-response","140","551107","0.0-134.0","k76poegtxa","15","NaN","<div style=""width:500px;"">
                            <p style=""font-size:50px; font-weight:bold;""
                            >calm</p>
                            <div style=""width:240px; margin: auto;"">
                                <img src=""images/G_D_S_13_lightshift.png"" style= ""width:200px""alt=""img"">
                            </div>
                        </div>","14","","0","images/G_D_S_13_lightshift.png","","","","calm","1","G","D","S","lightshift","",""
"","","","","","html-slider-response","141","554076","0.0-135.0","k76poegtxa","15","NaN","<div style=""width:500px;"">
                            <p style=""font-size:50px; font-weight:bold;""
                            >calm</p>
                            <div style=""width:240px; margin: auto;"">
                                <img src=""images/G_D_U_15_darkshift.png"" style= ""width:200px""alt=""img"">
                            </div>
                        </div>","198","","0","images/G_D_U_15_darkshift.png","","","","calm","1","G","D","U","darkshift","",""
"","","","","","html-slider-response","142","556773","0.0-136.0","k76poegtxa","15","NaN","<div style=""width:500px;"">
                            <p style=""font-size:50px; font-weight:bold;""
                            >calm</p>
                            <div style=""width:240px; margin: auto;"">
                                <img src=""images/R_L_U_2_darkshift.png"" style= ""width:200px""alt=""img"">
                            </div>
                        </div>","-83","","0","images/R_L_U_2_darkshift.png","","","","calm","2","R","L","U","darkshift","",""
"","","","","","html-slider-response","143","558742","0.0-137.0","k76poegtxa","15","NaN","<div style=""width:500px;"">
                            <p style=""font-size:50px; font-weight:bold;""
                            >calm</p>
                            <div style=""width:240px; margin: auto;"">
                                <img src=""images/R_L_S_44_lightshift.png"" style= ""width:200px""alt=""img"">
                            </div>
                        </div>","-92","","0","images/R_L_S_44_lightshift.png","","","","calm","1","R","L","S","lightshift","",""
"","","","","","html-slider-response","144","562197","0.0-138.0","k76poegtxa","15","NaN","<div style=""width:500px;"">
                            <p style=""font-size:50px; font-weight:bold;""
                            >calm</p>
                            <div style=""width:240px; margin: auto;"">
                                <img src=""images/G_L_U_12_darkshift.png"" style= ""width:200px""alt=""img"">
                            </div>
                        </div>","198","","0","images/G_L_U_12_darkshift.png","","","","calm","1","G","L","U","darkshift","",""
"","","","","","html-slider-response","145","564403","0.0-139.0","k76poegtxa","15","NaN","<div style=""width:500px;"">
                            <p style=""font-size:50px; font-weight:bold;""
                            >calm</p>
                            <div style=""width:240px; margin: auto;"">
                                <img src=""images/Y_D_U_41_lightshift.png"" style= ""width:200px""alt=""img"">
                            </div>
                        </div>","-166","","0","images/Y_D_U_41_lightshift.png","","","","calm","2","Y","D","U","lightshift","",""
"","","","","","html-slider-response","146","566579","0.0-140.0","k76poegtxa","15","NaN","<div style=""width:500px;"">
                            <p style=""font-size:50px; font-weight:bold;""
                            >calm</p>
                            <div style=""width:240px; margin: auto;"">
                                <img src=""images/Y_L_U_33_lightshift.png"" style= ""width:200px""alt=""img"">
                            </div>
                        </div>","-125","","0","images/Y_L_U_33_lightshift.png","","","","calm","2","Y","L","U","lightshift","",""
"","","","","","html-slider-response","147","569087","0.0-141.0","k76poegtxa","15","NaN","<div style=""width:500px;"">
                            <p style=""font-size:50px; font-weight:bold;""
                            >calm</p>
                            <div style=""width:240px; margin: auto;"">
                                <img src=""images/G_D_S_13_darkshift.png"" style= ""width:200px""alt=""img"">
                            </div>
                        </div>","200","","0","images/G_D_S_13_darkshift.png","","","","calm","2","G","D","S","darkshift","",""
"","","","","","html-slider-response","148","573888","0.0-142.0","k76poegtxa","15","NaN","<div style=""width:500px;"">
                            <p style=""font-size:50px; font-weight:bold;""
                            >calm</p>
                            <div style=""width:240px; margin: auto;"">
                                <img src=""images/Y_L_S_30_darkshift.png"" style= ""width:200px""alt=""img"">
                            </div>
                        </div>","90","","0","images/Y_L_S_30_darkshift.png","","","","calm","2","Y","L","S","darkshift","",""
"","","","","","html-slider-response","149","577323","0.0-143.0","k76poegtxa","15","NaN","<div style=""width:500px;"">
                            <p style=""font-size:50px; font-weight:bold;""
                            >calm</p>
                            <div style=""width:240px; margin: auto;"">
                                <img src=""images/R_L_S_44_darkshift.png"" style= ""width:200px""alt=""img"">
                            </div>
                        </div>","-196","","0","images/R_L_S_44_darkshift.png","","","","calm","2","R","L","S","darkshift","",""
"","","","","","html-button-response","150","582742","0.0-144.0","k76poegtxa","15","4903","<p>Great Job! You've finished block 2.<br></br> You have 2 block(s) left to go.<br></br></p>","0","","","","","","","","","","","","","",""
"","","","","","html-button-response","151","586346","0.0-145.0","k76poegtxa","15","3603","<p>In this block of trials, you will be asked to rate how much you associate each map with:</p > <p style = 'font-size:150%; font-weight: bold'>startling</p><br></br>","0","","","","","","","","","","","","","",""
"","","","","","html-slider-response","152","588094","0.0-146.0","k76poegtxa","15","NaN","<div style=""width:500px;"">
                            <p style=""font-size:50px; font-weight:bold;""
                            >startling</p>
                            <div style=""width:240px; margin: auto;"">
                                <img src=""images/B_D_S_27_darkshift.png"" style= ""width:200px""alt=""img"">
                            </div>
                        </div>","-163","","0","images/B_D_S_27_darkshift.png","","","","startling","1","B","D","S","darkshift","",""
"","","","","","html-slider-response","153","589409","0.0-147.0","k76poegtxa","15","NaN","<div style=""width:500px;"">
                            <p style=""font-size:50px; font-weight:bold;""
                            >startling</p>
                            <div style=""width:240px; margin: auto;"">
                                <img src=""images/Y_D_S_37_lightshift.png"" style= ""width:200px""alt=""img"">
                            </div>
                        </div>","-163","","0","images/Y_D_S_37_lightshift.png","","","","startling","2","Y","D","S","lightshift","",""
"","","","","","html-slider-response","154","591596","0.0-148.0","k76poegtxa","15","NaN","<div style=""width:500px;"">
                            <p style=""font-size:50px; font-weight:bold;""
                            >startling</p>
                            <div style=""width:240px; margin: auto;"">
                                <img src=""images/G_D_U_15_darkshift.png"" style= ""width:200px""alt=""img"">
                            </div>
                        </div>","-189","","0","images/G_D_U_15_darkshift.png","","","","startling","2","G","D","U","darkshift","",""
"","","","","","html-slider-response","155","593559","0.0-149.0","k76poegtxa","15","NaN","<div style=""width:500px;"">
                            <p style=""font-size:50px; font-weight:bold;""
                            >startling</p>
                            <div style=""width:240px; margin: auto;"">
                                <img src=""images/R_L_U_2_darkshift.png"" style= ""width:200px""alt=""img"">
                            </div>
                        </div>","-197","","0","images/R_L_U_2_darkshift.png","","","","startling","1","R","L","U","darkshift","",""
"","","","","","html-slider-response","156","594881","0.0-150.0","k76poegtxa","15","NaN","<div style=""width:500px;"">
                            <p style=""font-size:50px; font-weight:bold;""
                            >startling</p>
                            <div style=""width:240px; margin: auto;"">
                                <img src=""images/G_D_U_15_darkshift.png"" style= ""width:200px""alt=""img"">
                            </div>
                        </div>","-197","","0","images/G_D_U_15_darkshift.png","","","","startling","1","G","D","U","darkshift","",""
"","","","","","html-slider-response","157","596630","0.0-151.0","k76poegtxa","15","NaN","<div style=""width:500px;"">
                            <p style=""font-size:50px; font-weight:bold;""
                            >startling</p>
                            <div style=""width:240px; margin: auto;"">
                                <img src=""images/G_L_U_12_lightshift.png"" style= ""width:200px""alt=""img"">
                            </div>
                        </div>","-197","","0","images/G_L_U_12_lightshift.png","","","","startling","1","G","L","U","lightshift","",""
"","","","","","html-slider-response","158","599384","0.0-152.0","k76poegtxa","15","NaN","<div style=""width:500px;"">
                            <p style=""font-size:50px; font-weight:bold;""
                            >startling</p>
                            <div style=""width:240px; margin: auto;"">
                                <img src=""images/G_L_S_10_lightshift.png"" style= ""width:200px""alt=""img"">
                            </div>
                        </div>","198","","0","images/G_L_S_10_lightshift.png","","","","startling","2","G","L","S","lightshift","",""
"","","","","","html-slider-response","159","601784","0.0-153.0","k76poegtxa","15","NaN","<div style=""width:500px;"">
                            <p style=""font-size:50px; font-weight:bold;""
                            >startling</p>
                            <div style=""width:240px; margin: auto;"">
                                <img src=""images/Y_L_U_33_darkshift.png"" style= ""width:200px""alt=""img"">
                            </div>
                        </div>","-158","","0","images/Y_L_U_33_darkshift.png","","","","startling","1","Y","L","U","darkshift","",""
"","","","","","html-slider-response","160","605523","0.0-154.0","k76poegtxa","15","NaN","<div style=""width:500px;"">
                            <p style=""font-size:50px; font-weight:bold;""
                            >startling</p>
                            <div style=""width:240px; margin: auto;"">
                                <img src=""images/B_D_U_28_lightshift.png"" style= ""width:200px""alt=""img"">
                            </div>
                        </div>","-195","","0","images/B_D_U_28_lightshift.png","","","","startling","1","B","D","U","lightshift","",""
"","","","","","html-slider-response","161","606958","0.0-155.0","k76poegtxa","15","NaN","<div style=""width:500px;"">
                            <p style=""font-size:50px; font-weight:bold;""
                            >startling</p>
                            <div style=""width:240px; margin: auto;"">
                                <img src=""images/Y_L_U_33_lightshift.png"" style= ""width:200px""alt=""img"">
                            </div>
                        </div>","-195","","0","images/Y_L_U_33_lightshift.png","","","","startling","1","Y","L","U","lightshift","",""
"","","","","","html-slider-response","162","609901","0.0-156.0","k76poegtxa","15","NaN","<div style=""width:500px;"">
                            <p style=""font-size:50px; font-weight:bold;""
                            >startling</p>
                            <div style=""width:240px; margin: auto;"">
                                <img src=""images/B_L_U_26_lightshift.png"" style= ""width:200px""alt=""img"">
                            </div>
                        </div>","186","","0","images/B_L_U_26_lightshift.png","","","","startling","2","B","L","U","lightshift","",""
"","","","","","html-slider-response","163","612753","0.0-157.0","k76poegtxa","15","NaN","<div style=""width:500px;"">
                            <p style=""font-size:50px; font-weight:bold;""
                            >startling</p>
                            <div style=""width:240px; margin: auto;"">
                                <img src=""images/B_L_U_26_darkshift.png"" style= ""width:200px""alt=""img"">
                            </div>
                        </div>","63","","0","images/B_L_U_26_darkshift.png","","","","startling","2","B","L","U","darkshift","",""
"","","","","","html-slider-response","164","615519","0.0-158.0","k76poegtxa","15","NaN","<div style=""width:500px;"">
                            <p style=""font-size:50px; font-weight:bold;""
                            >startling</p>
                            <div style=""width:240px; margin: auto;"">
                                <img src=""images/B_D_S_27_lightshift.png"" style= ""width:200px""alt=""img"">
                            </div>
                        </div>","183","","0","images/B_D_S_27_lightshift.png","","","","startling","2","B","D","S","lightshift","",""
"","","","","","html-slider-response","165","618258","0.0-159.0","k76poegtxa","15","NaN","<div style=""width:500px;"">
                            <p style=""font-size:50px; font-weight:bold;""
                            >startling</p>
                            <div style=""width:240px; margin: auto;"">
                                <img src=""images/Y_L_U_33_darkshift.png"" style= ""width:200px""alt=""img"">
                            </div>
                        </div>","-58","","0","images/Y_L_U_33_darkshift.png","","","","startling","2","Y","L","U","darkshift","",""
"","","","","","html-slider-response","166","622497","0.0-160.0","k76poegtxa","15","NaN","<div style=""width:500px;"">
                            <p style=""font-size:50px; font-weight:bold;""
                            >startling</p>
                            <div style=""width:240px; margin: auto;"">
                                <img src=""images/R_D_S_5_darkshift.png"" style= ""width:200px""alt=""img"">
                            </div>
                        </div>","145","","0","images/R_D_S_5_darkshift.png","","","","startling","2","R","D","S","darkshift","",""
"","","","","","html-slider-response","167","624627","0.0-161.0","k76poegtxa","15","NaN","<div style=""width:500px;"">
                            <p style=""font-size:50px; font-weight:bold;""
                            >startling</p>
                            <div style=""width:240px; margin: auto;"">
                                <img src=""images/G_L_S_10_darkshift.png"" style= ""width:200px""alt=""img"">
                            </div>
                        </div>","93","","0","images/G_L_S_10_darkshift.png","","","","startling","2","G","L","S","darkshift","",""
"","","","","","html-slider-response","168","627642","0.0-162.0","k76poegtxa","15","NaN","<div style=""width:500px;"">
                            <p style=""font-size:50px; font-weight:bold;""
                            >startling</p>
                            <div style=""width:240px; margin: auto;"">
                                <img src=""images/Y_D_U_41_lightshift.png"" style= ""width:200px""alt=""img"">
                            </div>
                        </div>","-195","","0","images/Y_D_U_41_lightshift.png","","","","startling","1","Y","D","U","lightshift","",""
"","","","","","html-slider-response","169","630645","0.0-163.0","k76poegtxa","15","NaN","<div style=""width:500px;"">
                            <p style=""font-size:50px; font-weight:bold;""
                            >startling</p>
                            <div style=""width:240px; margin: auto;"">
                                <img src=""images/R_L_S_44_lightshift.png"" style= ""width:200px""alt=""img"">
                            </div>
                        </div>","194","","0","images/R_L_S_44_lightshift.png","","","","startling","1","R","L","S","lightshift","",""
"","","","","","html-slider-response","170","633412","0.0-164.0","k76poegtxa","15","NaN","<div style=""width:500px;"">
                            <p style=""font-size:50px; font-weight:bold;""
                            >startling</p>
                            <div style=""width:240px; margin: auto;"">
                                <img src=""images/R_D_U_7_lightshift.png"" style= ""width:200px""alt=""img"">
                            </div>
                        </div>","43","","0","images/R_D_U_7_lightshift.png","","","","startling","2","R","D","U","lightshift","",""
"","","","","","html-slider-response","171","637398","0.0-165.0","k76poegtxa","15","NaN","<div style=""width:500px;"">
                            <p style=""font-size:50px; font-weight:bold;""
                            >startling</p>
                            <div style=""width:240px; margin: auto;"">
                                <img src=""images/R_D_U_7_darkshift.png"" style= ""width:200px""alt=""img"">
                            </div>
                        </div>","-69","","0","images/R_D_U_7_darkshift.png","","","","startling","2","R","D","U","darkshift","",""
"","","","","","html-slider-response","172","640101","0.0-166.0","k76poegtxa","15","NaN","<div style=""width:500px;"">
                            <p style=""font-size:50px; font-weight:bold;""
                            >startling</p>
                            <div style=""width:240px; margin: auto;"">
                                <img src=""images/B_L_S_23_darkshift.png"" style= ""width:200px""alt=""img"">
                            </div>
                        </div>","146","","0","images/B_L_S_23_darkshift.png","","","","startling","2","B","L","S","darkshift","",""
"","","","","","html-slider-response","173","642966","0.0-167.0","k76poegtxa","15","NaN","<div style=""width:500px;"">
                            <p style=""font-size:50px; font-weight:bold;""
                            >startling</p>
                            <div style=""width:240px; margin: auto;"">
                                <img src=""images/Y_L_S_30_lightshift.png"" style= ""width:200px""alt=""img"">
                            </div>
                        </div>","198","","0","images/Y_L_S_30_lightshift.png","","","","startling","2","Y","L","S","lightshift","",""
"","","","","","html-slider-response","174","645437","0.0-168.0","k76poegtxa","15","NaN","<div style=""width:500px;"">
