"success","timeout","failed_images","failed_audio","failed_video","trial_type","trial_index","time_elapsed","internal_node_id","subject_id","condition_num","rt","stimulus","response","question_order","slider_start","image_path","practiceTrial","practiceTrialNum","correct","concept","repetition","hue","lightness","saturation","shift","ishihara_plate","correct_response"
"true","false","[]","[]","[]","preload","0","322","0.0-0.0","lcwqgnb7c9","8","","","","","","","","","","","","","","","","",""
"","","","","","html-button-response","1","4028","0.0-1.0","lcwqgnb7c9","8","3705","Welcome to our experiment!<p>At the bottom of this screen, you will see a button that says ""Begin Experiment"".<br>Please only click that button when you are ready to complete the 25 minute experiment in one sitting.</p><p> Once you click that button, it will not be possible to restart the experiment.","0","","","","","","","","","","","","","",""
"true","","","","","fullscreen","2","5925","0.0-2.0","lcwqgnb7c9","8","892","","","","","","","","","","","","","","","",""
"","","","","","survey-multi-select","3","25221","0.0-3.0","lcwqgnb7c9","8","19291","","{""Consent"":[""<strong>I consent</strong>""]}","[0]","","","","","","","","","","","","",""
"","","","","","html-button-response","4","29120","0.0-4.0","lcwqgnb7c9","8","3898","Welcome! <p> This experiment involves two parts: demographic information, followed by the experimental task.<p> It will take about 25 minutes to complete both parts.","0","","","","","","","","","","","","","",""
"","","","","","survey-text","5","46091","0.0-5.0","lcwqgnb7c9","8","16963","","{""Age"":""18"",""Gender"":""male"",""Race/ethnicity"":""white"",""Languages"":""english""}","","","","","","","","","","","","","",""
"","","","","","html-slider-response","6","77129","0.0-6.0","lcwqgnb7c9","8","31036","
                            <div style='text-align:left; font-size:20px; line-height:25px; width: 1400px;'>
                                During this experiment you will be asked to rate how much you associate maps with                    different concepts.<br> Below, you can see some examples of the maps you will be asked to rate. Next to the maps
                    is the list of concepts.<br>You will be asked                    to rate how much you associate each map with each concept on a scale from 'not at all' to 'very much' like the
                    one below. <br><br>
                    Now, please look at the list of concepts and maps. For each concept, think about the map you associate 'very
                    much' with the concept.<br>                     When you see that map during the experiment, please rate it near the 'very much' endpoint of the
                    scale.<br>Now, please think about which map you associate 'not at all'                     with each concept. When you see that map during the experiment, please rate it near the 'not at all' endpoint
                    of the scale.<br>
                    Please use the full range of the scale. That is, if a map is somewhat associated with the concept, you would
                    click partway between the middle point and right side of the scale.                    You will be asked to rate each map for a given concept before moving on to the next concept.<br><br>Press the
                    'Continue' button for instructions on how to use the slider.                    <br><br>
                </div>

                <div style=""width: 500px; margin: 0 auto;"">
                    <!-- Centered text paragraphs -->
                    <div style=""text-align: center; width: 500px;"">
                        <p style=""font-size:25px; line-height:18px;"">calm</p>
                        <p style=""font-size:25px; line-height:18px;"">positive</p>
                        <p style=""font-size:25px;line-height:18px;"">negative</p>
                        <p style=""font-size:25px;line-height:18px;"">startling</p>
                    </div>

                    <!-- Grid section -->
                   <div style=""display: flex; justify-content: center; padding-top: 15px;"">
                    <div style=""display: grid; grid-template-columns: repeat(8, 80px); grid-gap: 5px; width: auto;"">
                        <img src=""images/Y_D_U_23_darkshift.png"" alt=""map"" style=""width: 100%;""><img src=""images/R_D_U_30_darkshift.png"" alt=""map"" style=""width: 100%;""><img src=""images/R_D_S_28_darkshift.png"" alt=""map"" style=""width: 100%;""><img src=""images/G_L_U_37_lightshift.png"" alt=""map"" style=""width: 100%;""><img src=""images/B_L_U_5_lightshift.png"" alt=""map"" style=""width: 100%;""><img src=""images/B_D_U_10_darkshift.png"" alt=""map"" style=""width: 100%;""><img src=""images/B_D_S_7_darkshift.png"" alt=""map"" style=""width: 100%;""><img src=""images/R_L_S_26_lightshift.png"" alt=""map"" style=""width: 100%;""><img src=""images/R_D_U_30_lightshift.png"" alt=""map"" style=""width: 100%;""><img src=""images/Y_D_S_15_lightshift.png"" alt=""map"" style=""width: 100%;""><img src=""images/Y_L_U_13_darkshift.png"" alt=""map"" style=""width: 100%;""><img src=""images/B_L_S_2_darkshift.png"" alt=""map"" style=""width: 100%;""><img src=""images/G_L_U_37_darkshift.png"" alt=""map"" style=""width: 100%;""><img src=""images/G_D_U_44_lightshift.png"" alt=""map"" style=""width: 100%;""><img src=""images/Y_L_S_12_lightshift.png"" alt=""map"" style=""width: 100%;""><img src=""images/G_D_S_41_lightshift.png"" alt=""map"" style=""width: 100%;""><img src=""images/R_D_S_28_lightshift.png"" alt=""map"" style=""width: 100%;""><img src=""images/R_L_U_27_darkshift.png"" alt=""map"" style=""width: 100%;""><img src=""images/B_D_U_10_lightshift.png"" alt=""map"" style=""width: 100%;""><img src=""images/G_L_S_33_lightshift.png"" alt=""map"" style=""width: 100%;""><img src=""images/R_L_U_27_lightshift.png"" alt=""map"" style=""width: 100%;""><img src=""images/B_L_S_2_lightshift.png"" alt=""map"" style=""width: 100%;""><img src=""images/Y_L_S_12_darkshift.png"" alt=""map"" style=""width: 100%;""><img src=""images/Y_D_U_23_lightshift.png"" alt=""map"" style=""width: 100%;""><img src=""images/G_D_U_44_darkshift.png"" alt=""map"" style=""width: 100%;""><img src=""images/Y_D_S_15_darkshift.png"" alt=""map"" style=""width: 100%;""><img src=""images/G_D_S_41_darkshift.png"" alt=""map"" style=""width: 100%;""><img src=""images/Y_L_U_13_lightshift.png"" alt=""map"" style=""width: 100%;""><img src=""images/G_L_S_33_darkshift.png"" alt=""map"" style=""width: 100%;""><img src=""images/R_L_S_26_darkshift.png"" alt=""map"" style=""width: 100%;""><img src=""images/B_L_U_5_darkshift.png"" alt=""map"" style=""width: 100%;""><img src=""images/B_D_S_7_lightshift.png"" alt=""map"" style=""width: 100%;"">
                    </div>
                </div>

                    <!-- Clear floats -->
                    <div style=""clear: both;""></div>
                </div>
                            ","0","","0","maps_anchoring.png","true","","","","","","","","","",""
"","","","","","html-button-response","7","79005","0.0-7.0","lcwqgnb7c9","8","1874","<div style=""width:800px;""><p style=""text-align:left"">To move the slider, click and drag your cursor to the location of the scale where you would like to make your rating and then let go. When you let go of the slider, your response will be recorded and the next trial will begin. <br>
                    We are interested in your initial impressions of each map for the given concept, so please go with your first intuition. <br>
                    Before you begin the experiment, there will be four training trials for you to practice using the scale. <br>
                     When you are ready to start the training trials, please click ""Continue"".</p><br></div>","0","","","","","","","","","","","","","",""
"","","","","","html-slider-response","8","81379","0.0-8.0-0.0","lcwqgnb7c9","8","NaN","<div style=""width:500px;"">
                                    <p style=""font-size:25px;"">Please move the slider all the way to the <br> right endpoint of the scale</p>

                                    </div>
                                </div>","200","","0","","true","0","true","","","","","","","",""
"","","","","","html-button-response","9","82996","0.0-8.0-1.0","lcwqgnb7c9","8","1112","<p align='center'><b>Good job!</b> Click on 'Continue' to proceed.</p>","0","","","","","","","","","","","","","",""
"","","","","","html-slider-response","10","84317","0.0-9.0-0.0","lcwqgnb7c9","8","NaN","<div style=""width:500px;"">
                                    <p style=""font-size:25px;"">Please move the slider all the way to the <br> left endpoint of the scale</p>

                                    </div>
                                </div>","-200","","0","","true","1","true","","","","","","","",""
"","","","","","html-button-response","11","85302","0.0-9.0-1.0","lcwqgnb7c9","8","483","<p align='center'><b>Good job!</b> Click on 'Continue' to proceed.</p>","0","","","","","","","","","","","","","",""
"","","","","","html-slider-response","12","88600","0.0-10.0-0.0","lcwqgnb7c9","8","NaN","<div style=""width:500px;"">
                                    <p style=""font-size:25px;"">Please move the slider halfway between the center and right endpoint of the scale</p>

                                    </div>
                                </div>","105","","0","","true","2","true","","","","","","","",""
"","","","","","html-button-response","13","89791","0.0-10.0-1.0","lcwqgnb7c9","8","688","<p align='center'><b>Good job!</b> Click on 'Continue' to proceed.</p>","0","","","","","","","","","","","","","",""
"","","","","","html-slider-response","14","92025","0.0-11.0-0.0","lcwqgnb7c9","8","NaN","<div style=""width:500px;"">
                                    <p style=""font-size:25px;"">Please move the slider halfway between the center and left endpoint of the scale</p>

                                    </div>
                                </div>","-104","","0","","true","3","true","","","","","","","",""
"","","","","","html-button-response","15","93043","0.0-11.0-1.0","lcwqgnb7c9","8","515","<p align='center'><b>Good job!</b> Click on 'Continue' to proceed.</p>","0","","","","","","","","","","","","","",""
"","","","","","html-button-response","16","94564","0.0-12.0","lcwqgnb7c9","8","1519","<p>Great job! You've completed the practice trials. Now you will begin the main task.</p>","0","","","","","","","","","","","","","",""
"","","","","","html-button-response","17","97201","0.0-13.0","lcwqgnb7c9","8","2637","<p>In this block of trials, you will be asked to rate how much you associate each map with:</p > <p style = 'font-size:150%; font-weight: bold'>startling</p><br></br>","0","","","","","","","","","","","","","",""
"","","","","","html-slider-response","18","99665","0.0-14.0","lcwqgnb7c9","8","NaN","<div style=""width:500px;"">
                            <p style=""font-size:50px; font-weight:bold;""
                            >startling</p>
                            <div style=""width:240px; margin: auto;"">
                                <img src=""images/B_D_U_10_lightshift.png"" style= ""width:200px""alt=""img"">
                            </div>
                        </div>","-100","","0","images/B_D_U_10_lightshift.png","","","","startling","1","B","D","U","lightshift","",""
"","","","","","html-slider-response","19","102509","0.0-15.0","lcwqgnb7c9","8","NaN","<div style=""width:500px;"">
                            <p style=""font-size:50px; font-weight:bold;""
                            >startling</p>
                            <div style=""width:240px; margin: auto;"">
                                <img src=""images/B_D_S_7_lightshift.png"" style= ""width:200px""alt=""img"">
                            </div>
                        </div>","32","","0","images/B_D_S_7_lightshift.png","","","","startling","2","B","D","S","lightshift","",""
"","","","","","html-slider-response","20","104961","0.0-16.0","lcwqgnb7c9","8","NaN","<div style=""width:500px;"">
                            <p style=""font-size:50px; font-weight:bold;""
                            >startling</p>
                            <div style=""width:240px; margin: auto;"">
                                <img src=""images/Y_L_U_13_lightshift.png"" style= ""width:200px""alt=""img"">
                            </div>
                        </div>","62","","0","images/Y_L_U_13_lightshift.png","","","","startling","2","Y","L","U","lightshift","",""
"","","","","","html-slider-response","21","107068","0.0-17.0","lcwqgnb7c9","8","NaN","<div style=""width:500px;"">
                            <p style=""font-size:50px; font-weight:bold;""
                            >startling</p>
                            <div style=""width:240px; margin: auto;"">
                                <img src=""images/G_D_U_44_lightshift.png"" style= ""width:200px""alt=""img"">
                            </div>
                        </div>","-37","","0","images/G_D_U_44_lightshift.png","","","","startling","2","G","D","U","lightshift","",""
"","","","","","html-slider-response","22","109244","0.0-18.0","lcwqgnb7c9","8","NaN","<div style=""width:500px;"">
                            <p style=""font-size:50px; font-weight:bold;""
                            >startling</p>
                            <div style=""width:240px; margin: auto;"">
                                <img src=""images/G_D_U_44_darkshift.png"" style= ""width:200px""alt=""img"">
                            </div>
                        </div>","38","","0","images/G_D_U_44_darkshift.png","","","","startling","2","G","D","U","darkshift","",""
"","","","","","html-slider-response","23","111087","0.0-19.0","lcwqgnb7c9","8","NaN","<div style=""width:500px;"">
                            <p style=""font-size:50px; font-weight:bold;""
                            >startling</p>
                            <div style=""width:240px; margin: auto;"">
                                <img src=""images/B_D_S_7_lightshift.png"" style= ""width:200px""alt=""img"">
                            </div>
                        </div>","87","","0","images/B_D_S_7_lightshift.png","","","","startling","1","B","D","S","lightshift","",""
"","","","","","html-slider-response","24","114223","0.0-20.0","lcwqgnb7c9","8","NaN","<div style=""width:500px;"">
                            <p style=""font-size:50px; font-weight:bold;""
                            >startling</p>
                            <div style=""width:240px; margin: auto;"">
                                <img src=""images/Y_D_U_23_lightshift.png"" style= ""width:200px""alt=""img"">
                            </div>
                        </div>","62","","0","images/Y_D_U_23_lightshift.png","","","","startling","1","Y","D","U","lightshift","",""
"","","","","","html-slider-response","25","116610","0.0-21.0","lcwqgnb7c9","8","NaN","<div style=""width:500px;"">
                            <p style=""font-size:50px; font-weight:bold;""
                            >startling</p>
                            <div style=""width:240px; margin: auto;"">
                                <img src=""images/G_L_S_33_darkshift.png"" style= ""width:200px""alt=""img"">
                            </div>
                        </div>","104","","0","images/G_L_S_33_darkshift.png","","","","startling","2","G","L","S","darkshift","",""
"","","","","","html-slider-response","26","118316","0.0-22.0","lcwqgnb7c9","8","NaN","<div style=""width:500px;"">
                            <p style=""font-size:50px; font-weight:bold;""
                            >startling</p>
                            <div style=""width:240px; margin: auto;"">
                                <img src=""images/R_L_S_26_darkshift.png"" style= ""width:200px""alt=""img"">
                            </div>
                        </div>","160","","0","images/R_L_S_26_darkshift.png","","","","startling","2","R","L","S","darkshift","",""
"","","","","","html-slider-response","27","120260","0.0-23.0","lcwqgnb7c9","8","NaN","<div style=""width:500px;"">
                            <p style=""font-size:50px; font-weight:bold;""
                            >startling</p>
                            <div style=""width:240px; margin: auto;"">
                                <img src=""images/R_D_S_28_darkshift.png"" style= ""width:200px""alt=""img"">
                            </div>
                        </div>","120","","0","images/R_D_S_28_darkshift.png","","","","startling","1","R","D","S","darkshift","",""
"","","","","","html-slider-response","28","122119","0.0-24.0","lcwqgnb7c9","8","NaN","<div style=""width:500px;"">
                            <p style=""font-size:50px; font-weight:bold;""
                            >startling</p>
                            <div style=""width:240px; margin: auto;"">
                                <img src=""images/R_D_U_30_lightshift.png"" style= ""width:200px""alt=""img"">
                            </div>
                        </div>","53","","0","images/R_D_U_30_lightshift.png","","","","startling","2","R","D","U","lightshift","",""
"","","","","","html-slider-response","29","124102","0.0-25.0","lcwqgnb7c9","8","NaN","<div style=""width:500px;"">
                            <p style=""font-size:50px; font-weight:bold;""
                            >startling</p>
                            <div style=""width:240px; margin: auto;"">
                                <img src=""images/Y_D_U_23_lightshift.png"" style= ""width:200px""alt=""img"">
                            </div>
                        </div>","56","","0","images/Y_D_U_23_lightshift.png","","","","startling","2","Y","D","U","lightshift","",""
"","","","","","html-slider-response","30","127826","0.0-26.0","lcwqgnb7c9","8","NaN","<div style=""width:500px;"">
                            <p style=""font-size:50px; font-weight:bold;""
                            >startling</p>
                            <div style=""width:240px; margin: auto;"">
                                <img src=""images/B_L_U_5_lightshift.png"" style= ""width:200px""alt=""img"">
                            </div>
                        </div>","-90","","0","images/B_L_U_5_lightshift.png","","","","startling","1","B","L","U","lightshift","",""
"","","","","","html-slider-response","31","129608","0.0-27.0","lcwqgnb7c9","8","NaN","<div style=""width:500px;"">
                            <p style=""font-size:50px; font-weight:bold;""
                            >startling</p>
                            <div style=""width:240px; margin: auto;"">
                                <img src=""images/G_L_S_33_lightshift.png"" style= ""width:200px""alt=""img"">
                            </div>
                        </div>","51","","0","images/G_L_S_33_lightshift.png","","","","startling","1","G","L","S","lightshift","",""
"","","","","","html-slider-response","32","131574","0.0-28.0","lcwqgnb7c9","8","NaN","<div style=""width:500px;"">
                            <p style=""font-size:50px; font-weight:bold;""
                            >startling</p>
                            <div style=""width:240px; margin: auto;"">
                                <img src=""images/R_L_S_26_lightshift.png"" style= ""width:200px""alt=""img"">
                            </div>
                        </div>","-42","","0","images/R_L_S_26_lightshift.png","","","","startling","2","R","L","S","lightshift","",""
"","","","","","html-slider-response","33","133285","0.0-29.0","lcwqgnb7c9","8","NaN","<div style=""width:500px;"">
                            <p style=""font-size:50px; font-weight:bold;""
                            >startling</p>
                            <div style=""width:240px; margin: auto;"">
                                <img src=""images/B_L_S_2_lightshift.png"" style= ""width:200px""alt=""img"">
                            </div>
                        </div>","-94","","0","images/B_L_S_2_lightshift.png","","","","startling","2","B","L","S","lightshift","",""
"","","","","","html-slider-response","34","136440","0.0-30.0","lcwqgnb7c9","8","NaN","<div style=""width:500px;"">
                            <p style=""font-size:50px; font-weight:bold;""
                            >startling</p>
                            <div style=""width:240px; margin: auto;"">
                                <img src=""images/B_L_U_5_darkshift.png"" style= ""width:200px""alt=""img"">
                            </div>
                        </div>","-200","","0","images/B_L_U_5_darkshift.png","","","","startling","1","B","L","U","darkshift","",""
"","","","","","html-slider-response","35","139099","0.0-31.0","lcwqgnb7c9","8","NaN","<div style=""width:500px;"">
                            <p style=""font-size:50px; font-weight:bold;""
                            >startling</p>
                            <div style=""width:240px; margin: auto;"">
                                <img src=""images/Y_L_S_12_lightshift.png"" style= ""width:200px""alt=""img"">
                            </div>
                        </div>","17","","0","images/Y_L_S_12_lightshift.png","","","","startling","2","Y","L","S","lightshift","",""
"","","","","","html-slider-response","36","141060","0.0-32.0","lcwqgnb7c9","8","NaN","<div style=""width:500px;"">
                            <p style=""font-size:50px; font-weight:bold;""
                            >startling</p>
                            <div style=""width:240px; margin: auto;"">
                                <img src=""images/B_D_U_10_darkshift.png"" style= ""width:200px""alt=""img"">
                            </div>
                        </div>","-18","","0","images/B_D_U_10_darkshift.png","","","","startling","1","B","D","U","darkshift","",""
"","","","","","html-slider-response","37","142747","0.0-33.0","lcwqgnb7c9","8","NaN","<div style=""width:500px;"">
                            <p style=""font-size:50px; font-weight:bold;""
                            >startling</p>
                            <div style=""width:240px; margin: auto;"">
                                <img src=""images/G_D_S_41_lightshift.png"" style= ""width:200px""alt=""img"">
                            </div>
                        </div>","53","","0","images/G_D_S_41_lightshift.png","","","","startling","1","G","D","S","lightshift","",""
"","","","","","html-slider-response","38","146222","0.0-34.0","lcwqgnb7c9","8","NaN","<div style=""width:500px;"">
                            <p style=""font-size:50px; font-weight:bold;""
                            >startling</p>
                            <div style=""width:240px; margin: auto;"">
                                <img src=""images/Y_D_S_15_darkshift.png"" style= ""width:200px""alt=""img"">
                            </div>
                        </div>","-23","","0","images/Y_D_S_15_darkshift.png","","","","startling","2","Y","D","S","darkshift","",""
"","","","","","html-slider-response","39","148801","0.0-35.0","lcwqgnb7c9","8","NaN","<div style=""width:500px;"">
                            <p style=""font-size:50px; font-weight:bold;""
                            >startling</p>
                            <div style=""width:240px; margin: auto;"">
                                <img src=""images/G_L_U_37_lightshift.png"" style= ""width:200px""alt=""img"">
                            </div>
                        </div>","62","","0","images/G_L_U_37_lightshift.png","","","","startling","1","G","L","U","lightshift","",""
"","","","","","html-slider-response","40","150314","0.0-36.0","lcwqgnb7c9","8","NaN","<div style=""width:500px;"">
                            <p style=""font-size:50px; font-weight:bold;""
                            >startling</p>
                            <div style=""width:240px; margin: auto;"">
                                <img src=""images/G_L_S_33_lightshift.png"" style= ""width:200px""alt=""img"">
                            </div>
                        </div>","78","","0","images/G_L_S_33_lightshift.png","","","","startling","2","G","L","S","lightshift","",""
"","","","","","html-slider-response","41","152126","0.0-37.0","lcwqgnb7c9","8","NaN","<div style=""width:500px;"">
                            <p style=""font-size:50px; font-weight:bold;""
                            >startling</p>
                            <div style=""width:240px; margin: auto;"">
                                <img src=""images/B_L_U_5_darkshift.png"" style= ""width:200px""alt=""img"">
                            </div>
                        </div>","-200","","0","images/B_L_U_5_darkshift.png","","","","startling","2","B","L","U","darkshift","",""
"","","","","","html-slider-response","42","153700","0.0-38.0","lcwqgnb7c9","8","NaN","<div style=""width:500px;"">
                            <p style=""font-size:50px; font-weight:bold;""
                            >startling</p>
                            <div style=""width:240px; margin: auto;"">
                                <img src=""images/R_L_U_27_lightshift.png"" style= ""width:200px""alt=""img"">
                            </div>
                        </div>","66","","0","images/R_L_U_27_lightshift.png","","","","startling","2","R","L","U","lightshift","",""
"","","","","","html-slider-response","43","155430","0.0-39.0","lcwqgnb7c9","8","NaN","<div style=""width:500px;"">
                            <p style=""font-size:50px; font-weight:bold;""
                            >startling</p>
                            <div style=""width:240px; margin: auto;"">
                                <img src=""images/Y_D_S_15_lightshift.png"" style= ""width:200px""alt=""img"">
                            </div>
                        </div>","38","","0","images/Y_D_S_15_lightshift.png","","","","startling","1","Y","D","S","lightshift","",""
"","","","","","html-slider-response","44","157159","0.0-40.0","lcwqgnb7c9","8","NaN","<div style=""width:500px;"">
                            <p style=""font-size:50px; font-weight:bold;""
                            >startling</p>
                            <div style=""width:240px; margin: auto;"">
                                <img src=""images/B_D_U_10_lightshift.png"" style= ""width:200px""alt=""img"">
                            </div>
                        </div>","-86","","0","images/B_D_U_10_lightshift.png","","","","startling","2","B","D","U","lightshift","",""
"","","","","","html-slider-response","45","159193","0.0-41.0","lcwqgnb7c9","8","NaN","<div style=""width:500px;"">
                            <p style=""font-size:50px; font-weight:bold;""
                            >startling</p>
                            <div style=""width:240px; margin: auto;"">
                                <img src=""images/R_D_S_28_lightshift.png"" style= ""width:200px""alt=""img"">
                            </div>
                        </div>","38","","0","images/R_D_S_28_lightshift.png","","","","startling","2","R","D","S","lightshift","",""
"","","","","","html-slider-response","46","160701","0.0-42.0","lcwqgnb7c9","8","NaN","<div style=""width:500px;"">
                            <p style=""font-size:50px; font-weight:bold;""
                            >startling</p>
                            <div style=""width:240px; margin: auto;"">
                                <img src=""images/R_D_S_28_lightshift.png"" style= ""width:200px""alt=""img"">
                            </div>
                        </div>","31","","0","images/R_D_S_28_lightshift.png","","","","startling","1","R","D","S","lightshift","",""
"","","","","","html-slider-response","47","162273","0.0-43.0","lcwqgnb7c9","8","NaN","<div style=""width:500px;"">
                            <p style=""font-size:50px; font-weight:bold;""
                            >startling</p>
                            <div style=""width:240px; margin: auto;"">
                                <img src=""images/G_D_U_44_darkshift.png"" style= ""width:200px""alt=""img"">
                            </div>
                        </div>","-38","","0","images/G_D_U_44_darkshift.png","","","","startling","1","G","D","U","darkshift","",""
"","","","","","html-slider-response","48","163985","0.0-44.0","lcwqgnb7c9","8","NaN","<div style=""width:500px;"">
                            <p style=""font-size:50px; font-weight:bold;""
                            >startling</p>
                            <div style=""width:240px; margin: auto;"">
                                <img src=""images/G_D_U_44_lightshift.png"" style= ""width:200px""alt=""img"">
                            </div>
                        </div>","68","","0","images/G_D_U_44_lightshift.png","","","","startling","1","G","D","U","lightshift","",""
"","","","","","html-slider-response","49","166141","0.0-45.0","lcwqgnb7c9","8","NaN","<div style=""width:500px;"">
                            <p style=""font-size:50px; font-weight:bold;""
                            >startling</p>
                            <div style=""width:240px; margin: auto;"">
                                <img src=""images/B_L_S_2_darkshift.png"" style= ""width:200px""alt=""img"">
                            </div>
                        </div>","-64","","0","images/B_L_S_2_darkshift.png","","","","startling","1","B","L","S","darkshift","",""
"","","","","","html-slider-response","50","167898","0.0-46.0","lcwqgnb7c9","8","NaN","<div style=""width:500px;"">
                            <p style=""font-size:50px; font-weight:bold;""
                            >startling</p>
                            <div style=""width:240px; margin: auto;"">
                                <img src=""images/R_L_U_27_darkshift.png"" style= ""width:200px""alt=""img"">
                            </div>
                        </div>","150","","0","images/R_L_U_27_darkshift.png","","","","startling","1","R","L","U","darkshift","",""
"","","","","","html-slider-response","51","169677","0.0-47.0","lcwqgnb7c9","8","NaN","<div style=""width:500px;"">
                            <p style=""font-size:50px; font-weight:bold;""
                            >startling</p>
                            <div style=""width:240px; margin: auto;"">
                                <img src=""images/G_D_S_41_lightshift.png"" style= ""width:200px""alt=""img"">
                            </div>
                        </div>","50","","0","images/G_D_S_41_lightshift.png","","","","startling","2","G","D","S","lightshift","",""
"","","","","","html-slider-response","52","171317","0.0-48.0","lcwqgnb7c9","8","NaN","<div style=""width:500px;"">
                            <p style=""font-size:50px; font-weight:bold;""
                            >startling</p>
                            <div style=""width:240px; margin: auto;"">
                                <img src=""images/Y_L_S_12_darkshift.png"" style= ""width:200px""alt=""img"">
                            </div>
                        </div>","190","","0","images/Y_L_S_12_darkshift.png","","","","startling","1","Y","L","S","darkshift","",""
"","","","","","html-slider-response","53","173852","0.0-49.0","lcwqgnb7c9","8","NaN","<div style=""width:500px;"">
                            <p style=""font-size:50px; font-weight:bold;""
                            >startling</p>
                            <div style=""width:240px; margin: auto;"">
                                <img src=""images/Y_D_U_23_darkshift.png"" style= ""width:200px""alt=""img"">
                            </div>
                        </div>","-200","","0","images/Y_D_U_23_darkshift.png","","","","startling","2","Y","D","U","darkshift","",""
"","","","","","html-slider-response","54","176239","0.0-50.0","lcwqgnb7c9","8","NaN","<div style=""width:500px;"">
                            <p style=""font-size:50px; font-weight:bold;""
                            >startling</p>
                            <div style=""width:240px; margin: auto;"">
                                <img src=""images/G_D_S_41_darkshift.png"" style= ""width:200px""alt=""img"">
                            </div>
                        </div>","62","","0","images/G_D_S_41_darkshift.png","","","","startling","2","G","D","S","darkshift","",""
"","","","","","html-slider-response","55","177757","0.0-51.0","lcwqgnb7c9","8","NaN","<div style=""width:500px;"">
                            <p style=""font-size:50px; font-weight:bold;""
                            >startling</p>
                            <div style=""width:240px; margin: auto;"">
                                <img src=""images/B_D_S_7_darkshift.png"" style= ""width:200px""alt=""img"">
                            </div>
                        </div>","-88","","0","images/B_D_S_7_darkshift.png","","","","startling","2","B","D","S","darkshift","",""
"","","","","","html-slider-response","56","179230","0.0-52.0","lcwqgnb7c9","8","NaN","<div style=""width:500px;"">
                            <p style=""font-size:50px; font-weight:bold;""
                            >startling</p>
                            <div style=""width:240px; margin: auto;"">
                                <img src=""images/B_D_U_10_darkshift.png"" style= ""width:200px""alt=""img"">
                            </div>
                        </div>","-44","","0","images/B_D_U_10_darkshift.png","","","","startling","2","B","D","U","darkshift","",""
"","","","","","html-slider-response","57","181173","0.0-53.0","lcwqgnb7c9","8","NaN","<div style=""width:500px;"">
                            <p style=""font-size:50px; font-weight:bold;""
                            >startling</p>
                            <div style=""width:240px; margin: auto;"">
                                <img src=""images/B_L_U_5_lightshift.png"" style= ""width:200px""alt=""img"">
                            </div>
                        </div>","57","","0","images/B_L_U_5_lightshift.png","","","","startling","2","B","L","U","lightshift","",""
"","","","","","html-slider-response","58","182771","0.0-54.0","lcwqgnb7c9","8","NaN","<div style=""width:500px;"">
                            <p style=""font-size:50px; font-weight:bold;""
                            >startling</p>
                            <div style=""width:240px; margin: auto;"">
                                <img src=""images/B_L_S_2_darkshift.png"" style= ""width:200px""alt=""img"">
                            </div>
                        </div>","28","","0","images/B_L_S_2_darkshift.png","","","","startling","2","B","L","S","darkshift","",""
"","","","","","html-slider-response","59","184343","0.0-55.0","lcwqgnb7c9","8","NaN","<div style=""width:500px;"">
                            <p style=""font-size:50px; font-weight:bold;""
                            >startling</p>
                            <div style=""width:240px; margin: auto;"">
                                <img src=""images/G_L_S_33_darkshift.png"" style= ""width:200px""alt=""img"">
                            </div>
                        </div>","18","","0","images/G_L_S_33_darkshift.png","","","","startling","1","G","L","S","darkshift","",""
"","","","","","html-slider-response","60","185990","0.0-56.0","lcwqgnb7c9","8","NaN","<div style=""width:500px;"">
                            <p style=""font-size:50px; font-weight:bold;""
                            >startling</p>
                            <div style=""width:240px; margin: auto;"">
                                <img src=""images/R_L_S_26_lightshift.png"" style= ""width:200px""alt=""img"">
                            </div>
                        </div>","-22","","0","images/R_L_S_26_lightshift.png","","","","startling","1","R","L","S","lightshift","",""
"","","","","","html-slider-response","61","187744","0.0-57.0","lcwqgnb7c9","8","NaN","<div style=""width:500px;"">
                            <p style=""font-size:50px; font-weight:bold;""
                            >startling</p>
                            <div style=""width:240px; margin: auto;"">
                                <img src=""images/R_L_U_27_lightshift.png"" style= ""width:200px""alt=""img"">
                            </div>
                        </div>","58","","0","images/R_L_U_27_lightshift.png","","","","startling","1","R","L","U","lightshift","",""
"","","","","","html-slider-response","62","189104","0.0-58.0","lcwqgnb7c9","8","NaN","<div style=""width:500px;"">
                            <p style=""font-size:50px; font-weight:bold;""
                            >startling</p>
                            <div style=""width:240px; margin: auto;"">
                                <img src=""images/R_D_U_30_lightshift.png"" style= ""width:200px""alt=""img"">
                            </div>
                        </div>","98","","0","images/R_D_U_30_lightshift.png","","","","startling","1","R","D","U","lightshift","",""
"","","","","","html-slider-response","63","190578","0.0-59.0","lcwqgnb7c9","8","NaN","<div style=""width:500px;"">
                            <p style=""font-size:50px; font-weight:bold;""
                            >startling</p>
                            <div style=""width:240px; margin: auto;"">
                                <img src=""images/G_L_U_37_darkshift.png"" style= ""width:200px""alt=""img"">
                            </div>
                        </div>","-36","","0","images/G_L_U_37_darkshift.png","","","","startling","1","G","L","U","darkshift","",""
"","","","","","html-slider-response","64","192050","0.0-60.0","lcwqgnb7c9","8","NaN","<div style=""width:500px;"">
                            <p style=""font-size:50px; font-weight:bold;""
                            >startling</p>
                            <div style=""width:240px; margin: auto;"">
                                <img src=""images/R_D_S_28_darkshift.png"" style= ""width:200px""alt=""img"">
                            </div>
                        </div>","38","","0","images/R_D_S_28_darkshift.png","","","","startling","2","R","D","S","darkshift","",""
"","","","","","html-slider-response","65","193491","0.0-61.0","lcwqgnb7c9","8","NaN","<div style=""width:500px;"">
                            <p style=""font-size:50px; font-weight:bold;""
                            >startling</p>
                            <div style=""width:240px; margin: auto;"">
                                <img src=""images/B_L_S_2_lightshift.png"" style= ""width:200px""alt=""img"">
                            </div>
                        </div>","-72","","0","images/B_L_S_2_lightshift.png","","","","startling","1","B","L","S","lightshift","",""
"","","","","","html-slider-response","66","195024","0.0-62.0","lcwqgnb7c9","8","NaN","<div style=""width:500px;"">
                            <p style=""font-size:50px; font-weight:bold;""
                            >startling</p>
                            <div style=""width:240px; margin: auto;"">
                                <img src=""images/Y_D_S_15_darkshift.png"" style= ""width:200px""alt=""img"">
                            </div>
                        </div>","-81","","0","images/Y_D_S_15_darkshift.png","","","","startling","1","Y","D","S","darkshift","",""
"","","","","","html-slider-response","67","196489","0.0-63.0","lcwqgnb7c9","8","NaN","<div style=""width:500px;"">
                            <p style=""font-size:50px; font-weight:bold;""
                            >startling</p>
                            <div style=""width:240px; margin: auto;"">
                                <img src=""images/Y_L_S_12_lightshift.png"" style= ""width:200px""alt=""img"">
                            </div>
                        </div>","56","","0","images/Y_L_S_12_lightshift.png","","","","startling","1","Y","L","S","lightshift","",""
"","","","","","html-slider-response","68","198169","0.0-64.0","lcwqgnb7c9","8","NaN","<div style=""width:500px;"">
                            <p style=""font-size:50px; font-weight:bold;""
                            >startling</p>
                            <div style=""width:240px; margin: auto;"">
                                <img src=""images/Y_L_U_13_darkshift.png"" style= ""width:200px""alt=""img"">
                            </div>
                        </div>","100","","0","images/Y_L_U_13_darkshift.png","","","","startling","1","Y","L","U","darkshift","",""
"","","","","","html-slider-response","69","200376","0.0-65.0","lcwqgnb7c9","8","NaN","<div style=""width:500px;"">
                            <p style=""font-size:50px; font-weight:bold;""
                            >startling</p>
                            <div style=""width:240px; margin: auto;"">
                                <img src=""images/R_D_U_30_darkshift.png"" style= ""width:200px""alt=""img"">
                            </div>
                        </div>","-80","","0","images/R_D_U_30_darkshift.png","","","","startling","2","R","D","U","darkshift","",""
"","","","","","html-slider-response","70","201932","0.0-66.0","lcwqgnb7c9","8","NaN","<div style=""width:500px;"">
                            <p style=""font-size:50px; font-weight:bold;""
                            >startling</p>
                            <div style=""width:240px; margin: auto;"">
                                <img src=""images/G_D_S_41_darkshift.png"" style= ""width:200px""alt=""img"">
                            </div>
                        </div>","-37","","0","images/G_D_S_41_darkshift.png","","","","startling","1","G","D","S","darkshift","",""
"","","","","","html-slider-response","71","203351","0.0-67.0","lcwqgnb7c9","8","NaN","<div style=""width:500px;"">
                            <p style=""font-size:50px; font-weight:bold;""
                            >startling</p>
                            <div style=""width:240px; margin: auto;"">
                                <img src=""images/Y_L_U_13_darkshift.png"" style= ""width:200px""alt=""img"">
                            </div>
                        </div>","93","","0","images/Y_L_U_13_darkshift.png","","","","startling","2","Y","L","U","darkshift","",""
"","","","","","html-slider-response","72","204768","0.0-68.0","lcwqgnb7c9","8","NaN","<div style=""width:500px;"">
                            <p style=""font-size:50px; font-weight:bold;""
                            >startling</p>
                            <div style=""width:240px; margin: auto;"">
                                <img src=""images/R_L_S_26_darkshift.png"" style= ""width:200px""alt=""img"">
                            </div>
                        </div>","80","","0","images/R_L_S_26_darkshift.png","","","","startling","1","R","L","S","darkshift","",""
"","","","","","html-slider-response","73","206341","0.0-69.0","lcwqgnb7c9","8","NaN","<div style=""width:500px;"">
                            <p style=""font-size:50px; font-weight:bold;""
                            >startling</p>
                            <div style=""width:240px; margin: auto;"">
                                <img src=""images/R_D_U_30_darkshift.png"" style= ""width:200px""alt=""img"">
                            </div>
                        </div>","178","","0","images/R_D_U_30_darkshift.png","","","","startling","1","R","D","U","darkshift","",""
"","","","","","html-slider-response","74","207656","0.0-70.0","lcwqgnb7c9","8","NaN","<div style=""width:500px;"">
                            <p style=""font-size:50px; font-weight:bold;""
                            >startling</p>
                            <div style=""width:240px; margin: auto;"">
                                <img src=""images/R_L_U_27_darkshift.png"" style= ""width:200px""alt=""img"">
                            </div>
                        </div>","-51","","0","images/R_L_U_27_darkshift.png","","","","startling","2","R","L","U","darkshift","",""
"","","","","","html-slider-response","75","209049","0.0-71.0","lcwqgnb7c9","8","NaN","<div style=""width:500px;"">
                            <p style=""font-size:50px; font-weight:bold;""
                            >startling</p>
                            <div style=""width:240px; margin: auto;"">
                                <img src=""images/G_L_U_37_darkshift.png"" style= ""width:200px""alt=""img"">
                            </div>
                        </div>","65","","0","images/G_L_U_37_darkshift.png","","","","startling","2","G","L","U","darkshift","",""
"","","","","","html-slider-response","76","210178","0.0-72.0","lcwqgnb7c9","8","NaN","<div style=""width:500px;"">
                            <p style=""font-size:50px; font-weight:bold;""
                            >startling</p>
                            <div style=""width:240px; margin: auto;"">
                                <img src=""images/Y_D_U_23_darkshift.png"" style= ""width:200px""alt=""img"">
                            </div>
                        </div>","-30","","0","images/Y_D_U_23_darkshift.png","","","","startling","1","Y","D","U","darkshift","",""
"","","","","","html-slider-response","77","211650","0.0-73.0","lcwqgnb7c9","8","NaN","<div style=""width:500px;"">
                            <p style=""font-size:50px; font-weight:bold;""
                            >startling</p>
                            <div style=""width:240px; margin: auto;"">
                                <img src=""images/Y_D_S_15_lightshift.png"" style= ""width:200px""alt=""img"">
                            </div>
                        </div>","-200","","0","images/Y_D_S_15_lightshift.png","","","","startling","2","Y","D","S","lightshift","",""
"","","","","","html-slider-response","78","213141","0.0-74.0","lcwqgnb7c9","8","NaN","<div style=""width:500px;"">
                            <p style=""font-size:50px; font-weight:bold;""
                            >startling</p>
                            <div style=""width:240px; margin: auto;"">
                                <img src=""images/Y_L_S_12_darkshift.png"" style= ""width:200px""alt=""img"">
                            </div>
                        </div>","-22","","0","images/Y_L_S_12_darkshift.png","","","","startling","2","Y","L","S","darkshift","",""
"","","","","","html-slider-response","79","214491","0.0-75.0","lcwqgnb7c9","8","NaN","<div style=""width:500px;"">
                            <p style=""font-size:50px; font-weight:bold;""
                            >startling</p>
                            <div style=""width:240px; margin: auto;"">
                                <img src=""images/B_D_S_7_darkshift.png"" style= ""width:200px""alt=""img"">
                            </div>
                        </div>","63","","0","images/B_D_S_7_darkshift.png","","","","startling","1","B","D","S","darkshift","",""
"","","","","","html-slider-response","80","215973","0.0-76.0","lcwqgnb7c9","8","NaN","<div style=""width:500px;"">
                            <p style=""font-size:50px; font-weight:bold;""
                            >startling</p>
                            <div style=""width:240px; margin: auto;"">
                                <img src=""images/G_L_U_37_lightshift.png"" style= ""width:200px""alt=""img"">
                            </div>
                        </div>","-153","","0","images/G_L_U_37_lightshift.png","","","","startling","2","G","L","U","lightshift","",""
"","","","","","html-slider-response","81","218008","0.0-77.0","lcwqgnb7c9","8","NaN","<div style=""width:500px;"">
                            <p style=""font-size:50px; font-weight:bold;""
                            >startling</p>
                            <div style=""width:240px; margin: auto;"">
                                <img src=""images/Y_L_U_13_lightshift.png"" style= ""width:200px""alt=""img"">
                            </div>
                        </div>","-184","","0","images/Y_L_U_13_lightshift.png","","","","startling","1","Y","L","U","lightshift","",""
"","","","","","html-button-response","82","220064","0.0-78.0","lcwqgnb7c9","8","1553","<p>Great Job! You've finished block 1.<br></br> You have 3 block(s) left to go.<br></br></p>","0","","","","","","","","","","","","","",""
"","","","","","html-button-response","83","221011","0.0-79.0","lcwqgnb7c9","8","947","<p>In this block of trials, you will be asked to rate how much you associate each map with:</p > <p style = 'font-size:150%; font-weight: bold'>positive</p><br></br>","0","","","","","","","","","","","","","",""
"","","","","","html-slider-response","84","222265","0.0-80.0","lcwqgnb7c9","8","NaN","<div style=""width:500px;"">
                            <p style=""font-size:50px; font-weight:bold;""
                            >positive</p>
                            <div style=""width:240px; margin: auto;"">
                                <img src=""images/G_D_U_44_darkshift.png"" style= ""width:200px""alt=""img"">
                            </div>
                        </div>","-125","","0","images/G_D_U_44_darkshift.png","","","","positive","2","G","D","U","darkshift","",""
"","","","","","html-slider-response","85","224525","0.0-81.0","lcwqgnb7c9","8","NaN","<div style=""width:500px;"">
                            <p style=""font-size:50px; font-weight:bold;""
                            >positive</p>
                            <div style=""width:240px; margin: auto;"">
                                <img src=""images/B_L_S_2_darkshift.png"" style= ""width:200px""alt=""img"">
                            </div>
                        </div>","55","","0","images/B_L_S_2_darkshift.png","","","","positive","1","B","L","S","darkshift","",""
"","","","","","html-slider-response","86","227008","0.0-82.0","lcwqgnb7c9","8","NaN","<div style=""width:500px;"">
                            <p style=""font-size:50px; font-weight:bold;""
                            >positive</p>
                            <div style=""width:240px; margin: auto;"">
                                <img src=""images/G_L_S_33_lightshift.png"" style= ""width:200px""alt=""img"">
                            </div>
                        </div>","11","","0","images/G_L_S_33_lightshift.png","","","","positive","1","G","L","S","lightshift","",""
"","","","","","html-slider-response","87","228854","0.0-83.0","lcwqgnb7c9","8","NaN","<div style=""width:500px;"">
                            <p style=""font-size:50px; font-weight:bold;""
                            >positive</p>
                            <div style=""width:240px; margin: auto;"">
                                <img src=""images/G_L_U_37_darkshift.png"" style= ""width:200px""alt=""img"">
                            </div>
                        </div>","-29","","0","images/G_L_U_37_darkshift.png","","","","positive","1","G","L","U","darkshift","",""
"","","","","","html-slider-response","88","232493","0.0-84.0","lcwqgnb7c9","8","NaN","<div style=""width:500px;"">
                            <p style=""font-size:50px; font-weight:bold;""
                            >positive</p>
                            <div style=""width:240px; margin: auto;"">
                                <img src=""images/Y_L_U_13_lightshift.png"" style= ""width:200px""alt=""img"">
                            </div>
                        </div>","-41","","0","images/Y_L_U_13_lightshift.png","","","","positive","2","Y","L","U","lightshift","",""
"","","","","","html-slider-response","89","234066","0.0-85.0","lcwqgnb7c9","8","NaN","<div style=""width:500px;"">
                            <p style=""font-size:50px; font-weight:bold;""
                            >positive</p>
                            <div style=""width:240px; margin: auto;"">
                                <img src=""images/R_L_S_26_darkshift.png"" style= ""width:200px""alt=""img"">
                            </div>
                        </div>","200","","0","images/R_L_S_26_darkshift.png","","","","positive","1","R","L","S","darkshift","",""
"","","","","","html-slider-response","90","235778","0.0-86.0","lcwqgnb7c9","8","NaN","<div style=""width:500px;"">
                            <p style=""font-size:50px; font-weight:bold;""
                            >positive</p>
                            <div style=""width:240px; margin: auto;"">
                                <img src=""images/B_L_S_2_darkshift.png"" style= ""width:200px""alt=""img"">
                            </div>
                        </div>","43","","0","images/B_L_S_2_darkshift.png","","","","positive","2","B","L","S","darkshift","",""
"","","","","","html-slider-response","91","237227","0.0-87.0","lcwqgnb7c9","8","NaN","<div style=""width:500px;"">
                            <p style=""font-size:50px; font-weight:bold;""
                            >positive</p>
                            <div style=""width:240px; margin: auto;"">
                                <img src=""images/Y_D_U_23_darkshift.png"" style= ""width:200px""alt=""img"">
                            </div>
                        </div>","-200","","0","images/Y_D_U_23_darkshift.png","","","","positive","1","Y","D","U","darkshift","",""
"","","","","","html-slider-response","92","239064","0.0-88.0","lcwqgnb7c9","8","NaN","<div style=""width:500px;"">
                            <p style=""font-size:50px; font-weight:bold;""
                            >positive</p>
                            <div style=""width:240px; margin: auto;"">
                                <img src=""images/R_L_S_26_lightshift.png"" style= ""width:200px""alt=""img"">
                            </div>
                        </div>","84","","0","images/R_L_S_26_lightshift.png","","","","positive","2","R","L","S","lightshift","",""
"","","","","","html-slider-response","93","240686","0.0-89.0","lcwqgnb7c9","8","NaN","<div style=""width:500px;"">
                            <p style=""font-size:50px; font-weight:bold;""
                            >positive</p>
                            <div style=""width:240px; margin: auto;"">
                                <img src=""images/B_D_U_10_darkshift.png"" style= ""width:200px""alt=""img"">
                            </div>
                        </div>","-53","","0","images/B_D_U_10_darkshift.png","","","","positive","2","B","D","U","darkshift","",""
"","","","","","html-slider-response","94","242984","0.0-90.0","lcwqgnb7c9","8","NaN","<div style=""width:500px;"">
                            <p style=""font-size:50px; font-weight:bold;""
                            >positive</p>
                            <div style=""width:240px; margin: auto;"">
                                <img src=""images/B_D_S_7_lightshift.png"" style= ""width:200px""alt=""img"">
                            </div>
                        </div>","-58","","0","images/B_D_S_7_lightshift.png","","","","positive","2","B","D","S","lightshift","",""
"","","","","","html-slider-response","95","247488","0.0-91.0","lcwqgnb7c9","8","NaN","<div style=""width:500px;"">
                            <p style=""font-size:50px; font-weight:bold;""
                            >positive</p>
                            <div style=""width:240px; margin: auto;"">
                                <img src=""images/G_L_S_33_darkshift.png"" style= ""width:200px""alt=""img"">
                            </div>
                        </div>","-1","","0","images/G_L_S_33_darkshift.png","","","","positive","1","G","L","S","darkshift","",""
"","","","","","html-slider-response","96","250964","0.0-92.0","lcwqgnb7c9","8","NaN","<div style=""width:500px;"">
                            <p style=""font-size:50px; font-weight:bold;""
                            >positive</p>
                            <div style=""width:240px; margin: auto;"">
                                <img src=""images/R_D_S_28_lightshift.png"" style= ""width:200px""alt=""img"">
                            </div>
                        </div>","49","","0","images/R_D_S_28_lightshift.png","","","","positive","1","R","D","S","lightshift","",""
"","","","","","html-slider-response","97","252460","0.0-93.0","lcwqgnb7c9","8","NaN","<div style=""width:500px;"">
                            <p style=""font-size:50px; font-weight:bold;""
                            >positive</p>
                            <div style=""width:240px; margin: auto;"">
                                <img src=""images/B_D_U_10_darkshift.png"" style= ""width:200px""alt=""img"">
                            </div>
                        </div>","-78","","0","images/B_D_U_10_darkshift.png","","","","positive","1","B","D","U","darkshift","",""
"","","","","","html-slider-response","98","254149","0.0-94.0","lcwqgnb7c9","8","NaN","<div style=""width:500px;"">
                            <p style=""font-size:50px; font-weight:bold;""
                            >positive</p>
                            <div style=""width:240px; margin: auto;"">
                                <img src=""images/B_L_S_2_lightshift.png"" style= ""width:200px""alt=""img"">
                            </div>
                        </div>","146","","0","images/B_L_S_2_lightshift.png","","","","positive","1","B","L","S","lightshift","",""
"","","","","","html-slider-response","99","256174","0.0-95.0","lcwqgnb7c9","8","NaN","<div style=""width:500px;"">
                            <p style=""font-size:50px; font-weight:bold;""
                            >positive</p>
                            <div style=""width:240px; margin: auto;"">
                                <img src=""images/R_L_S_26_lightshift.png"" style= ""width:200px""alt=""img"">
                            </div>
                        </div>","67","","0","images/R_L_S_26_lightshift.png","","","","positive","1","R","L","S","lightshift","",""
"","","","","","html-slider-response","100","258491","0.0-96.0","lcwqgnb7c9","8","NaN","<div style=""width:500px;"">
                            <p style=""font-size:50px; font-weight:bold;""
                            >positive</p>
                            <div style=""width:240px; margin: auto;"">
                                <img src=""images/G_D_S_41_lightshift.png"" style= ""width:200px""alt=""img"">
                            </div>
                        </div>","-58","","0","images/G_D_S_41_lightshift.png","","","","positive","1","G","D","S","lightshift","",""
"","","","","","html-slider-response","101","261619","0.0-97.0","lcwqgnb7c9","8","NaN","<div style=""width:500px;"">
                            <p style=""font-size:50px; font-weight:bold;""
                            >positive</p>
                            <div style=""width:240px; margin: auto;"">
                                <img src=""images/R_D_U_30_lightshift.png"" style= ""width:200px""alt=""img"">
                            </div>
                        </div>","-34","","0","images/R_D_U_30_lightshift.png","","","","positive","1","R","D","U","lightshift","",""
"","","","","","html-slider-response","102","265060","0.0-98.0","lcwqgnb7c9","8","NaN","<div style=""width:500px;"">
                            <p style=""font-size:50px; font-weight:bold;""
                            >positive</p>
                            <div style=""width:240px; margin: auto;"">
                                <img src=""images/Y_L_S_12_darkshift.png"" style= ""width:200px""alt=""img"">
                            </div>
                        </div>","36","","0","images/Y_L_S_12_darkshift.png","","","","positive","1","Y","L","S","darkshift","",""
"","","","","","html-slider-response","103","266674","0.0-99.0","lcwqgnb7c9","8","NaN","<div style=""width:500px;"">
                            <p style=""font-size:50px; font-weight:bold;""
                            >positive</p>
                            <div style=""width:240px; margin: auto;"">
                                <img src=""images/Y_D_S_15_lightshift.png"" style= ""width:200px""alt=""img"">
                            </div>
                        </div>","-43","","0","images/Y_D_S_15_lightshift.png","","","","positive","1","Y","D","S","lightshift","",""
"","","","","","html-slider-response","104","268287","0.0-100.0","lcwqgnb7c9","8","NaN","<div style=""width:500px;"">
                            <p style=""font-size:50px; font-weight:bold;""
                            >positive</p>
                            <div style=""width:240px; margin: auto;"">
                                <img src=""images/Y_D_S_15_darkshift.png"" style= ""width:200px""alt=""img"">
                            </div>
                        </div>","-200","","0","images/Y_D_S_15_darkshift.png","","","","positive","2","Y","D","S","darkshift","",""
"","","","","","html-slider-response","105","270255","0.0-101.0","lcwqgnb7c9","8","NaN","<div style=""width:500px;"">
                            <p style=""font-size:50px; font-weight:bold;""
                            >positive</p>
                            <div style=""width:240px; margin: auto;"">
                                <img src=""images/B_L_U_5_darkshift.png"" style= ""width:200px""alt=""img"">
                            </div>
                        </div>","110","","0","images/B_L_U_5_darkshift.png","","","","positive","2","B","L","U","darkshift","",""
"","","","","","html-slider-response","106","271826","0.0-102.0","lcwqgnb7c9","8","NaN","<div style=""width:500px;"">
                            <p style=""font-size:50px; font-weight:bold;""
                            >positive</p>
                            <div style=""width:240px; margin: auto;"">
                                <img src=""images/G_D_S_41_darkshift.png"" style= ""width:200px""alt=""img"">
                            </div>
                        </div>","-42","","0","images/G_D_S_41_darkshift.png","","","","positive","2","G","D","S","darkshift","",""
"","","","","","html-slider-response","107","274101","0.0-103.0","lcwqgnb7c9","8","NaN","<div style=""width:500px;"">
                            <p style=""font-size:50px; font-weight:bold;""
                            >positive</p>
                            <div style=""width:240px; margin: auto;"">
                                <img src=""images/R_D_S_28_lightshift.png"" style= ""width:200px""alt=""img"">
                            </div>
                        </div>","66","","0","images/R_D_S_28_lightshift.png","","","","positive","2","R","D","S","lightshift","",""
"","","","","","html-slider-response","108","276703","0.0-104.0","lcwqgnb7c9","8","NaN","<div style=""width:500px;"">
                            <p style=""font-size:50px; font-weight:bold;""
                            >positive</p>
                            <div style=""width:240px; margin: auto;"">
                                <img src=""images/R_D_S_28_darkshift.png"" style= ""width:200px""alt=""img"">
                            </div>
                        </div>","-26","","0","images/R_D_S_28_darkshift.png","","","","positive","1","R","D","S","darkshift","",""
"","","","","","html-slider-response","109","279376","0.0-105.0","lcwqgnb7c9","8","NaN","<div style=""width:500px;"">
                            <p style=""font-size:50px; font-weight:bold;""
                            >positive</p>
                            <div style=""width:240px; margin: auto;"">
                                <img src=""images/R_L_U_27_lightshift.png"" style= ""width:200px""alt=""img"">
                            </div>
                        </div>","6","","0","images/R_L_U_27_lightshift.png","","","","positive","1","R","L","U","lightshift","",""
"","","","","","html-slider-response","110","281480","0.0-106.0","lcwqgnb7c9","8","NaN","<div style=""width:500px;"">
                            <p style=""font-size:50px; font-weight:bold;""
                            >positive</p>
                            <div style=""width:240px; margin: auto;"">
                                <img src=""images/B_L_U_5_lightshift.png"" style= ""width:200px""alt=""img"">
                            </div>
                        </div>","27","","0","images/B_L_U_5_lightshift.png","","","","positive","1","B","L","U","lightshift","",""
"","","","","","html-slider-response","111","283051","0.0-107.0","lcwqgnb7c9","8","NaN","<div style=""width:500px;"">
                            <p style=""font-size:50px; font-weight:bold;""
                            >positive</p>
                            <div style=""width:240px; margin: auto;"">
                                <img src=""images/R_L_S_26_darkshift.png"" style= ""width:200px""alt=""img"">
                            </div>
                        </div>","98","","0","images/R_L_S_26_darkshift.png","","","","positive","2","R","L","S","darkshift","",""
"","","","","","html-slider-response","112","284774","0.0-108.0","lcwqgnb7c9","8","NaN","<div style=""width:500px;"">
                            <p style=""font-size:50px; font-weight:bold;""
                            >positive</p>
                            <div style=""width:240px; margin: auto;"">
                                <img src=""images/G_D_U_44_lightshift.png"" style= ""width:200px""alt=""img"">
                            </div>
                        </div>","-52","","0","images/G_D_U_44_lightshift.png","","","","positive","1","G","D","U","lightshift","",""
"","","","","","html-slider-response","113","286146","0.0-109.0","lcwqgnb7c9","8","NaN","<div style=""width:500px;"">
                            <p style=""font-size:50px; font-weight:bold;""
                            >positive</p>
                            <div style=""width:240px; margin: auto;"">
                                <img src=""images/R_D_S_28_darkshift.png"" style= ""width:200px""alt=""img"">
                            </div>
                        </div>","-95","","0","images/R_D_S_28_darkshift.png","","","","positive","2","R","D","S","darkshift","",""
"","","","","","html-slider-response","114","287827","0.0-110.0","lcwqgnb7c9","8","NaN","<div style=""width:500px;"">
                            <p style=""font-size:50px; font-weight:bold;""
                            >positive</p>
                            <div style=""width:240px; margin: auto;"">
                                <img src=""images/Y_L_U_13_darkshift.png"" style= ""width:200px""alt=""img"">
                            </div>
                        </div>","-38","","0","images/Y_L_U_13_darkshift.png","","","","positive","2","Y","L","U","darkshift","",""
"","","","","","html-slider-response","115","290241","0.0-111.0","lcwqgnb7c9","8","NaN","<div style=""width:500px;"">
                            <p style=""font-size:50px; font-weight:bold;""
                            >positive</p>
                            <div style=""width:240px; margin: auto;"">
                                <img src=""images/B_D_U_10_lightshift.png"" style= ""width:200px""alt=""img"">
                            </div>
                        </div>","-28","","0","images/B_D_U_10_lightshift.png","","","","positive","1","B","D","U","lightshift","",""
"","","","","","html-slider-response","116","292654","0.0-112.0","lcwqgnb7c9","8","NaN","<div style=""width:500px;"">
                            <p style=""font-size:50px; font-weight:bold;""
                            >positive</p>
                            <div style=""width:240px; margin: auto;"">
                                <img src=""images/Y_L_S_12_darkshift.png"" style= ""width:200px""alt=""img"">
                            </div>
                        </div>","40","","0","images/Y_L_S_12_darkshift.png","","","","positive","2","Y","L","S","darkshift","",""
"","","","","","html-slider-response","117","294736","0.0-113.0","lcwqgnb7c9","8","NaN","<div style=""width:500px;"">
                            <p style=""font-size:50px; font-weight:bold;""
                            >positive</p>
                            <div style=""width:240px; margin: auto;"">
                                <img src=""images/Y_D_U_23_lightshift.png"" style= ""width:200px""alt=""img"">
                            </div>
                        </div>","-200","","0","images/Y_D_U_23_lightshift.png","","","","positive","2","Y","D","U","lightshift","",""
"","","","","","html-slider-response","118","297609","0.0-114.0","lcwqgnb7c9","8","NaN","<div style=""width:500px;"">
                            <p style=""font-size:50px; font-weight:bold;""
                            >positive</p>
                            <div style=""width:240px; margin: auto;"">
                                <img src=""images/R_D_U_30_darkshift.png"" style= ""width:200px""alt=""img"">
                            </div>
                        </div>","-148","","0","images/R_D_U_30_darkshift.png","","","","positive","2","R","D","U","darkshift","",""
"","","","","","html-slider-response","119","301834","0.0-115.0","lcwqgnb7c9","8","NaN","<div style=""width:500px;"">
                            <p style=""font-size:50px; font-weight:bold;""
                            >positive</p>
                            <div style=""width:240px; margin: auto;"">
                                <img src=""images/G_L_S_33_darkshift.png"" style= ""width:200px""alt=""img"">
                            </div>
                        </div>","62","","0","images/G_L_S_33_darkshift.png","","","","positive","2","G","L","S","darkshift","",""
"","","","","","html-slider-response","120","304519","0.0-116.0","lcwqgnb7c9","8","NaN","<div style=""width:500px;"">
                            <p style=""font-size:50px; font-weight:bold;""
                            >positive</p>
                            <div style=""width:240px; margin: auto;"">
                                <img src=""images/G_L_U_37_lightshift.png"" style= ""width:200px""alt=""img"">
                            </div>
                        </div>","55","","0","images/G_L_U_37_lightshift.png","","","","positive","2","G","L","U","lightshift","",""
"","","","","","html-slider-response","121","305968","0.0-117.0","lcwqgnb7c9","8","NaN","<div style=""width:500px;"">
                            <p style=""font-size:50px; font-weight:bold;""
                            >positive</p>
                            <div style=""width:240px; margin: auto;"">
                                <img src=""images/R_D_U_30_lightshift.png"" style= ""width:200px""alt=""img"">
                            </div>
                        </div>","-48","","0","images/R_D_U_30_lightshift.png","","","","positive","2","R","D","U","lightshift","",""
"","","","","","html-slider-response","122","307829","0.0-118.0","lcwqgnb7c9","8","NaN","<div style=""width:500px;"">
                            <p style=""font-size:50px; font-weight:bold;""
                            >positive</p>
                            <div style=""width:240px; margin: auto;"">
                                <img src=""images/B_D_U_10_lightshift.png"" style= ""width:200px""alt=""img"">
                            </div>
                        </div>","27","","0","images/B_D_U_10_lightshift.png","","","","positive","2","B","D","U","lightshift","",""
"","","","","","html-slider-response","123","309213","0.0-119.0","lcwqgnb7c9","8","NaN","<div style=""width:500px;"">
                            <p style=""font-size:50px; font-weight:bold;""
                            >positive</p>
                            <div style=""width:240px; margin: auto;"">
                                <img src=""images/Y_D_S_15_lightshift.png"" style= ""width:200px""alt=""img"">
                            </div>
                        </div>","0","","0","images/Y_D_S_15_lightshift.png","","","","positive","2","Y","D","S","lightshift","",""
"","","","","","html-slider-response","124","311273","0.0-120.0","lcwqgnb7c9","8","NaN","<div style=""width:500px;"">
                            <p style=""font-size:50px; font-weight:bold;""
                            >positive</p>
                            <div style=""width:240px; margin: auto;"">
                                <img src=""images/B_D_S_7_darkshift.png"" style= ""width:200px""alt=""img"">
                            </div>
                        </div>","126","","0","images/B_D_S_7_darkshift.png","","","","positive","2","B","D","S","darkshift","",""
"","","","","","html-slider-response","125","312950","0.0-121.0","lcwqgnb7c9","8","NaN","<div style=""width:500px;"">
                            <p style=""font-size:50px; font-weight:bold;""
                            >positive</p>
                            <div style=""width:240px; margin: auto;"">
                                <img src=""images/B_L_U_5_lightshift.png"" style= ""width:200px""alt=""img"">
                            </div>
                        </div>","-118","","0","images/B_L_U_5_lightshift.png","","","","positive","2","B","L","U","lightshift","",""
"","","","","","html-slider-response","126","314745","0.0-122.0","lcwqgnb7c9","8","NaN","<div style=""width:500px;"">
                            <p style=""font-size:50px; font-weight:bold;""
                            >positive</p>
                            <div style=""width:240px; margin: auto;"">
                                <img src=""images/Y_D_U_23_lightshift.png"" style= ""width:200px""alt=""img"">
                            </div>
                        </div>","-200","","0","images/Y_D_U_23_lightshift.png","","","","positive","1","Y","D","U","lightshift","",""
"","","","","","html-slider-response","127","316155","0.0-123.0","lcwqgnb7c9","8","NaN","<div style=""width:500px;"">
                            <p style=""font-size:50px; font-weight:bold;""
                            >positive</p>
                            <div style=""width:240px; margin: auto;"">
                                <img src=""images/G_D_S_41_darkshift.png"" style= ""width:200px""alt=""img"">
                            </div>
                        </div>","-38","","0","images/G_D_S_41_darkshift.png","","","","positive","1","G","D","S","darkshift","",""
"","","","","","html-slider-response","128","317611","0.0-124.0","lcwqgnb7c9","8","NaN","<div style=""width:500px;"">
                            <p style=""font-size:50px; font-weight:bold;""
                            >positive</p>
                            <div style=""width:240px; margin: auto;"">
                                <img src=""images/B_D_S_7_lightshift.png"" style= ""width:200px""alt=""img"">
                            </div>
                        </div>","44","","0","images/B_D_S_7_lightshift.png","","","","positive","1","B","D","S","lightshift","",""
"","","","","","html-slider-response","129","319134","0.0-125.0","lcwqgnb7c9","8","NaN","<div style=""width:500px;"">
                            <p style=""font-size:50px; font-weight:bold;""
                            >positive</p>
                            <div style=""width:240px; margin: auto;"">
                                <img src=""images/Y_L_U_13_lightshift.png"" style= ""width:200px""alt=""img"">
                            </div>
                        </div>","36","","0","images/Y_L_U_13_lightshift.png","","","","positive","1","Y","L","U","lightshift","",""
"","","","","","html-slider-response","130","320674","0.0-126.0","lcwqgnb7c9","8","NaN","<div style=""width:500px;"">
                            <p style=""font-size:50px; font-weight:bold;""
                            >positive</p>
                            <div style=""width:240px; margin: auto;"">
                                <img src=""images/B_L_U_5_darkshift.png"" style= ""width:200px""alt=""img"">
                            </div>
                        </div>","200","","0","images/B_L_U_5_darkshift.png","","","","positive","1","B","L","U","darkshift","",""
"","","","","","html-slider-response","131","322229","0.0-127.0","lcwqgnb7c9","8","NaN","<div style=""width:500px;"">
                            <p style=""font-size:50px; font-weight:bold;""
                            >positive</p>
                            <div style=""width:240px; margin: auto;"">
                                <img src=""images/Y_D_U_23_darkshift.png"" style= ""width:200px""alt=""img"">
                            </div>
                        </div>","-200","","0","images/Y_D_U_23_darkshift.png","","","","positive","2","Y","D","U","darkshift","",""
"","","","","","html-slider-response","132","323707","0.0-128.0","lcwqgnb7c9","8","NaN","<div style=""width:500px;"">
                            <p style=""font-size:50px; font-weight:bold;""
                            >positive</p>
                            <div style=""width:240px; margin: auto;"">
                                <img src=""images/R_L_U_27_darkshift.png"" style= ""width:200px""alt=""img"">
                            </div>
                        </div>","110","","0","images/R_L_U_27_darkshift.png","","","","positive","2","R","L","U","darkshift","",""
"","","","","","html-slider-response","133","325483","0.0-129.0","lcwqgnb7c9","8","NaN","<div style=""width:500px;"">
                            <p style=""font-size:50px; font-weight:bold;""
                            >positive</p>
                            <div style=""width:240px; margin: auto;"">
                                <img src=""images/G_L_U_37_darkshift.png"" style= ""width:200px""alt=""img"">
                            </div>
                        </div>","47","","0","images/G_L_U_37_darkshift.png","","","","positive","2","G","L","U","darkshift","",""
"","","","","","html-slider-response","134","326767","0.0-130.0","lcwqgnb7c9","8","NaN","<div style=""width:500px;"">
                            <p style=""font-size:50px; font-weight:bold;""
                            >positive</p>
                            <div style=""width:240px; margin: auto;"">
                                <img src=""images/B_L_S_2_lightshift.png"" style= ""width:200px""alt=""img"">
                            </div>
                        </div>","99","","0","images/B_L_S_2_lightshift.png","","","","positive","2","B","L","S","lightshift","",""
"","","","","","html-slider-response","135","328688","0.0-131.0","lcwqgnb7c9","8","NaN","<div style=""width:500px;"">
                            <p style=""font-size:50px; font-weight:bold;""
                            >positive</p>
                            <div style=""width:240px; margin: auto;"">
                                <img src=""images/R_L_U_27_lightshift.png"" style= ""width:200px""alt=""img"">
                            </div>
                        </div>","14","","0","images/R_L_U_27_lightshift.png","","","","positive","2","R","L","U","lightshift","",""
"","","","","","html-slider-response","136","330235","0.0-132.0","lcwqgnb7c9","8","NaN","<div style=""width:500px;"">
                            <p style=""font-size:50px; font-weight:bold;""
                            >positive</p>
                            <div style=""width:240px; margin: auto;"">
                                <img src=""images/G_L_S_33_lightshift.png"" style= ""width:200px""alt=""img"">
                            </div>
                        </div>","50","","0","images/G_L_S_33_lightshift.png","","","","positive","2","G","L","S","lightshift","",""
"","","","","","html-slider-response","137","332110","0.0-133.0","lcwqgnb7c9","8","NaN","<div style=""width:500px;"">
                            <p style=""font-size:50px; font-weight:bold;""
                            >positive</p>
                            <div style=""width:240px; margin: auto;"">
                                <img src=""images/G_D_U_44_darkshift.png"" style= ""width:200px""alt=""img"">
                            </div>
                        </div>","-87","","0","images/G_D_U_44_darkshift.png","","","","positive","1","G","D","U","darkshift","",""
"","","","","","html-slider-response","138","333553","0.0-134.0","lcwqgnb7c9","8","NaN","<div style=""width:500px;"">
                            <p style=""font-size:50px; font-weight:bold;""
                            >positive</p>
                            <div style=""width:240px; margin: auto;"">
                                <img src=""images/G_D_U_44_lightshift.png"" style= ""width:200px""alt=""img"">
                            </div>
                        </div>","-44","","0","images/G_D_U_44_lightshift.png","","","","positive","2","G","D","U","lightshift","",""
"","","","","","html-slider-response","139","335341","0.0-135.0","lcwqgnb7c9","8","NaN","<div style=""width:500px;"">
                            <p style=""font-size:50px; font-weight:bold;""
                            >positive</p>
                            <div style=""width:240px; margin: auto;"">
                                <img src=""images/B_D_S_7_darkshift.png"" style= ""width:200px""alt=""img"">
                            </div>
                        </div>","140","","0","images/B_D_S_7_darkshift.png","","","","positive","1","B","D","S","darkshift","",""
"","","","","","html-slider-response","140","338138","0.0-136.0","lcwqgnb7c9","8","NaN","<div style=""width:500px;"">
                            <p style=""font-size:50px; font-weight:bold;""
                            >positive</p>
                            <div style=""width:240px; margin: auto;"">
                                <img src=""images/R_L_U_27_darkshift.png"" style= ""width:200px""alt=""img"">
                            </div>
                        </div>","33","","0","images/R_L_U_27_darkshift.png","","","","positive","1","R","L","U","darkshift","",""
"","","","","","html-slider-response","141","339572","0.0-137.0","lcwqgnb7c9","8","NaN","<div style=""width:500px;"">
                            <p style=""font-size:50px; font-weight:bold;""
                            >positive</p>
                            <div style=""width:240px; margin: auto;"">
                                <img src=""images/G_D_S_41_lightshift.png"" style= ""width:200px""alt=""img"">
                            </div>
                        </div>","-71","","0","images/G_D_S_41_lightshift.png","","","","positive","2","G","D","S","lightshift","",""
"","","","","","html-slider-response","142","341791","0.0-138.0","lcwqgnb7c9","8","NaN","<div style=""width:500px;"">
                            <p style=""font-size:50px; font-weight:bold;""
                            >positive</p>
                            <div style=""width:240px; margin: auto;"">
                                <img src=""images/Y_D_S_15_darkshift.png"" style= ""width:200px""alt=""img"">
                            </div>
                        </div>","-200","","0","images/Y_D_S_15_darkshift.png","","","","positive","1","Y","D","S","darkshift","",""
"","","","","","html-slider-response","143","344463","0.0-139.0","lcwqgnb7c9","8","NaN","<div style=""width:500px;"">
                            <p style=""font-size:50px; font-weight:bold;""
                            >positive</p>
                            <div style=""width:240px; margin: auto;"">
                                <img src=""images/Y_L_S_12_lightshift.png"" style= ""width:200px""alt=""img"">
                            </div>
                        </div>","18","","0","images/Y_L_S_12_lightshift.png","","","","positive","1","Y","L","S","lightshift","",""
"","","","","","html-slider-response","144","345857","0.0-140.0","lcwqgnb7c9","8","NaN","<div style=""width:500px;"">
                            <p style=""font-size:50px; font-weight:bold;""
                            >positive</p>
                            <div style=""width:240px; margin: auto;"">
                                <img src=""images/Y_L_U_13_darkshift.png"" style= ""width:200px""alt=""img"">
                            </div>
                        </div>","-15","","0","images/Y_L_U_13_darkshift.png","","","","positive","1","Y","L","U","darkshift","",""
"","","","","","html-slider-response","145","347800","0.0-141.0","lcwqgnb7c9","8","NaN","<div style=""width:500px;"">
                            <p style=""font-size:50px; font-weight:bold;""
                            >positive</p>
                            <div style=""width:240px; margin: auto;"">
                                <img src=""images/Y_L_S_12_lightshift.png"" style= ""width:200px""alt=""img"">
                            </div>
                        </div>","26","","0","images/Y_L_S_12_lightshift.png","","","","positive","2","Y","L","S","lightshift","",""
"","","","","","html-slider-response","146","349106","0.0-142.0","lcwqgnb7c9","8","NaN","<div style=""width:500px;"">
                            <p style=""font-size:50px; font-weight:bold;""
                            >positive</p>
                            <div style=""width:240px; margin: auto;"">
                                <img src=""images/R_D_U_30_darkshift.png"" style= ""width:200px""alt=""img"">
                            </div>
                        </div>","-74","","0","images/R_D_U_30_darkshift.png","","","","positive","1","R","D","U","darkshift","",""
"","","","","","html-slider-response","147","350441","0.0-143.0","lcwqgnb7c9","8","NaN","<div style=""width:500px;"">
                            <p style=""font-size:50px; font-weight:bold;""
                            >positive</p>
                            <div style=""width:240px; margin: auto;"">
                                <img src=""images/G_L_U_37_lightshift.png"" style= ""width:200px""alt=""img"">
                            </div>
                        </div>","190","","0","images/G_L_U_37_lightshift.png","","","","positive","1","G","L","U","lightshift","",""
"","","","","","html-button-response","148","351624","0.0-144.0","lcwqgnb7c9","8","681","<p>Great Job! You've finished block 2.<br></br> You have 2 block(s) left to go.<br></br></p>","0","","","","","","","","","","","","","",""
"","","","","","html-button-response","149","352292","0.0-145.0","lcwqgnb7c9","8","667","<p>In this block of trials, you will be asked to rate how much you associate each map with:</p > <p style = 'font-size:150%; font-weight: bold'>negative</p><br></br>","0","","","","","","","","","","","","","",""
"","","","","","html-slider-response","150","353687","0.0-146.0","lcwqgnb7c9","8","NaN","<div style=""width:500px;"">
                            <p style=""font-size:50px; font-weight:bold;""
                            >negative</p>
                            <div style=""width:240px; margin: auto;"">
                                <img src=""images/G_L_U_37_lightshift.png"" style= ""width:200px""alt=""img"">
                            </div>
                        </div>","-200","","0","images/G_L_U_37_lightshift.png","","","","negative","2","G","L","U","lightshift","",""
"","","","","","html-slider-response","151","355102","0.0-147.0","lcwqgnb7c9","8","NaN","<div style=""width:500px;"">
                            <p style=""font-size:50px; font-weight:bold;""
                            >negative</p>
                            <div style=""width:240px; margin: auto;"">
                                <img src=""images/Y_L_S_12_lightshift.png"" style= ""width:200px""alt=""img"">
                            </div>
                        </div>","-200","","0","images/Y_L_S_12_lightshift.png","","","","negative","1","Y","L","S","lightshift","",""
"","","","","","html-slider-response","152","357765","0.0-148.0","lcwqgnb7c9","8","NaN","<div style=""width:500px;"">
                            <p style=""font-size:50px; font-weight:bold;""
                            >negative</p>
                            <div style=""width:240px; margin: auto;"">
                                <img src=""images/R_D_U_30_lightshift.png"" style= ""width:200px""alt=""img"">
                            </div>
                        </div>","65","","0","images/R_D_U_30_lightshift.png","","","","negative","1","R","D","U","lightshift","",""
"","","","","","html-slider-response","153","359821","0.0-149.0","lcwqgnb7c9","8","NaN","<div style=""width:500px;"">
                            <p style=""font-size:50px; font-weight:bold;""
                            >negative</p>
                            <div style=""width:240px; margin: auto;"">
                                <img src=""images/G_L_S_33_darkshift.png"" style= ""width:200px""alt=""img"">
                            </div>
                        </div>","-136","","0","images/G_L_S_33_darkshift.png","","","","negative","2","G","L","S","darkshift","",""
"","","","","","html-slider-response","154","361706","0.0-150.0","lcwqgnb7c9","8","NaN","<div style=""width:500px;"">
                            <p style=""font-size:50px; font-weight:bold;""
                            >negative</p>
                            <div style=""width:240px; margin: auto;"">
                                <img src=""images/B_D_S_7_lightshift.png"" style= ""width:200px""alt=""img"">
                            </div>
                        </div>","-200","","0","images/B_D_S_7_lightshift.png","","","","negative","1","B","D","S","lightshift","",""
"","","","","","html-slider-response","155","363609","0.0-151.0","lcwqgnb7c9","8","NaN","<div style=""width:500px;"">
                            <p style=""font-size:50px; font-weight:bold;""
                            >negative</p>
                            <div style=""width:240px; margin: auto;"">
                                <img src=""images/R_L_U_27_darkshift.png"" style= ""width:200px""alt=""img"">
                            </div>
                        </div>","54","","0","images/R_L_U_27_darkshift.png","","","","negative","2","R","L","U","darkshift","",""
"","","","","","html-slider-response","156","365402","0.0-152.0","lcwqgnb7c9","8","NaN","<div style=""width:500px;"">
                            <p style=""font-size:50px; font-weight:bold;""
                            >negative</p>
                            <div style=""width:240px; margin: auto;"">
                                <img src=""images/G_D_U_44_darkshift.png"" style= ""width:200px""alt=""img"">
                            </div>
                        </div>","118","","0","images/G_D_U_44_darkshift.png","","","","negative","2","G","D","U","darkshift","",""
"","","","","","html-slider-response","157","367273","0.0-153.0","lcwqgnb7c9","8","NaN","<div style=""width:500px;"">
                            <p style=""font-size:50px; font-weight:bold;""
                            >negative</p>
                            <div style=""width:240px; margin: auto;"">
                                <img src=""images/Y_L_U_13_lightshift.png"" style= ""width:200px""alt=""img"">
                            </div>
                        </div>","33","","0","images/Y_L_U_13_lightshift.png","","","","negative","2","Y","L","U","lightshift","",""
"","","","","","html-slider-response","158","369882","0.0-154.0","lcwqgnb7c9","8","NaN","<div style=""width:500px;"">
                            <p style=""font-size:50px; font-weight:bold;""
                            >negative</p>
                            <div style=""width:240px; margin: auto;"">
                                <img src=""images/Y_D_S_15_lightshift.png"" style= ""width:200px""alt=""img"">
                            </div>
                        </div>","141","","0","images/Y_D_S_15_lightshift.png","","","","negative","2","Y","D","S","lightshift","",""
"","","","","","html-slider-response","159","372616","0.0-155.0","lcwqgnb7c9","8","NaN","<div style=""width:500px;"">
                            <p style=""font-size:50px; font-weight:bold;""
                            >negative</p>
                            <div style=""width:240px; margin: auto;"">
                                <img src=""images/G_L_U_37_darkshift.png"" style= ""width:200px""alt=""img"">
                            </div>
                        </div>","-43","","0","images/G_L_U_37_darkshift.png","","","","negative","2","G","L","U","darkshift","",""
"","","","","","html-slider-response","160","373993","0.0-156.0","lcwqgnb7c9","8","NaN","<div style=""width:500px;"">
                            <p style=""font-size:50px; font-weight:bold;""
                            >negative</p>
                            <div style=""width:240px; margin: auto;"">
                                <img src=""images/R_L_S_26_lightshift.png"" style= ""width:200px""alt=""img"">
                            </div>
                        </div>","-156","","0","images/R_L_S_26_lightshift.png","","","","negative","2","R","L","S","lightshift","",""
"","","","","","html-slider-response","161","375613","0.0-157.0","lcwqgnb7c9","8","NaN","<div style=""width:500px;"">
                            <p style=""font-size:50px; font-weight:bold;""
                            >negative</p>
                            <div style=""width:240px; margin: auto;"">
                                <img src=""images/R_L_S_26_darkshift.png"" style= ""width:200px""alt=""img"">
                            </div>
                        </div>","-108","","0","images/R_L_S_26_darkshift.png","","","","negative","1","R","L","S","darkshift","",""
"","","","","","html-slider-response","162","376841","0.0-158.0","lcwqgnb7c9","8","NaN","<div style=""width:500px;"">
                            <p style=""font-size:50px; font-weight:bold;""
                            >negative</p>
                            <div style=""width:240px; margin: auto;"">
                                <img src=""images/R_L_S_26_darkshift.png"" style= ""width:200px""alt=""img"">
                            </div>
                        </div>","-129","","0","images/R_L_S_26_darkshift.png","","","","negative","2","R","L","S","darkshift","",""
"","","","","","html-slider-response","163","378693","0.0-159.0","lcwqgnb7c9","8","NaN","<div style=""width:500px;"">
                            <p style=""font-size:50px; font-weight:bold;""
                            >negative</p>
                            <div style=""width:240px; margin: auto;"">
                                <img src=""images/B_L_S_2_darkshift.png"" style= ""width:200px""alt=""img"">
                            </div>
                        </div>","-69","","0","images/B_L_S_2_darkshift.png","","","","negative","1","B","L","S","darkshift","",""
"","","","","","html-slider-response","164","380223","0.0-160.0","lcwqgnb7c9","8","NaN","<div style=""width:500px;"">
                            <p style=""font-size:50px; font-weight:bold;""
                            >negative</p>
                            <div style=""width:240px; margin: auto;"">
                                <img src=""images/G_D_U_44_darkshift.png"" style= ""width:200px""alt=""img"">
                            </div>
                        </div>","91","","0","images/G_D_U_44_darkshift.png","","","","negative","1","G","D","U","darkshift","",""
"","","","","","html-slider-response","165","381757","0.0-161.0","lcwqgnb7c9","8","NaN","<div style=""width:500px;"">
                            <p style=""font-size:50px; font-weight:bold;""
                            >negative</p>
                            <div style=""width:240px; margin: auto;"">
                                <img src=""images/B_L_S_2_lightshift.png"" style= ""width:200px""alt=""img"">
                            </div>
                        </div>","-182","","0","images/B_L_S_2_lightshift.png","","","","negative","1","B","L","S","lightshift","",""
"","","","","","html-slider-response","166","383264","0.0-162.0","lcwqgnb7c9","8","NaN","<div style=""width:500px;"">
                            <p style=""font-size:50px; font-weight:bold;""
                            >negative</p>
                            <div style=""width:240px; margin: auto;"">
                                <img src=""images/B_D_S_7_darkshift.png"" style= ""width:200px""alt=""img"">
                            </div>
                        </div>","-90","","0","images/B_D_S_7_darkshift.png","","","","negative","1","B","D","S","darkshift","",""
"","","","","","html-slider-response","167","384728","0.0-163.0","lcwqgnb7c9","8","NaN","<div style=""width:500px;"">
                            <p style=""font-size:50px; font-weight:bold;""
                            >negative</p>
                            <div style=""width:240px; margin: auto;"">
                                <img src=""images/B_L_U_5_lightshift.png"" style= ""width:200px""alt=""img"">
                            </div>
                        </div>","-65","","0","images/B_L_U_5_lightshift.png","","","","negative","1","B","L","U","lightshift","",""
"","","","","","html-slider-response","168","386334","0.0-164.0","lcwqgnb7c9","8","NaN","<div style=""width:500px;"">
                            <p style=""font-size:50px; font-weight:bold;""
                            >negative</p>
                            <div style=""width:240px; margin: auto;"">
                                <img src=""images/G_L_U_37_lightshift.png"" style= ""width:200px""alt=""img"">
                            </div>
                        </div>","-142","","0","images/G_L_U_37_lightshift.png","","","","negative","1","G","L","U","lightshift","",""
"","","","","","html-slider-response","169","387846","0.0-165.0","lcwqgnb7c9","8","NaN","<div style=""width:500px;"">
                            <p style=""font-size:50px; font-weight:bold;""
                            >negative</p>
                            <div style=""width:240px; margin: auto;"">
                                <img src=""images/R_D_U_30_darkshift.png"" style= ""width:200px""alt=""img"">
                            </div>
                        </div>","99","","0","images/R_D_U_30_darkshift.png","","","","negative","2","R","D","U","darkshift","",""
"","","","","","html-slider-response","170","389307","0.0-166.0","lcwqgnb7c9","8","NaN","<div style=""width:500px;"">
                            <p style=""font-size:50px; font-weight:bold;""
                            >negative</p>
                            <div style=""width:240px; margin: auto;"">
                                <img src=""images/Y_D_U_23_lightshift.png"" style= ""width:200px""alt=""img"">
                            </div>
                        </div>","166","","0","images/Y_D_U_23_lightshift.png","","","","negative","2","Y","D","U","lightshift","",""
"","","","","","html-slider-response","171","390731","0.0-167.0","lcwqgnb7c9","8","NaN","<div style=""width:500px;"">
                            <p style=""font-size:50px; font-weight:bold;""
                            >negative</p>
                            <div style=""width:240px; margin: auto;"">
                                <img src=""images/Y_D_U_23_darkshift.png"" style= ""width:200px""alt=""img"">
                            </div>
                        </div>","200","","0","images/Y_D_U_23_darkshift.png","","","","negative","1","Y","D","U","darkshift","",""
"","","","","","html-slider-response","172","392179","0.0-168.0","lcwqgnb7c9","8","NaN","<div style=""width:500px;"">
                            <p style=""font-size:50px; font-weight:bold;""
                            >negative</p>
                            <div style=""width:240px; margin: auto;"">
                                <img src=""images/B_L_S_2_lightshift.png"" style= ""width:200px""alt=""img"">
                            </div>
                        </div>","-110","","0","images/B_L_S_2_lightshift.png","","","","negative","2","B","L","S","lightshift","",""
