"success","timeout","failed_images","failed_audio","failed_video","trial_type","trial_index","time_elapsed","internal_node_id","subject_id","condition_num","rt","stimulus","response","question_order","slider_start","image_path","practiceTrial","practiceTrialNum","correct","concept","repetition","hue","lightness","saturation","shift","ishihara_plate","correct_response"
"true","false","[]","[]","[]","preload","0","1236","0.0-0.0","n8vzc2ow1u","1","","","","","","","","","","","","","","","","",""
"","","","","","html-button-response","1","17787","0.0-1.0","n8vzc2ow1u","1","16549","Welcome to our experiment!<p>At the bottom of this screen, you will see a button that says ""Begin Experiment"".<br>Please only click that button when you are ready to complete the 25 minute experiment in one sitting.</p><p> Once you click that button, it will not be possible to restart the experiment.","0","","","","","","","","","","","","","",""
"true","","","","","fullscreen","2","19675","0.0-2.0","n8vzc2ow1u","1","884","","","","","","","","","","","","","","","",""
"","","","","","survey-multi-select","3","22760","0.0-3.0","n8vzc2ow1u","1","3080","","{""Consent"":[""<strong>I consent</strong>""]}","[0]","","","","","","","","","","","","",""
"","","","","","html-button-response","4","23621","0.0-4.0","n8vzc2ow1u","1","859","Welcome! <p> This experiment involves two parts: demographic information, followed by the experimental task.<p> It will take about 25 minutes to complete both parts.","0","","","","","","","","","","","","","",""
"","","","","","survey-text","5","26727","0.0-5.0","n8vzc2ow1u","1","3102","","{""Age"":""1"",""Gender"":""1"",""Race/ethnicity"":""1"",""Languages"":""1\n1\n""}","","","","","","","","","","","","","",""
"","","","","","html-slider-response","6","28998","0.0-6.0","n8vzc2ow1u","1","2268","
                            <div style='text-align:left; font-size:20px; line-height:25px; width: 1400px;'>
                                During this experiment you will be asked to rate how much you associate maps with                    different concepts.<br> Below, you can see some examples of the maps you will be asked to rate. Next to the maps
                    is the list of concepts.<br>You will be asked                    to rate how much you associate each map with each concept on a scale from 'not at all' to 'very much' like the
                    one below. <br><br>
                    Now, please look at the list of concepts and maps. For each concept, think about the map you associate 'very
                    much' with the concept.<br>                     When you see that map during the experiment, please rate it near the 'very much' endpoint of the
                    scale.<br>Now, please think about which map you associate 'not at all'                     with each concept. When you see that map during the experiment, please rate it near the 'not at all' endpoint
                    of the scale.<br>
                    Please use the full range of the scale. That is, if a map is somewhat associated with the concept, you would
                    click partway between the middle point and right side of the scale.                    You will be asked to rate each map for a given concept before moving on to the next concept.<br><br>Press the
                    'Continue' button for instructions on how to use the slider.                    <br><br>
                </div>

                <div style=""width: 500px; margin: 0 auto;"">
                    <!-- Centered text paragraphs -->
                    <div style=""text-align: center; width: 500px;"">
                        <p style=""font-size:25px; line-height:18px;"">calm</p>
                        <p style=""font-size:25px; line-height:18px;"">positive</p>
                        <p style=""font-size:25px;line-height:18px;"">negative</p>
                        <p style=""font-size:25px;line-height:18px;"">startling</p>
                    </div>

                    <!-- Grid section -->
                   <div style=""display: flex; justify-content: center; padding-top: 15px;"">
                    <div style=""display: grid; grid-template-columns: repeat(8, 80px); grid-gap: 5px; width: auto;"">
                        <img src=""images/B_D_U_33_lightshift.png"" alt=""map"" style=""width: 100%;""><img src=""images/B_D_S_30_darkshift.png"" alt=""map"" style=""width: 100%;""><img src=""images/R_D_U_12_lightshift.png"" alt=""map"" style=""width: 100%;""><img src=""images/B_L_U_28_darkshift.png"" alt=""map"" style=""width: 100%;""><img src=""images/G_L_U_15_lightshift.png"" alt=""map"" style=""width: 100%;""><img src=""images/G_D_U_26_lightshift.png"" alt=""map"" style=""width: 100%;""><img src=""images/Y_L_S_37_darkshift.png"" alt=""map"" style=""width: 100%;""><img src=""images/R_L_S_5_lightshift.png"" alt=""map"" style=""width: 100%;""><img src=""images/G_D_S_23_darkshift.png"" alt=""map"" style=""width: 100%;""><img src=""images/Y_L_S_37_lightshift.png"" alt=""map"" style=""width: 100%;""><img src=""images/G_D_U_26_darkshift.png"" alt=""map"" style=""width: 100%;""><img src=""images/R_D_S_10_lightshift.png"" alt=""map"" style=""width: 100%;""><img src=""images/G_D_S_23_lightshift.png"" alt=""map"" style=""width: 100%;""><img src=""images/Y_D_U_2_darkshift.png"" alt=""map"" style=""width: 100%;""><img src=""images/G_L_S_13_lightshift.png"" alt=""map"" style=""width: 100%;""><img src=""images/R_L_S_5_darkshift.png"" alt=""map"" style=""width: 100%;""><img src=""images/B_D_S_30_lightshift.png"" alt=""map"" style=""width: 100%;""><img src=""images/Y_L_U_41_darkshift.png"" alt=""map"" style=""width: 100%;""><img src=""images/R_D_S_10_darkshift.png"" alt=""map"" style=""width: 100%;""><img src=""images/Y_D_S_44_darkshift.png"" alt=""map"" style=""width: 100%;""><img src=""images/G_L_U_15_darkshift.png"" alt=""map"" style=""width: 100%;""><img src=""images/Y_D_S_44_lightshift.png"" alt=""map"" style=""width: 100%;""><img src=""images/Y_L_U_41_lightshift.png"" alt=""map"" style=""width: 100%;""><img src=""images/G_L_S_13_darkshift.png"" alt=""map"" style=""width: 100%;""><img src=""images/Y_D_U_2_lightshift.png"" alt=""map"" style=""width: 100%;""><img src=""images/B_L_U_28_lightshift.png"" alt=""map"" style=""width: 100%;""><img src=""images/B_L_S_27_lightshift.png"" alt=""map"" style=""width: 100%;""><img src=""images/R_L_U_7_lightshift.png"" alt=""map"" style=""width: 100%;""><img src=""images/R_L_U_7_darkshift.png"" alt=""map"" style=""width: 100%;""><img src=""images/B_D_U_33_darkshift.png"" alt=""map"" style=""width: 100%;""><img src=""images/B_L_S_27_darkshift.png"" alt=""map"" style=""width: 100%;""><img src=""images/R_D_U_12_darkshift.png"" alt=""map"" style=""width: 100%;"">
                    </div>
                </div>

                    <!-- Clear floats -->
                    <div style=""clear: both;""></div>
                </div>
                            ","null","","0","maps_anchoring.png","true","","","","","","","","","",""
"","","","","","html-button-response","7","29890","0.0-7.0","n8vzc2ow1u","1","891","<div style=""width:800px;""><p style=""text-align:left"">To move the slider, click and drag your cursor to the location of the scale where you would like to make your rating and then let go. When you let go of the slider, your response will be recorded and the next trial will begin. <br>
                    We are interested in your initial impressions of each map for the given concept, so please go with your first intuition. <br>
                    Before you begin the experiment, there will be four training trials for you to practice using the scale. <br>
                     When you are ready to start the training trials, please click ""Continue"".</p><br></div>","0","","","","","","","","","","","","","",""
"","","","","","html-slider-response","8","31553","0.0-8.0-0.0","n8vzc2ow1u","1","NaN","<div style=""width:500px;"">
                                    <p style=""font-size:25px;"">Please move the slider all the way to the <br> right endpoint of the scale</p>

                                    </div>
                                </div>","200","","0","","true","0","true","","","","","","","",""
"","","","","","html-button-response","9","32779","0.0-8.0-1.0","n8vzc2ow1u","1","722","<p align='center'><b>Good job!</b> Click on 'Continue' to proceed.</p>","0","","","","","","","","","","","","","",""
"","","","","","html-slider-response","10","33434","0.0-9.0-0.0","n8vzc2ow1u","1","NaN","<div style=""width:500px;"">
                                    <p style=""font-size:25px;"">Please move the slider all the way to the <br> left endpoint of the scale</p>

                                    </div>
                                </div>","-200","","0","","true","1","true","","","","","","","",""
"","","","","","html-button-response","11","34481","0.0-9.0-1.0","n8vzc2ow1u","1","545","<p align='center'><b>Good job!</b> Click on 'Continue' to proceed.</p>","0","","","","","","","","","","","","","",""
"","","","","","html-slider-response","12","35633","0.0-10.0-0.0","n8vzc2ow1u","1","NaN","<div style=""width:500px;"">
                                    <p style=""font-size:25px;"">Please move the slider halfway between the center and right endpoint of the scale</p>

                                    </div>
                                </div>","112","","0","","true","2","false","","","","","","","",""
"","","","","","html-button-response","13","36476","0.0-10.0-1.0","n8vzc2ow1u","1","341","<p align='center'><b>Not quite!</b> The slider was not placed near the instructed located. Click on 'Continue' to try again. </p>","0","","","","","","","","","","","","","",""
"","","","","","html-slider-response","14","37268","0.0-10.1-0.1","n8vzc2ow1u","1","NaN","<div style=""width:500px;"">
                                    <p style=""font-size:25px;"">Please move the slider halfway between the center and right endpoint of the scale</p>

                                    </div>
                                </div>","-89","","0","","true","2","false","","","","","","","",""
"","","","","","html-button-response","15","38179","0.0-10.1-1.1","n8vzc2ow1u","1","410","<p align='center'><b>Not quite!</b> The slider was not placed near the instructed located. Click on 'Continue' to try again. </p>","0","","","","","","","","","","","","","",""
"","","","","","html-slider-response","16","38896","0.0-10.2-0.2","n8vzc2ow1u","1","NaN","<div style=""width:500px;"">
                                    <p style=""font-size:25px;"">Please move the slider halfway between the center and right endpoint of the scale</p>

                                    </div>
                                </div>","-92","","0","","true","2","false","","","","","","","",""
"","","","","","html-button-response","17","39776","0.0-10.2-1.2","n8vzc2ow1u","1","377","<p align='center'><b>Not quite!</b> The slider was not placed near the instructed located. Click on 'Continue' to try again. </p>","0","","","","","","","","","","","","","",""
"","","","","","html-slider-response","18","40410","0.0-10.3-0.3","n8vzc2ow1u","1","NaN","<div style=""width:500px;"">
                                    <p style=""font-size:25px;"">Please move the slider halfway between the center and right endpoint of the scale</p>

                                    </div>
                                </div>","-98","","0","","true","2","false","","","","","","","",""
"","","","","","html-button-response","19","41366","0.0-10.3-1.3","n8vzc2ow1u","1","454","<p align='center'><b>Not quite!</b> The slider was not placed near the instructed located. Click on 'Continue' to try again. </p>","0","","","","","","","","","","","","","",""
"","","","","","html-slider-response","20","42051","0.0-10.4-0.4","n8vzc2ow1u","1","NaN","<div style=""width:500px;"">
                                    <p style=""font-size:25px;"">Please move the slider halfway between the center and right endpoint of the scale</p>

                                    </div>
                                </div>","-98","","0","","true","2","false","","","","","","","",""
"","","","","","html-button-response","21","42979","0.0-10.4-1.4","n8vzc2ow1u","1","425","<p align='center'><b>Not quite!</b> The slider was not placed near the instructed located. Click on 'Continue' to try again. </p>","0","","","","","","","","","","","","","",""
"","","","","","html-slider-response","22","44611","0.0-10.5-0.5","n8vzc2ow1u","1","NaN","<div style=""width:500px;"">
                                    <p style=""font-size:25px;"">Please move the slider halfway between the center and right endpoint of the scale</p>

                                    </div>
                                </div>","88","","0","","true","2","true","","","","","","","",""
"","","","","","html-button-response","23","45439","0.0-10.5-1.5","n8vzc2ow1u","1","326","<p align='center'><b>Good job!</b> Click on 'Continue' to proceed.</p>","0","","","","","","","","","","","","","",""
"","","","","","html-slider-response","24","46456","0.0-11.0-0.0","n8vzc2ow1u","1","NaN","<div style=""width:500px;"">
                                    <p style=""font-size:25px;"">Please move the slider halfway between the center and left endpoint of the scale</p>

                                    </div>
                                </div>","96","","0","","true","3","false","","","","","","","",""
"","","","","","html-button-response","25","48252","0.0-11.0-1.0","n8vzc2ow1u","1","1294","<p align='center'><b>Not quite!</b> The slider was not placed near the instructed located. Click on 'Continue' to try again. </p>","0","","","","","","","","","","","","","",""
"","","","","","html-slider-response","26","49394","0.0-11.1-0.1","n8vzc2ow1u","1","NaN","<div style=""width:500px;"">
                                    <p style=""font-size:25px;"">Please move the slider halfway between the center and left endpoint of the scale</p>

                                    </div>
                                </div>","106","","0","","true","3","false","","","","","","","",""
"","","","","","html-button-response","27","50953","0.0-11.1-1.1","n8vzc2ow1u","1","1057","<p align='center'><b>Not quite!</b> The slider was not placed near the instructed located. Click on 'Continue' to try again. </p>","0","","","","","","","","","","","","","",""
"","","","","","html-slider-response","28","53026","0.0-11.2-0.2","n8vzc2ow1u","1","NaN","<div style=""width:500px;"">
                                    <p style=""font-size:25px;"">Please move the slider halfway between the center and left endpoint of the scale</p>

                                    </div>
                                </div>","-108","","0","","true","3","true","","","","","","","",""
"","","","","","html-button-response","29","53877","0.0-11.2-1.2","n8vzc2ow1u","1","349","<p align='center'><b>Good job!</b> Click on 'Continue' to proceed.</p>","0","","","","","","","","","","","","","",""
"","","","","","html-button-response","30","54424","0.0-12.0","n8vzc2ow1u","1","545","<p>Great job! You've completed the practice trials. Now you will begin the main task.</p>","0","","","","","","","","","","","","","",""
"","","","","","html-button-response","31","55234","0.0-13.0","n8vzc2ow1u","1","809","<p>In this block of trials, you will be asked to rate how much you associate each map with:</p > <p style = 'font-size:150%; font-weight: bold'>calm</p><br></br>","0","","","","","","","","","","","","","",""
"","","","","","html-slider-response","32","197572","0.0-14.0","n8vzc2ow1u","1","NaN","<div style=""width:500px;"">
                            <p style=""font-size:50px; font-weight:bold;""
                            >calm</p>
                            <div style=""width:240px; margin: auto;"">
                                <img src=""images/R_L_U_7_darkshift.png"" style= ""width:200px""alt=""img"">
                            </div>
                        </div>","140","","0","images/R_L_U_7_darkshift.png","","","","calm","2","R","L","U","darkshift","",""
"","","","","","html-slider-response","33","198502","0.0-15.0","n8vzc2ow1u","1","NaN","<div style=""width:500px;"">
                            <p style=""font-size:50px; font-weight:bold;""
                            >calm</p>
                            <div style=""width:240px; margin: auto;"">
                                <img src=""images/R_D_U_12_lightshift.png"" style= ""width:200px""alt=""img"">
                            </div>
                        </div>","140","","0","images/R_D_U_12_lightshift.png","","","","calm","2","R","D","U","lightshift","",""
"","","","","","html-slider-response","34","199290","0.0-16.0","n8vzc2ow1u","1","NaN","<div style=""width:500px;"">
                            <p style=""font-size:50px; font-weight:bold;""
                            >calm</p>
                            <div style=""width:240px; margin: auto;"">
                                <img src=""images/G_L_S_13_lightshift.png"" style= ""width:200px""alt=""img"">
                            </div>
                        </div>","140","","0","images/G_L_S_13_lightshift.png","","","","calm","1","G","L","S","lightshift","",""
"","","","","","html-slider-response","35","200070","0.0-17.0","n8vzc2ow1u","1","NaN","<div style=""width:500px;"">
                            <p style=""font-size:50px; font-weight:bold;""
                            >calm</p>
                            <div style=""width:240px; margin: auto;"">
                                <img src=""images/Y_D_U_2_darkshift.png"" style= ""width:200px""alt=""img"">
                            </div>
                        </div>","141","","0","images/Y_D_U_2_darkshift.png","","","","calm","1","Y","D","U","darkshift","",""
"","","","","","html-slider-response","36","200902","0.0-18.0","n8vzc2ow1u","1","NaN","<div style=""width:500px;"">
                            <p style=""font-size:50px; font-weight:bold;""
                            >calm</p>
                            <div style=""width:240px; margin: auto;"">
                                <img src=""images/B_L_S_27_lightshift.png"" style= ""width:200px""alt=""img"">
                            </div>
                        </div>","141","","0","images/B_L_S_27_lightshift.png","","","","calm","1","B","L","S","lightshift","",""
"","","","","","html-slider-response","37","201681","0.0-19.0","n8vzc2ow1u","1","NaN","<div style=""width:500px;"">
                            <p style=""font-size:50px; font-weight:bold;""
                            >calm</p>
                            <div style=""width:240px; margin: auto;"">
                                <img src=""images/B_D_U_33_darkshift.png"" style= ""width:200px""alt=""img"">
                            </div>
                        </div>","141","","0","images/B_D_U_33_darkshift.png","","","","calm","2","B","D","U","darkshift","",""
"","","","","","html-slider-response","38","202702","0.0-20.0","n8vzc2ow1u","1","NaN","<div style=""width:500px;"">
                            <p style=""font-size:50px; font-weight:bold;""
                            >calm</p>
                            <div style=""width:240px; margin: auto;"">
                                <img src=""images/Y_L_S_37_lightshift.png"" style= ""width:200px""alt=""img"">
                            </div>
                        </div>","141","","0","images/Y_L_S_37_lightshift.png","","","","calm","2","Y","L","S","lightshift","",""
"","","","","","html-slider-response","39","203377","0.0-21.0","n8vzc2ow1u","1","NaN","<div style=""width:500px;"">
                            <p style=""font-size:50px; font-weight:bold;""
                            >calm</p>
                            <div style=""width:240px; margin: auto;"">
                                <img src=""images/B_L_S_27_darkshift.png"" style= ""width:200px""alt=""img"">
                            </div>
                        </div>","141","","0","images/B_L_S_27_darkshift.png","","","","calm","2","B","L","S","darkshift","",""
"","","","","","html-slider-response","40","204164","0.0-22.0","n8vzc2ow1u","1","NaN","<div style=""width:500px;"">
                            <p style=""font-size:50px; font-weight:bold;""
                            >calm</p>
                            <div style=""width:240px; margin: auto;"">
                                <img src=""images/R_D_S_10_darkshift.png"" style= ""width:200px""alt=""img"">
                            </div>
                        </div>","141","","0","images/R_D_S_10_darkshift.png","","","","calm","2","R","D","S","darkshift","",""
"","","","","","html-slider-response","41","205043","0.0-23.0","n8vzc2ow1u","1","NaN","<div style=""width:500px;"">
                            <p style=""font-size:50px; font-weight:bold;""
                            >calm</p>
                            <div style=""width:240px; margin: auto;"">
                                <img src=""images/Y_D_U_2_lightshift.png"" style= ""width:200px""alt=""img"">
                            </div>
                        </div>","141","","0","images/Y_D_U_2_lightshift.png","","","","calm","1","Y","D","U","lightshift","",""
"","","","","","html-slider-response","42","205793","0.0-24.0","n8vzc2ow1u","1","NaN","<div style=""width:500px;"">
                            <p style=""font-size:50px; font-weight:bold;""
                            >calm</p>
                            <div style=""width:240px; margin: auto;"">
                                <img src=""images/B_L_S_27_darkshift.png"" style= ""width:200px""alt=""img"">
                            </div>
                        </div>","141","","0","images/B_L_S_27_darkshift.png","","","","calm","1","B","L","S","darkshift","",""
"","","","","","html-slider-response","43","206684","0.0-25.0","n8vzc2ow1u","1","NaN","<div style=""width:500px;"">
                            <p style=""font-size:50px; font-weight:bold;""
                            >calm</p>
                            <div style=""width:240px; margin: auto;"">
                                <img src=""images/R_L_U_7_darkshift.png"" style= ""width:200px""alt=""img"">
                            </div>
                        </div>","141","","0","images/R_L_U_7_darkshift.png","","","","calm","1","R","L","U","darkshift","",""
"","","","","","html-slider-response","44","207397","0.0-26.0","n8vzc2ow1u","1","NaN","<div style=""width:500px;"">
                            <p style=""font-size:50px; font-weight:bold;""
                            >calm</p>
                            <div style=""width:240px; margin: auto;"">
                                <img src=""images/R_D_U_12_lightshift.png"" style= ""width:200px""alt=""img"">
                            </div>
                        </div>","141","","0","images/R_D_U_12_lightshift.png","","","","calm","1","R","D","U","lightshift","",""
"","","","","","html-slider-response","45","208179","0.0-27.0","n8vzc2ow1u","1","NaN","<div style=""width:500px;"">
                            <p style=""font-size:50px; font-weight:bold;""
                            >calm</p>
                            <div style=""width:240px; margin: auto;"">
                                <img src=""images/G_D_U_26_lightshift.png"" style= ""width:200px""alt=""img"">
                            </div>
                        </div>","141","","0","images/G_D_U_26_lightshift.png","","","","calm","1","G","D","U","lightshift","",""
"","","","","","html-slider-response","46","209325","0.0-28.0","n8vzc2ow1u","1","NaN","<div style=""width:500px;"">
                            <p style=""font-size:50px; font-weight:bold;""
                            >calm</p>
                            <div style=""width:240px; margin: auto;"">
                                <img src=""images/B_D_S_30_darkshift.png"" style= ""width:200px""alt=""img"">
                            </div>
                        </div>","141","","0","images/B_D_S_30_darkshift.png","","","","calm","1","B","D","S","darkshift","",""
"","","","","","html-slider-response","47","210412","0.0-29.0","n8vzc2ow1u","1","NaN","<div style=""width:500px;"">
                            <p style=""font-size:50px; font-weight:bold;""
                            >calm</p>
                            <div style=""width:240px; margin: auto;"">
                                <img src=""images/G_L_U_15_darkshift.png"" style= ""width:200px""alt=""img"">
                            </div>
                        </div>","141","","0","images/G_L_U_15_darkshift.png","","","","calm","1","G","L","U","darkshift","",""
"","","","","","html-slider-response","48","211095","0.0-30.0","n8vzc2ow1u","1","NaN","<div style=""width:500px;"">
                            <p style=""font-size:50px; font-weight:bold;""
                            >calm</p>
                            <div style=""width:240px; margin: auto;"">
                                <img src=""images/Y_D_U_2_lightshift.png"" style= ""width:200px""alt=""img"">
                            </div>
                        </div>","141","","0","images/Y_D_U_2_lightshift.png","","","","calm","2","Y","D","U","lightshift","",""
"","","","","","html-slider-response","49","211784","0.0-31.0","n8vzc2ow1u","1","NaN","<div style=""width:500px;"">
                            <p style=""font-size:50px; font-weight:bold;""
                            >calm</p>
                            <div style=""width:240px; margin: auto;"">
                                <img src=""images/Y_L_U_41_lightshift.png"" style= ""width:200px""alt=""img"">
                            </div>
                        </div>","141","","0","images/Y_L_U_41_lightshift.png","","","","calm","1","Y","L","U","lightshift","",""
"","","","","","html-slider-response","50","212633","0.0-32.0","n8vzc2ow1u","1","NaN","<div style=""width:500px;"">
                            <p style=""font-size:50px; font-weight:bold;""
                            >calm</p>
                            <div style=""width:240px; margin: auto;"">
                                <img src=""images/Y_D_S_44_lightshift.png"" style= ""width:200px""alt=""img"">
                            </div>
                        </div>","141","","0","images/Y_D_S_44_lightshift.png","","","","calm","1","Y","D","S","lightshift","",""
"","","","","","html-slider-response","51","213517","0.0-33.0","n8vzc2ow1u","1","NaN","<div style=""width:500px;"">
                            <p style=""font-size:50px; font-weight:bold;""
                            >calm</p>
                            <div style=""width:240px; margin: auto;"">
                                <img src=""images/Y_L_U_41_darkshift.png"" style= ""width:200px""alt=""img"">
                            </div>
                        </div>","141","","0","images/Y_L_U_41_darkshift.png","","","","calm","2","Y","L","U","darkshift","",""
"","","","","","html-slider-response","52","214387","0.0-34.0","n8vzc2ow1u","1","NaN","<div style=""width:500px;"">
                            <p style=""font-size:50px; font-weight:bold;""
                            >calm</p>
                            <div style=""width:240px; margin: auto;"">
                                <img src=""images/R_L_S_5_lightshift.png"" style= ""width:200px""alt=""img"">
                            </div>
                        </div>","141","","0","images/R_L_S_5_lightshift.png","","","","calm","2","R","L","S","lightshift","",""
"","","","","","html-slider-response","53","215070","0.0-35.0","n8vzc2ow1u","1","NaN","<div style=""width:500px;"">
                            <p style=""font-size:50px; font-weight:bold;""
                            >calm</p>
                            <div style=""width:240px; margin: auto;"">
                                <img src=""images/G_L_S_13_lightshift.png"" style= ""width:200px""alt=""img"">
                            </div>
                        </div>","141","","0","images/G_L_S_13_lightshift.png","","","","calm","2","G","L","S","lightshift","",""
"","","","","","html-slider-response","54","215828","0.0-36.0","n8vzc2ow1u","1","NaN","<div style=""width:500px;"">
                            <p style=""font-size:50px; font-weight:bold;""
                            >calm</p>
                            <div style=""width:240px; margin: auto;"">
                                <img src=""images/R_D_S_10_lightshift.png"" style= ""width:200px""alt=""img"">
                            </div>
                        </div>","141","","0","images/R_D_S_10_lightshift.png","","","","calm","1","R","D","S","lightshift","",""
"","","","","","html-slider-response","55","216736","0.0-37.0","n8vzc2ow1u","1","NaN","<div style=""width:500px;"">
                            <p style=""font-size:50px; font-weight:bold;""
                            >calm</p>
                            <div style=""width:240px; margin: auto;"">
                                <img src=""images/R_D_U_12_darkshift.png"" style= ""width:200px""alt=""img"">
                            </div>
                        </div>","141","","0","images/R_D_U_12_darkshift.png","","","","calm","1","R","D","U","darkshift","",""
"","","","","","html-slider-response","56","217561","0.0-38.0","n8vzc2ow1u","1","NaN","<div style=""width:500px;"">
                            <p style=""font-size:50px; font-weight:bold;""
                            >calm</p>
                            <div style=""width:240px; margin: auto;"">
                                <img src=""images/Y_D_S_44_lightshift.png"" style= ""width:200px""alt=""img"">
                            </div>
                        </div>","141","","0","images/Y_D_S_44_lightshift.png","","","","calm","2","Y","D","S","lightshift","",""
"","","","","","html-slider-response","57","218205","0.0-39.0","n8vzc2ow1u","1","NaN","<div style=""width:500px;"">
                            <p style=""font-size:50px; font-weight:bold;""
                            >calm</p>
                            <div style=""width:240px; margin: auto;"">
                                <img src=""images/G_D_S_23_darkshift.png"" style= ""width:200px""alt=""img"">
                            </div>
                        </div>","141","","0","images/G_D_S_23_darkshift.png","","","","calm","1","G","D","S","darkshift","",""
"","","","","","html-slider-response","58","218843","0.0-40.0","n8vzc2ow1u","1","NaN","<div style=""width:500px;"">
                            <p style=""font-size:50px; font-weight:bold;""
                            >calm</p>
                            <div style=""width:240px; margin: auto;"">
                                <img src=""images/R_L_U_7_lightshift.png"" style= ""width:200px""alt=""img"">
                            </div>
                        </div>","141","","0","images/R_L_U_7_lightshift.png","","","","calm","1","R","L","U","lightshift","",""
"","","","","","html-slider-response","59","219495","0.0-41.0","n8vzc2ow1u","1","NaN","<div style=""width:500px;"">
                            <p style=""font-size:50px; font-weight:bold;""
                            >calm</p>
                            <div style=""width:240px; margin: auto;"">
                                <img src=""images/B_L_U_28_lightshift.png"" style= ""width:200px""alt=""img"">
                            </div>
                        </div>","141","","0","images/B_L_U_28_lightshift.png","","","","calm","1","B","L","U","lightshift","",""
"","","","","","html-slider-response","60","220134","0.0-42.0","n8vzc2ow1u","1","NaN","<div style=""width:500px;"">
                            <p style=""font-size:50px; font-weight:bold;""
                            >calm</p>
                            <div style=""width:240px; margin: auto;"">
                                <img src=""images/B_D_S_30_lightshift.png"" style= ""width:200px""alt=""img"">
                            </div>
                        </div>","141","","0","images/B_D_S_30_lightshift.png","","","","calm","2","B","D","S","lightshift","",""
"","","","","","html-slider-response","61","220778","0.0-43.0","n8vzc2ow1u","1","NaN","<div style=""width:500px;"">
                            <p style=""font-size:50px; font-weight:bold;""
                            >calm</p>
                            <div style=""width:240px; margin: auto;"">
                                <img src=""images/Y_D_U_2_darkshift.png"" style= ""width:200px""alt=""img"">
                            </div>
                        </div>","141","","0","images/Y_D_U_2_darkshift.png","","","","calm","2","Y","D","U","darkshift","",""
"","","","","","html-slider-response","62","221429","0.0-44.0","n8vzc2ow1u","1","NaN","<div style=""width:500px;"">
                            <p style=""font-size:50px; font-weight:bold;""
                            >calm</p>
                            <div style=""width:240px; margin: auto;"">
                                <img src=""images/Y_L_S_37_darkshift.png"" style= ""width:200px""alt=""img"">
                            </div>
                        </div>","141","","0","images/Y_L_S_37_darkshift.png","","","","calm","1","Y","L","S","darkshift","",""
"","","","","","html-slider-response","63","222075","0.0-45.0","n8vzc2ow1u","1","NaN","<div style=""width:500px;"">
                            <p style=""font-size:50px; font-weight:bold;""
                            >calm</p>
                            <div style=""width:240px; margin: auto;"">
                                <img src=""images/G_L_S_13_darkshift.png"" style= ""width:200px""alt=""img"">
                            </div>
                        </div>","141","","0","images/G_L_S_13_darkshift.png","","","","calm","2","G","L","S","darkshift","",""
"","","","","","html-slider-response","64","222764","0.0-46.0","n8vzc2ow1u","1","NaN","<div style=""width:500px;"">
                            <p style=""font-size:50px; font-weight:bold;""
                            >calm</p>
                            <div style=""width:240px; margin: auto;"">
                                <img src=""images/G_D_U_26_darkshift.png"" style= ""width:200px""alt=""img"">
                            </div>
                        </div>","141","","0","images/G_D_U_26_darkshift.png","","","","calm","1","G","D","U","darkshift","",""
"","","","","","html-slider-response","65","223441","0.0-47.0","n8vzc2ow1u","1","NaN","<div style=""width:500px;"">
                            <p style=""font-size:50px; font-weight:bold;""
                            >calm</p>
                            <div style=""width:240px; margin: auto;"">
                                <img src=""images/Y_L_U_41_darkshift.png"" style= ""width:200px""alt=""img"">
                            </div>
                        </div>","141","","0","images/Y_L_U_41_darkshift.png","","","","calm","1","Y","L","U","darkshift","",""
"","","","","","html-slider-response","66","224100","0.0-48.0","n8vzc2ow1u","1","NaN","<div style=""width:500px;"">
                            <p style=""font-size:50px; font-weight:bold;""
                            >calm</p>
                            <div style=""width:240px; margin: auto;"">
                                <img src=""images/R_L_S_5_darkshift.png"" style= ""width:200px""alt=""img"">
                            </div>
                        </div>","141","","0","images/R_L_S_5_darkshift.png","","","","calm","2","R","L","S","darkshift","",""
"","","","","","html-slider-response","67","224768","0.0-49.0","n8vzc2ow1u","1","NaN","<div style=""width:500px;"">
                            <p style=""font-size:50px; font-weight:bold;""
                            >calm</p>
                            <div style=""width:240px; margin: auto;"">
                                <img src=""images/G_D_U_26_lightshift.png"" style= ""width:200px""alt=""img"">
                            </div>
                        </div>","141","","0","images/G_D_U_26_lightshift.png","","","","calm","2","G","D","U","lightshift","",""
"","","","","","html-slider-response","68","225429","0.0-50.0","n8vzc2ow1u","1","NaN","<div style=""width:500px;"">
                            <p style=""font-size:50px; font-weight:bold;""
                            >calm</p>
                            <div style=""width:240px; margin: auto;"">
                                <img src=""images/R_L_U_7_lightshift.png"" style= ""width:200px""alt=""img"">
                            </div>
                        </div>","141","","0","images/R_L_U_7_lightshift.png","","","","calm","2","R","L","U","lightshift","",""
"","","","","","html-slider-response","69","226126","0.0-51.0","n8vzc2ow1u","1","NaN","<div style=""width:500px;"">
                            <p style=""font-size:50px; font-weight:bold;""
                            >calm</p>
                            <div style=""width:240px; margin: auto;"">
                                <img src=""images/R_L_S_5_darkshift.png"" style= ""width:200px""alt=""img"">
                            </div>
                        </div>","141","","0","images/R_L_S_5_darkshift.png","","","","calm","1","R","L","S","darkshift","",""
"","","","","","html-slider-response","70","226809","0.0-52.0","n8vzc2ow1u","1","NaN","<div style=""width:500px;"">
                            <p style=""font-size:50px; font-weight:bold;""
                            >calm</p>
                            <div style=""width:240px; margin: auto;"">
                                <img src=""images/B_D_U_33_lightshift.png"" style= ""width:200px""alt=""img"">
                            </div>
                        </div>","141","","0","images/B_D_U_33_lightshift.png","","","","calm","2","B","D","U","lightshift","",""
"","","","","","html-slider-response","71","227685","0.0-53.0","n8vzc2ow1u","1","NaN","<div style=""width:500px;"">
                            <p style=""font-size:50px; font-weight:bold;""
                            >calm</p>
                            <div style=""width:240px; margin: auto;"">
                                <img src=""images/R_D_S_10_lightshift.png"" style= ""width:200px""alt=""img"">
                            </div>
                        </div>","141","","0","images/R_D_S_10_lightshift.png","","","","calm","2","R","D","S","lightshift","",""
"","","","","","html-slider-response","72","228377","0.0-54.0","n8vzc2ow1u","1","NaN","<div style=""width:500px;"">
                            <p style=""font-size:50px; font-weight:bold;""
                            >calm</p>
                            <div style=""width:240px; margin: auto;"">
                                <img src=""images/B_D_U_33_lightshift.png"" style= ""width:200px""alt=""img"">
                            </div>
                        </div>","141","","0","images/B_D_U_33_lightshift.png","","","","calm","1","B","D","U","lightshift","",""
"","","","","","html-slider-response","73","229081","0.0-55.0","n8vzc2ow1u","1","NaN","<div style=""width:500px;"">
                            <p style=""font-size:50px; font-weight:bold;""
                            >calm</p>
                            <div style=""width:240px; margin: auto;"">
                                <img src=""images/B_D_U_33_darkshift.png"" style= ""width:200px""alt=""img"">
                            </div>
                        </div>","141","","0","images/B_D_U_33_darkshift.png","","","","calm","1","B","D","U","darkshift","",""
"","","","","","html-slider-response","74","229809","0.0-56.0","n8vzc2ow1u","1","NaN","<div style=""width:500px;"">
                            <p style=""font-size:50px; font-weight:bold;""
                            >calm</p>
                            <div style=""width:240px; margin: auto;"">
                                <img src=""images/G_D_S_23_lightshift.png"" style= ""width:200px""alt=""img"">
                            </div>
                        </div>","141","","0","images/G_D_S_23_lightshift.png","","","","calm","2","G","D","S","lightshift","",""
"","","","","","html-slider-response","75","230484","0.0-57.0","n8vzc2ow1u","1","NaN","<div style=""width:500px;"">
                            <p style=""font-size:50px; font-weight:bold;""
                            >calm</p>
                            <div style=""width:240px; margin: auto;"">
                                <img src=""images/B_L_U_28_darkshift.png"" style= ""width:200px""alt=""img"">
                            </div>
                        </div>","141","","0","images/B_L_U_28_darkshift.png","","","","calm","1","B","L","U","darkshift","",""
"","","","","","html-slider-response","76","231233","0.0-58.0","n8vzc2ow1u","1","NaN","<div style=""width:500px;"">
                            <p style=""font-size:50px; font-weight:bold;""
                            >calm</p>
                            <div style=""width:240px; margin: auto;"">
                                <img src=""images/R_D_U_12_darkshift.png"" style= ""width:200px""alt=""img"">
                            </div>
                        </div>","141","","0","images/R_D_U_12_darkshift.png","","","","calm","2","R","D","U","darkshift","",""
"","","","","","html-slider-response","77","232179","0.0-59.0","n8vzc2ow1u","1","NaN","<div style=""width:500px;"">
                            <p style=""font-size:50px; font-weight:bold;""
                            >calm</p>
                            <div style=""width:240px; margin: auto;"">
                                <img src=""images/R_D_S_10_darkshift.png"" style= ""width:200px""alt=""img"">
                            </div>
                        </div>","141","","0","images/R_D_S_10_darkshift.png","","","","calm","1","R","D","S","darkshift","",""
"","","","","","html-slider-response","78","233252","0.0-60.0","n8vzc2ow1u","1","NaN","<div style=""width:500px;"">
                            <p style=""font-size:50px; font-weight:bold;""
                            >calm</p>
                            <div style=""width:240px; margin: auto;"">
                                <img src=""images/B_D_S_30_darkshift.png"" style= ""width:200px""alt=""img"">
                            </div>
                        </div>","141","","0","images/B_D_S_30_darkshift.png","","","","calm","2","B","D","S","darkshift","",""
"","","","","","html-slider-response","79","234325","0.0-61.0","n8vzc2ow1u","1","NaN","<div style=""width:500px;"">
                            <p style=""font-size:50px; font-weight:bold;""
                            >calm</p>
                            <div style=""width:240px; margin: auto;"">
                                <img src=""images/G_L_U_15_lightshift.png"" style= ""width:200px""alt=""img"">
                            </div>
                        </div>","141","","0","images/G_L_U_15_lightshift.png","","","","calm","2","G","L","U","lightshift","",""
"","","","","","html-slider-response","80","235096","0.0-62.0","n8vzc2ow1u","1","NaN","<div style=""width:500px;"">
                            <p style=""font-size:50px; font-weight:bold;""
                            >calm</p>
                            <div style=""width:240px; margin: auto;"">
                                <img src=""images/B_D_S_30_lightshift.png"" style= ""width:200px""alt=""img"">
                            </div>
                        </div>","141","","0","images/B_D_S_30_lightshift.png","","","","calm","1","B","D","S","lightshift","",""
"","","","","","html-slider-response","81","236116","0.0-63.0","n8vzc2ow1u","1","NaN","<div style=""width:500px;"">
                            <p style=""font-size:50px; font-weight:bold;""
                            >calm</p>
                            <div style=""width:240px; margin: auto;"">
                                <img src=""images/G_D_U_26_darkshift.png"" style= ""width:200px""alt=""img"">
                            </div>
                        </div>","141","","0","images/G_D_U_26_darkshift.png","","","","calm","2","G","D","U","darkshift","",""
"","","","","","html-slider-response","82","236821","0.0-64.0","n8vzc2ow1u","1","NaN","<div style=""width:500px;"">
                            <p style=""font-size:50px; font-weight:bold;""
                            >calm</p>
                            <div style=""width:240px; margin: auto;"">
                                <img src=""images/B_L_S_27_lightshift.png"" style= ""width:200px""alt=""img"">
                            </div>
                        </div>","141","","0","images/B_L_S_27_lightshift.png","","","","calm","2","B","L","S","lightshift","",""
"","","","","","html-slider-response","83","238028","0.0-65.0","n8vzc2ow1u","1","NaN","<div style=""width:500px;"">
                            <p style=""font-size:50px; font-weight:bold;""
                            >calm</p>
                            <div style=""width:240px; margin: auto;"">
                                <img src=""images/Y_D_S_44_darkshift.png"" style= ""width:200px""alt=""img"">
                            </div>
                        </div>","141","","0","images/Y_D_S_44_darkshift.png","","","","calm","2","Y","D","S","darkshift","",""
"","","","","","html-slider-response","84","239311","0.0-66.0","n8vzc2ow1u","1","NaN","<div style=""width:500px;"">
                            <p style=""font-size:50px; font-weight:bold;""
                            >calm</p>
                            <div style=""width:240px; margin: auto;"">
                                <img src=""images/G_L_S_13_darkshift.png"" style= ""width:200px""alt=""img"">
                            </div>
                        </div>","141","","0","images/G_L_S_13_darkshift.png","","","","calm","1","G","L","S","darkshift","",""
"","","","","","html-slider-response","85","240745","0.0-67.0","n8vzc2ow1u","1","NaN","<div style=""width:500px;"">
                            <p style=""font-size:50px; font-weight:bold;""
                            >calm</p>
                            <div style=""width:240px; margin: auto;"">
                                <img src=""images/B_L_U_28_lightshift.png"" style= ""width:200px""alt=""img"">
                            </div>
                        </div>","141","","0","images/B_L_U_28_lightshift.png","","","","calm","2","B","L","U","lightshift","",""
"","","","","","html-slider-response","86","241607","0.0-68.0","n8vzc2ow1u","1","NaN","<div style=""width:500px;"">
                            <p style=""font-size:50px; font-weight:bold;""
                            >calm</p>
                            <div style=""width:240px; margin: auto;"">
                                <img src=""images/G_D_S_23_darkshift.png"" style= ""width:200px""alt=""img"">
                            </div>
                        </div>","141","","0","images/G_D_S_23_darkshift.png","","","","calm","2","G","D","S","darkshift","",""
"","","","","","html-slider-response","87","242904","0.0-69.0","n8vzc2ow1u","1","NaN","<div style=""width:500px;"">
                            <p style=""font-size:50px; font-weight:bold;""
                            >calm</p>
                            <div style=""width:240px; margin: auto;"">
                                <img src=""images/Y_D_S_44_darkshift.png"" style= ""width:200px""alt=""img"">
                            </div>
                        </div>","141","","0","images/Y_D_S_44_darkshift.png","","","","calm","1","Y","D","S","darkshift","",""
"","","","","","html-slider-response","88","244698","0.0-70.0","n8vzc2ow1u","1","NaN","<div style=""width:500px;"">
                            <p style=""font-size:50px; font-weight:bold;""
                            >calm</p>
                            <div style=""width:240px; margin: auto;"">
                                <img src=""images/R_L_S_5_lightshift.png"" style= ""width:200px""alt=""img"">
                            </div>
                        </div>","141","","0","images/R_L_S_5_lightshift.png","","","","calm","1","R","L","S","lightshift","",""
"","","","","","html-slider-response","89","247975","0.0-71.0","n8vzc2ow1u","1","NaN","<div style=""width:500px;"">
                            <p style=""font-size:50px; font-weight:bold;""
                            >calm</p>
                            <div style=""width:240px; margin: auto;"">
                                <img src=""images/G_D_S_23_lightshift.png"" style= ""width:200px""alt=""img"">
                            </div>
                        </div>","141","","0","images/G_D_S_23_lightshift.png","","","","calm","1","G","D","S","lightshift","",""
"","","","","","html-slider-response","90","248769","0.0-72.0","n8vzc2ow1u","1","NaN","<div style=""width:500px;"">
                            <p style=""font-size:50px; font-weight:bold;""
                            >calm</p>
                            <div style=""width:240px; margin: auto;"">
                                <img src=""images/Y_L_S_37_darkshift.png"" style= ""width:200px""alt=""img"">
                            </div>
                        </div>","141","","0","images/Y_L_S_37_darkshift.png","","","","calm","2","Y","L","S","darkshift","",""
"","","","","","html-slider-response","91","250201","0.0-73.0","n8vzc2ow1u","1","NaN","<div style=""width:500px;"">
                            <p style=""font-size:50px; font-weight:bold;""
                            >calm</p>
                            <div style=""width:240px; margin: auto;"">
                                <img src=""images/G_L_U_15_lightshift.png"" style= ""width:200px""alt=""img"">
                            </div>
                        </div>","142","","0","images/G_L_U_15_lightshift.png","","","","calm","1","G","L","U","lightshift","",""
"","","","","","html-slider-response","92","250915","0.0-74.0","n8vzc2ow1u","1","NaN","<div style=""width:500px;"">
                            <p style=""font-size:50px; font-weight:bold;""
                            >calm</p>
                            <div style=""width:240px; margin: auto;"">
                                <img src=""images/Y_L_S_37_lightshift.png"" style= ""width:200px""alt=""img"">
                            </div>
                        </div>","141","","0","images/Y_L_S_37_lightshift.png","","","","calm","1","Y","L","S","lightshift","",""
"","","","","","html-slider-response","93","251592","0.0-75.0","n8vzc2ow1u","1","NaN","<div style=""width:500px;"">
                            <p style=""font-size:50px; font-weight:bold;""
                            >calm</p>
                            <div style=""width:240px; margin: auto;"">
                                <img src=""images/B_L_U_28_darkshift.png"" style= ""width:200px""alt=""img"">
                            </div>
                        </div>","141","","0","images/B_L_U_28_darkshift.png","","","","calm","2","B","L","U","darkshift","",""
"","","","","","html-slider-response","94","252349","0.0-76.0","n8vzc2ow1u","1","NaN","<div style=""width:500px;"">
                            <p style=""font-size:50px; font-weight:bold;""
                            >calm</p>
                            <div style=""width:240px; margin: auto;"">
                                <img src=""images/G_L_U_15_darkshift.png"" style= ""width:200px""alt=""img"">
                            </div>
                        </div>","141","","0","images/G_L_U_15_darkshift.png","","","","calm","2","G","L","U","darkshift","",""
"","","","","","html-slider-response","95","253734","0.0-77.0","n8vzc2ow1u","1","NaN","<div style=""width:500px;"">
                            <p style=""font-size:50px; font-weight:bold;""
                            >calm</p>
                            <div style=""width:240px; margin: auto;"">
                                <img src=""images/Y_L_U_41_lightshift.png"" style= ""width:200px""alt=""img"">
                            </div>
                        </div>","141","","0","images/Y_L_U_41_lightshift.png","","","","calm","2","Y","L","U","lightshift","",""
"","","","","","html-button-response","96","258082","0.0-78.0","n8vzc2ow1u","1","3844","<p>Great Job! You've finished block 1.<br></br> You have 3 block(s) left to go.<br></br></p>","0","","","","","","","","","","","","","",""
"","","","","","html-button-response","97","258540","0.0-79.0","n8vzc2ow1u","1","457","<p>In this block of trials, you will be asked to rate how much you associate each map with:</p > <p style = 'font-size:150%; font-weight: bold'>startling</p><br></br>","0","","","","","","","","","","","","","",""
"","","","","","html-slider-response","98","259526","0.0-80.0","n8vzc2ow1u","1","NaN","<div style=""width:500px;"">
                            <p style=""font-size:50px; font-weight:bold;""
                            >startling</p>
                            <div style=""width:240px; margin: auto;"">
                                <img src=""images/Y_L_S_37_lightshift.png"" style= ""width:200px""alt=""img"">
                            </div>
                        </div>","8","","0","images/Y_L_S_37_lightshift.png","","","","startling","1","Y","L","S","lightshift","",""
"","","","","","html-slider-response","99","260290","0.0-81.0","n8vzc2ow1u","1","NaN","<div style=""width:500px;"">
                            <p style=""font-size:50px; font-weight:bold;""
                            >startling</p>
                            <div style=""width:240px; margin: auto;"">
                                <img src=""images/G_D_S_23_darkshift.png"" style= ""width:200px""alt=""img"">
                            </div>
                        </div>","6","","0","images/G_D_S_23_darkshift.png","","","","startling","1","G","D","S","darkshift","",""
"","","","","","html-slider-response","100","261092","0.0-82.0","n8vzc2ow1u","1","NaN","<div style=""width:500px;"">
                            <p style=""font-size:50px; font-weight:bold;""
                            >startling</p>
                            <div style=""width:240px; margin: auto;"">
                                <img src=""images/B_D_S_30_darkshift.png"" style= ""width:200px""alt=""img"">
                            </div>
                        </div>","8","","0","images/B_D_S_30_darkshift.png","","","","startling","1","B","D","S","darkshift","",""
"","","","","","html-slider-response","101","261776","0.0-83.0","n8vzc2ow1u","1","NaN","<div style=""width:500px;"">
                            <p style=""font-size:50px; font-weight:bold;""
                            >startling</p>
                            <div style=""width:240px; margin: auto;"">
                                <img src=""images/Y_D_U_2_darkshift.png"" style= ""width:200px""alt=""img"">
                            </div>
                        </div>","17","","0","images/Y_D_U_2_darkshift.png","","","","startling","1","Y","D","U","darkshift","",""
"","","","","","html-slider-response","102","262590","0.0-84.0","n8vzc2ow1u","1","NaN","<div style=""width:500px;"">
                            <p style=""font-size:50px; font-weight:bold;""
                            >startling</p>
                            <div style=""width:240px; margin: auto;"">
                                <img src=""images/G_D_U_26_lightshift.png"" style= ""width:200px""alt=""img"">
                            </div>
                        </div>","17","","0","images/G_D_U_26_lightshift.png","","","","startling","2","G","D","U","lightshift","",""
"","","","","","html-slider-response","103","263237","0.0-85.0","n8vzc2ow1u","1","NaN","<div style=""width:500px;"">
                            <p style=""font-size:50px; font-weight:bold;""
                            >startling</p>
                            <div style=""width:240px; margin: auto;"">
                                <img src=""images/Y_D_S_44_lightshift.png"" style= ""width:200px""alt=""img"">
                            </div>
                        </div>","17","","0","images/Y_D_S_44_lightshift.png","","","","startling","2","Y","D","S","lightshift","",""
"","","","","","html-slider-response","104","263897","0.0-86.0","n8vzc2ow1u","1","NaN","<div style=""width:500px;"">
                            <p style=""font-size:50px; font-weight:bold;""
                            >startling</p>
                            <div style=""width:240px; margin: auto;"">
                                <img src=""images/Y_D_U_2_lightshift.png"" style= ""width:200px""alt=""img"">
                            </div>
                        </div>","17","","0","images/Y_D_U_2_lightshift.png","","","","startling","2","Y","D","U","lightshift","",""
"","","","","","html-slider-response","105","264565","0.0-87.0","n8vzc2ow1u","1","NaN","<div style=""width:500px;"">
                            <p style=""font-size:50px; font-weight:bold;""
                            >startling</p>
                            <div style=""width:240px; margin: auto;"">
                                <img src=""images/G_D_S_23_darkshift.png"" style= ""width:200px""alt=""img"">
                            </div>
                        </div>","17","","0","images/G_D_S_23_darkshift.png","","","","startling","2","G","D","S","darkshift","",""
"","","","","","html-slider-response","106","265211","0.0-88.0","n8vzc2ow1u","1","NaN","<div style=""width:500px;"">
                            <p style=""font-size:50px; font-weight:bold;""
                            >startling</p>
                            <div style=""width:240px; margin: auto;"">
                                <img src=""images/Y_L_S_37_lightshift.png"" style= ""width:200px""alt=""img"">
                            </div>
                        </div>","17","","0","images/Y_L_S_37_lightshift.png","","","","startling","2","Y","L","S","lightshift","",""
"","","","","","html-slider-response","107","265863","0.0-89.0","n8vzc2ow1u","1","NaN","<div style=""width:500px;"">
                            <p style=""font-size:50px; font-weight:bold;""
                            >startling</p>
                            <div style=""width:240px; margin: auto;"">
                                <img src=""images/R_D_U_12_lightshift.png"" style= ""width:200px""alt=""img"">
                            </div>
                        </div>","17","","0","images/R_D_U_12_lightshift.png","","","","startling","1","R","D","U","lightshift","",""
"","","","","","html-slider-response","108","266502","0.0-90.0","n8vzc2ow1u","1","NaN","<div style=""width:500px;"">
                            <p style=""font-size:50px; font-weight:bold;""
                            >startling</p>
                            <div style=""width:240px; margin: auto;"">
                                <img src=""images/R_L_S_5_lightshift.png"" style= ""width:200px""alt=""img"">
                            </div>
                        </div>","17","","0","images/R_L_S_5_lightshift.png","","","","startling","2","R","L","S","lightshift","",""
"","","","","","html-slider-response","109","267146","0.0-91.0","n8vzc2ow1u","1","NaN","<div style=""width:500px;"">
                            <p style=""font-size:50px; font-weight:bold;""
                            >startling</p>
                            <div style=""width:240px; margin: auto;"">
                                <img src=""images/Y_D_U_2_darkshift.png"" style= ""width:200px""alt=""img"">
                            </div>
                        </div>","17","","0","images/Y_D_U_2_darkshift.png","","","","startling","2","Y","D","U","darkshift","",""
"","","","","","html-slider-response","110","267769","0.0-92.0","n8vzc2ow1u","1","NaN","<div style=""width:500px;"">
                            <p style=""font-size:50px; font-weight:bold;""
                            >startling</p>
                            <div style=""width:240px; margin: auto;"">
                                <img src=""images/B_L_S_27_darkshift.png"" style= ""width:200px""alt=""img"">
                            </div>
                        </div>","17","","0","images/B_L_S_27_darkshift.png","","","","startling","1","B","L","S","darkshift","",""
"","","","","","html-slider-response","111","268479","0.0-93.0","n8vzc2ow1u","1","NaN","<div style=""width:500px;"">
                            <p style=""font-size:50px; font-weight:bold;""
                            >startling</p>
                            <div style=""width:240px; margin: auto;"">
                                <img src=""images/G_L_U_15_lightshift.png"" style= ""width:200px""alt=""img"">
                            </div>
                        </div>","17","","0","images/G_L_U_15_lightshift.png","","","","startling","1","G","L","U","lightshift","",""
"","","","","","html-slider-response","112","269133","0.0-94.0","n8vzc2ow1u","1","NaN","<div style=""width:500px;"">
                            <p style=""font-size:50px; font-weight:bold;""
                            >startling</p>
                            <div style=""width:240px; margin: auto;"">
                                <img src=""images/B_L_S_27_lightshift.png"" style= ""width:200px""alt=""img"">
                            </div>
                        </div>","17","","0","images/B_L_S_27_lightshift.png","","","","startling","1","B","L","S","lightshift","",""
"","","","","","html-slider-response","113","269786","0.0-95.0","n8vzc2ow1u","1","NaN","<div style=""width:500px;"">
                            <p style=""font-size:50px; font-weight:bold;""
                            >startling</p>
                            <div style=""width:240px; margin: auto;"">
                                <img src=""images/G_L_S_13_lightshift.png"" style= ""width:200px""alt=""img"">
                            </div>
                        </div>","17","","0","images/G_L_S_13_lightshift.png","","","","startling","1","G","L","S","lightshift","",""
"","","","","","html-slider-response","114","270446","0.0-96.0","n8vzc2ow1u","1","NaN","<div style=""width:500px;"">
                            <p style=""font-size:50px; font-weight:bold;""
                            >startling</p>
                            <div style=""width:240px; margin: auto;"">
                                <img src=""images/B_L_S_27_darkshift.png"" style= ""width:200px""alt=""img"">
                            </div>
                        </div>","17","","0","images/B_L_S_27_darkshift.png","","","","startling","2","B","L","S","darkshift","",""
"","","","","","html-slider-response","115","271120","0.0-97.0","n8vzc2ow1u","1","NaN","<div style=""width:500px;"">
                            <p style=""font-size:50px; font-weight:bold;""
                            >startling</p>
                            <div style=""width:240px; margin: auto;"">
                                <img src=""images/G_D_S_23_lightshift.png"" style= ""width:200px""alt=""img"">
                            </div>
                        </div>","17","","0","images/G_D_S_23_lightshift.png","","","","startling","2","G","D","S","lightshift","",""
"","","","","","html-slider-response","116","271795","0.0-98.0","n8vzc2ow1u","1","NaN","<div style=""width:500px;"">
                            <p style=""font-size:50px; font-weight:bold;""
                            >startling</p>
                            <div style=""width:240px; margin: auto;"">
                                <img src=""images/G_D_U_26_darkshift.png"" style= ""width:200px""alt=""img"">
                            </div>
                        </div>","17","","0","images/G_D_U_26_darkshift.png","","","","startling","2","G","D","U","darkshift","",""
"","","","","","html-slider-response","117","272486","0.0-99.0","n8vzc2ow1u","1","NaN","<div style=""width:500px;"">
                            <p style=""font-size:50px; font-weight:bold;""
                            >startling</p>
                            <div style=""width:240px; margin: auto;"">
                                <img src=""images/R_L_S_5_lightshift.png"" style= ""width:200px""alt=""img"">
                            </div>
                        </div>","17","","0","images/R_L_S_5_lightshift.png","","","","startling","1","R","L","S","lightshift","",""
"","","","","","html-slider-response","118","273124","0.0-100.0","n8vzc2ow1u","1","NaN","<div style=""width:500px;"">
                            <p style=""font-size:50px; font-weight:bold;""
                            >startling</p>
                            <div style=""width:240px; margin: auto;"">
                                <img src=""images/B_D_U_33_darkshift.png"" style= ""width:200px""alt=""img"">
                            </div>
                        </div>","17","","0","images/B_D_U_33_darkshift.png","","","","startling","2","B","D","U","darkshift","",""
"","","","","","html-slider-response","119","273805","0.0-101.0","n8vzc2ow1u","1","NaN","<div style=""width:500px;"">
                            <p style=""font-size:50px; font-weight:bold;""
                            >startling</p>
                            <div style=""width:240px; margin: auto;"">
                                <img src=""images/Y_L_U_41_darkshift.png"" style= ""width:200px""alt=""img"">
                            </div>
                        </div>","17","","0","images/Y_L_U_41_darkshift.png","","","","startling","1","Y","L","U","darkshift","",""
"","","","","","html-slider-response","120","274503","0.0-102.0","n8vzc2ow1u","1","NaN","<div style=""width:500px;"">
                            <p style=""font-size:50px; font-weight:bold;""
                            >startling</p>
                            <div style=""width:240px; margin: auto;"">
                                <img src=""images/R_D_U_12_darkshift.png"" style= ""width:200px""alt=""img"">
                            </div>
                        </div>","17","","0","images/R_D_U_12_darkshift.png","","","","startling","2","R","D","U","darkshift","",""
"","","","","","html-slider-response","121","275201","0.0-103.0","n8vzc2ow1u","1","NaN","<div style=""width:500px;"">
                            <p style=""font-size:50px; font-weight:bold;""
                            >startling</p>
                            <div style=""width:240px; margin: auto;"">
                                <img src=""images/Y_D_S_44_darkshift.png"" style= ""width:200px""alt=""img"">
                            </div>
                        </div>","17","","0","images/Y_D_S_44_darkshift.png","","","","startling","1","Y","D","S","darkshift","",""
"","","","","","html-slider-response","122","275875","0.0-104.0","n8vzc2ow1u","1","NaN","<div style=""width:500px;"">
                            <p style=""font-size:50px; font-weight:bold;""
                            >startling</p>
                            <div style=""width:240px; margin: auto;"">
                                <img src=""images/G_L_S_13_darkshift.png"" style= ""width:200px""alt=""img"">
                            </div>
                        </div>","17","","0","images/G_L_S_13_darkshift.png","","","","startling","1","G","L","S","darkshift","",""
"","","","","","html-slider-response","123","276565","0.0-105.0","n8vzc2ow1u","1","NaN","<div style=""width:500px;"">
                            <p style=""font-size:50px; font-weight:bold;""
                            >startling</p>
                            <div style=""width:240px; margin: auto;"">
                                <img src=""images/Y_D_S_44_lightshift.png"" style= ""width:200px""alt=""img"">
                            </div>
                        </div>","17","","0","images/Y_D_S_44_lightshift.png","","","","startling","1","Y","D","S","lightshift","",""
"","","","","","html-slider-response","124","277281","0.0-106.0","n8vzc2ow1u","1","NaN","<div style=""width:500px;"">
                            <p style=""font-size:50px; font-weight:bold;""
                            >startling</p>
                            <div style=""width:240px; margin: auto;"">
                                <img src=""images/G_L_S_13_darkshift.png"" style= ""width:200px""alt=""img"">
                            </div>
                        </div>","17","","0","images/G_L_S_13_darkshift.png","","","","startling","2","G","L","S","darkshift","",""
"","","","","","html-slider-response","125","277969","0.0-107.0","n8vzc2ow1u","1","NaN","<div style=""width:500px;"">
                            <p style=""font-size:50px; font-weight:bold;""
                            >startling</p>
                            <div style=""width:240px; margin: auto;"">
                                <img src=""images/B_D_S_30_lightshift.png"" style= ""width:200px""alt=""img"">
                            </div>
                        </div>","17","","0","images/B_D_S_30_lightshift.png","","","","startling","2","B","D","S","lightshift","",""
"","","","","","html-slider-response","126","278688","0.0-108.0","n8vzc2ow1u","1","NaN","<div style=""width:500px;"">
                            <p style=""font-size:50px; font-weight:bold;""
                            >startling</p>
                            <div style=""width:240px; margin: auto;"">
                                <img src=""images/Y_L_U_41_darkshift.png"" style= ""width:200px""alt=""img"">
                            </div>
                        </div>","17","","0","images/Y_L_U_41_darkshift.png","","","","startling","2","Y","L","U","darkshift","",""
"","","","","","html-slider-response","127","279363","0.0-109.0","n8vzc2ow1u","1","NaN","<div style=""width:500px;"">
                            <p style=""font-size:50px; font-weight:bold;""
                            >startling</p>
                            <div style=""width:240px; margin: auto;"">
                                <img src=""images/R_D_S_10_lightshift.png"" style= ""width:200px""alt=""img"">
                            </div>
                        </div>","17","","0","images/R_D_S_10_lightshift.png","","","","startling","1","R","D","S","lightshift","",""
"","","","","","html-slider-response","128","280077","0.0-110.0","n8vzc2ow1u","1","NaN","<div style=""width:500px;"">
                            <p style=""font-size:50px; font-weight:bold;""
                            >startling</p>
                            <div style=""width:240px; margin: auto;"">
                                <img src=""images/B_D_S_30_lightshift.png"" style= ""width:200px""alt=""img"">
                            </div>
                        </div>","17","","0","images/B_D_S_30_lightshift.png","","","","startling","1","B","D","S","lightshift","",""
"","","","","","html-slider-response","129","280812","0.0-111.0","n8vzc2ow1u","1","NaN","<div style=""width:500px;"">
                            <p style=""font-size:50px; font-weight:bold;""
                            >startling</p>
                            <div style=""width:240px; margin: auto;"">
                                <img src=""images/G_D_U_26_lightshift.png"" style= ""width:200px""alt=""img"">
                            </div>
                        </div>","17","","0","images/G_D_U_26_lightshift.png","","","","startling","1","G","D","U","lightshift","",""
"","","","","","html-slider-response","130","281524","0.0-112.0","n8vzc2ow1u","1","NaN","<div style=""width:500px;"">
                            <p style=""font-size:50px; font-weight:bold;""
                            >startling</p>
                            <div style=""width:240px; margin: auto;"">
                                <img src=""images/R_L_U_7_lightshift.png"" style= ""width:200px""alt=""img"">
                            </div>
                        </div>","17","","0","images/R_L_U_7_lightshift.png","","","","startling","2","R","L","U","lightshift","",""
"","","","","","html-slider-response","131","282251","0.0-113.0","n8vzc2ow1u","1","NaN","<div style=""width:500px;"">
                            <p style=""font-size:50px; font-weight:bold;""
                            >startling</p>
                            <div style=""width:240px; margin: auto;"">
                                <img src=""images/B_L_S_27_lightshift.png"" style= ""width:200px""alt=""img"">
                            </div>
                        </div>","17","","0","images/B_L_S_27_lightshift.png","","","","startling","2","B","L","S","lightshift","",""
"","","","","","html-slider-response","132","283167","0.0-114.0","n8vzc2ow1u","1","NaN","<div style=""width:500px;"">
                            <p style=""font-size:50px; font-weight:bold;""
                            >startling</p>
                            <div style=""width:240px; margin: auto;"">
                                <img src=""images/G_L_U_15_lightshift.png"" style= ""width:200px""alt=""img"">
                            </div>
                        </div>","17","","0","images/G_L_U_15_lightshift.png","","","","startling","2","G","L","U","lightshift","",""
"","","","","","html-slider-response","133","283826","0.0-115.0","n8vzc2ow1u","1","NaN","<div style=""width:500px;"">
                            <p style=""font-size:50px; font-weight:bold;""
                            >startling</p>
                            <div style=""width:240px; margin: auto;"">
                                <img src=""images/B_D_S_30_darkshift.png"" style= ""width:200px""alt=""img"">
                            </div>
                        </div>","17","","0","images/B_D_S_30_darkshift.png","","","","startling","2","B","D","S","darkshift","",""
"","","","","","html-slider-response","134","284509","0.0-116.0","n8vzc2ow1u","1","NaN","<div style=""width:500px;"">
                            <p style=""font-size:50px; font-weight:bold;""
                            >startling</p>
                            <div style=""width:240px; margin: auto;"">
                                <img src=""images/R_L_S_5_darkshift.png"" style= ""width:200px""alt=""img"">
                            </div>
                        </div>","17","","0","images/R_L_S_5_darkshift.png","","","","startling","1","R","L","S","darkshift","",""
"","","","","","html-slider-response","135","285191","0.0-117.0","n8vzc2ow1u","1","NaN","<div style=""width:500px;"">
                            <p style=""font-size:50px; font-weight:bold;""
                            >startling</p>
                            <div style=""width:240px; margin: auto;"">
                                <img src=""images/R_L_U_7_darkshift.png"" style= ""width:200px""alt=""img"">
                            </div>
                        </div>","17","","0","images/R_L_U_7_darkshift.png","","","","startling","2","R","L","U","darkshift","",""
"","","","","","html-slider-response","136","285866","0.0-118.0","n8vzc2ow1u","1","NaN","<div style=""width:500px;"">
                            <p style=""font-size:50px; font-weight:bold;""
                            >startling</p>
                            <div style=""width:240px; margin: auto;"">
                                <img src=""images/R_D_S_10_lightshift.png"" style= ""width:200px""alt=""img"">
                            </div>
                        </div>","17","","0","images/R_D_S_10_lightshift.png","","","","startling","2","R","D","S","lightshift","",""
"","","","","","html-slider-response","137","286549","0.0-119.0","n8vzc2ow1u","1","NaN","<div style=""width:500px;"">
                            <p style=""font-size:50px; font-weight:bold;""
                            >startling</p>
                            <div style=""width:240px; margin: auto;"">
                                <img src=""images/R_D_S_10_darkshift.png"" style= ""width:200px""alt=""img"">
                            </div>
                        </div>","17","","0","images/R_D_S_10_darkshift.png","","","","startling","1","R","D","S","darkshift","",""
"","","","","","html-slider-response","138","287239","0.0-120.0","n8vzc2ow1u","1","NaN","<div style=""width:500px;"">
                            <p style=""font-size:50px; font-weight:bold;""
                            >startling</p>
                            <div style=""width:240px; margin: auto;"">
                                <img src=""images/B_L_U_28_darkshift.png"" style= ""width:200px""alt=""img"">
                            </div>
                        </div>","17","","0","images/B_L_U_28_darkshift.png","","","","startling","1","B","L","U","darkshift","",""
"","","","","","html-slider-response","139","287936","0.0-121.0","n8vzc2ow1u","1","NaN","<div style=""width:500px;"">
                            <p style=""font-size:50px; font-weight:bold;""
                            >startling</p>
                            <div style=""width:240px; margin: auto;"">
                                <img src=""images/Y_L_U_41_lightshift.png"" style= ""width:200px""alt=""img"">
                            </div>
                        </div>","17","","0","images/Y_L_U_41_lightshift.png","","","","startling","1","Y","L","U","lightshift","",""
"","","","","","html-slider-response","140","288642","0.0-122.0","n8vzc2ow1u","1","NaN","<div style=""width:500px;"">
                            <p style=""font-size:50px; font-weight:bold;""
                            >startling</p>
                            <div style=""width:240px; margin: auto;"">
                                <img src=""images/R_D_S_10_darkshift.png"" style= ""width:200px""alt=""img"">
                            </div>
                        </div>","17","","0","images/R_D_S_10_darkshift.png","","","","startling","2","R","D","S","darkshift","",""
"","","","","","html-slider-response","141","289331","0.0-123.0","n8vzc2ow1u","1","NaN","<div style=""width:500px;"">
                            <p style=""font-size:50px; font-weight:bold;""
                            >startling</p>
                            <div style=""width:240px; margin: auto;"">
                                <img src=""images/R_L_S_5_darkshift.png"" style= ""width:200px""alt=""img"">
                            </div>
                        </div>","17","","0","images/R_L_S_5_darkshift.png","","","","startling","2","R","L","S","darkshift","",""
"","","","","","html-slider-response","142","290013","0.0-124.0","n8vzc2ow1u","1","NaN","<div style=""width:500px;"">
                            <p style=""font-size:50px; font-weight:bold;""
                            >startling</p>
                            <div style=""width:240px; margin: auto;"">
                                <img src=""images/G_D_U_26_darkshift.png"" style= ""width:200px""alt=""img"">
                            </div>
                        </div>","17","","0","images/G_D_U_26_darkshift.png","","","","startling","1","G","D","U","darkshift","",""
"","","","","","html-slider-response","143","290704","0.0-125.0","n8vzc2ow1u","1","NaN","<div style=""width:500px;"">
                            <p style=""font-size:50px; font-weight:bold;""
                            >startling</p>
                            <div style=""width:240px; margin: auto;"">
                                <img src=""images/Y_D_U_2_lightshift.png"" style= ""width:200px""alt=""img"">
                            </div>
                        </div>","17","","0","images/Y_D_U_2_lightshift.png","","","","startling","1","Y","D","U","lightshift","",""
"","","","","","html-slider-response","144","291613","0.0-126.0","n8vzc2ow1u","1","NaN","<div style=""width:500px;"">
                            <p style=""font-size:50px; font-weight:bold;""
                            >startling</p>
                            <div style=""width:240px; margin: auto;"">
                                <img src=""images/G_D_S_23_lightshift.png"" style= ""width:200px""alt=""img"">
                            </div>
                        </div>","17","","0","images/G_D_S_23_lightshift.png","","","","startling","1","G","D","S","lightshift","",""
"","","","","","html-slider-response","145","292316","0.0-127.0","n8vzc2ow1u","1","NaN","<div style=""width:500px;"">
                            <p style=""font-size:50px; font-weight:bold;""
                            >startling</p>
                            <div style=""width:240px; margin: auto;"">
                                <img src=""images/Y_D_S_44_darkshift.png"" style= ""width:200px""alt=""img"">
                            </div>
                        </div>","17","","0","images/Y_D_S_44_darkshift.png","","","","startling","2","Y","D","S","darkshift","",""
"","","","","","html-slider-response","146","292963","0.0-128.0","n8vzc2ow1u","1","NaN","<div style=""width:500px;"">
                            <p style=""font-size:50px; font-weight:bold;""
                            >startling</p>
                            <div style=""width:240px; margin: auto;"">
                                <img src=""images/R_L_U_7_lightshift.png"" style= ""width:200px""alt=""img"">
                            </div>
                        </div>","17","","0","images/R_L_U_7_lightshift.png","","","","startling","1","R","L","U","lightshift","",""
"","","","","","html-slider-response","147","293599","0.0-129.0","n8vzc2ow1u","1","NaN","<div style=""width:500px;"">
                            <p style=""font-size:50px; font-weight:bold;""
                            >startling</p>
                            <div style=""width:240px; margin: auto;"">
                                <img src=""images/B_D_U_33_lightshift.png"" style= ""width:200px""alt=""img"">
                            </div>
                        </div>","17","","0","images/B_D_U_33_lightshift.png","","","","startling","1","B","D","U","lightshift","",""
"","","","","","html-slider-response","148","294290","0.0-130.0","n8vzc2ow1u","1","NaN","<div style=""width:500px;"">
                            <p style=""font-size:50px; font-weight:bold;""
                            >startling</p>
                            <div style=""width:240px; margin: auto;"">
                                <img src=""images/Y_L_S_37_darkshift.png"" style= ""width:200px""alt=""img"">
                            </div>
                        </div>","17","","0","images/Y_L_S_37_darkshift.png","","","","startling","1","Y","L","S","darkshift","",""
"","","","","","html-slider-response","149","294972","0.0-131.0","n8vzc2ow1u","1","NaN","<div style=""width:500px;"">
                            <p style=""font-size:50px; font-weight:bold;""
                            >startling</p>
                            <div style=""width:240px; margin: auto;"">
                                <img src=""images/R_D_U_12_darkshift.png"" style= ""width:200px""alt=""img"">
                            </div>
                        </div>","17","","0","images/R_D_U_12_darkshift.png","","","","startling","1","R","D","U","darkshift","",""
"","","","","","html-slider-response","150","295640","0.0-132.0","n8vzc2ow1u","1","NaN","<div style=""width:500px;"">
                            <p style=""font-size:50px; font-weight:bold;""
                            >startling</p>
                            <div style=""width:240px; margin: auto;"">
                                <img src=""images/B_L_U_28_lightshift.png"" style= ""width:200px""alt=""img"">
                            </div>
                        </div>","17","","0","images/B_L_U_28_lightshift.png","","","","startling","1","B","L","U","lightshift","",""
"","","","","","html-slider-response","151","296329","0.0-133.0","n8vzc2ow1u","1","NaN","<div style=""width:500px;"">
                            <p style=""font-size:50px; font-weight:bold;""
                            >startling</p>
                            <div style=""width:240px; margin: auto;"">
                                <img src=""images/B_D_U_33_darkshift.png"" style= ""width:200px""alt=""img"">
                            </div>
                        </div>","17","","0","images/B_D_U_33_darkshift.png","","","","startling","1","B","D","U","darkshift","",""
"","","","","","html-slider-response","152","297021","0.0-134.0","n8vzc2ow1u","1","NaN","<div style=""width:500px;"">
                            <p style=""font-size:50px; font-weight:bold;""
                            >startling</p>
                            <div style=""width:240px; margin: auto;"">
                                <img src=""images/Y_L_U_41_lightshift.png"" style= ""width:200px""alt=""img"">
                            </div>
                        </div>","17","","0","images/Y_L_U_41_lightshift.png","","","","startling","2","Y","L","U","lightshift","",""
"","","","","","html-slider-response","153","297881","0.0-135.0","n8vzc2ow1u","1","NaN","<div style=""width:500px;"">
                            <p style=""font-size:50px; font-weight:bold;""
                            >startling</p>
                            <div style=""width:240px; margin: auto;"">
                                <img src=""images/R_D_U_12_lightshift.png"" style= ""width:200px""alt=""img"">
                            </div>
                        </div>","17","","0","images/R_D_U_12_lightshift.png","","","","startling","2","R","D","U","lightshift","",""
"","","","","","html-slider-response","154","298572","0.0-136.0","n8vzc2ow1u","1","NaN","<div style=""width:500px;"">
                            <p style=""font-size:50px; font-weight:bold;""
                            >startling</p>
                            <div style=""width:240px; margin: auto;"">
                                <img src=""images/Y_L_S_37_darkshift.png"" style= ""width:200px""alt=""img"">
                            </div>
                        </div>","17","","0","images/Y_L_S_37_darkshift.png","","","","startling","2","Y","L","S","darkshift","",""
"","","","","","html-slider-response","155","299284","0.0-137.0","n8vzc2ow1u","1","NaN","<div style=""width:500px;"">
                            <p style=""font-size:50px; font-weight:bold;""
                            >startling</p>
                            <div style=""width:240px; margin: auto;"">
                                <img src=""images/G_L_S_13_lightshift.png"" style= ""width:200px""alt=""img"">
                            </div>
                        </div>","17","","0","images/G_L_S_13_lightshift.png","","","","startling","2","G","L","S","lightshift","",""
"","","","","","html-slider-response","156","299946","0.0-138.0","n8vzc2ow1u","1","NaN","<div style=""width:500px;"">
                            <p style=""font-size:50px; font-weight:bold;""
                            >startling</p>
                            <div style=""width:240px; margin: auto;"">
                                <img src=""images/B_D_U_33_lightshift.png"" style= ""width:200px""alt=""img"">
                            </div>
                        </div>","17","","0","images/B_D_U_33_lightshift.png","","","","startling","2","B","D","U","lightshift","",""
"","","","","","html-slider-response","157","300605","0.0-139.0","n8vzc2ow1u","1","NaN","<div style=""width:500px;"">
                            <p style=""font-size:50px; font-weight:bold;""
                            >startling</p>
                            <div style=""width:240px; margin: auto;"">
                                <img src=""images/R_L_U_7_darkshift.png"" style= ""width:200px""alt=""img"">
                            </div>
                        </div>","17","","0","images/R_L_U_7_darkshift.png","","","","startling","1","R","L","U","darkshift","",""
"","","","","","html-slider-response","158","301287","0.0-140.0","n8vzc2ow1u","1","NaN","<div style=""width:500px;"">
                            <p style=""font-size:50px; font-weight:bold;""
                            >startling</p>
                            <div style=""width:240px; margin: auto;"">
                                <img src=""images/G_L_U_15_darkshift.png"" style= ""width:200px""alt=""img"">
                            </div>
                        </div>","17","","0","images/G_L_U_15_darkshift.png","","","","startling","2","G","L","U","darkshift","",""
"","","","","","html-slider-response","159","301948","0.0-141.0","n8vzc2ow1u","1","NaN","<div style=""width:500px;"">
                            <p style=""font-size:50px; font-weight:bold;""
                            >startling</p>
                            <div style=""width:240px; margin: auto;"">
                                <img src=""images/G_L_U_15_darkshift.png"" style= ""width:200px""alt=""img"">
                            </div>
                        </div>","17","","0","images/G_L_U_15_darkshift.png","","","","startling","1","G","L","U","darkshift","",""
"","","","","","html-slider-response","160","302638","0.0-142.0","n8vzc2ow1u","1","NaN","<div style=""width:500px;"">
                            <p style=""font-size:50px; font-weight:bold;""
                            >startling</p>
                            <div style=""width:240px; margin: auto;"">
                                <img src=""images/B_L_U_28_lightshift.png"" style= ""width:200px""alt=""img"">
                            </div>
                        </div>","17","","0","images/B_L_U_28_lightshift.png","","","","startling","2","B","L","U","lightshift","",""
"","","","","","html-slider-response","161","303290","0.0-143.0","n8vzc2ow1u","1","NaN","<div style=""width:500px;"">
                            <p style=""font-size:50px; font-weight:bold;""
                            >startling</p>
                            <div style=""width:240px; margin: auto;"">
                                <img src=""images/B_L_U_28_darkshift.png"" style= ""width:200px""alt=""img"">
                            </div>
                        </div>","17","","0","images/B_L_U_28_darkshift.png","","","","startling","2","B","L","U","darkshift","",""
"","","","","","html-button-response","162","304959","0.0-144.0","n8vzc2ow1u","1","1166","<p>Great Job! You've finished block 2.<br></br> You have 2 block(s) left to go.<br></br></p>","0","","","","","","","","","","","","","",""
"","","","","","html-button-response","163","305679","0.0-145.0","n8vzc2ow1u","1","719","<p>In this block of trials, you will be asked to rate how much you associate each map with:</p > <p style = 'font-size:150%; font-weight: bold'>positive</p><br></br>","0","","","","","","","","","","","","","",""
"","","","","","html-slider-response","164","306433","0.0-146.0","n8vzc2ow1u","1","NaN","<div style=""width:500px;"">
                            <p style=""font-size:50px; font-weight:bold;""
                            >positive</p>
                            <div style=""width:240px; margin: auto;"">
                                <img src=""images/G_D_U_26_darkshift.png"" style= ""width:200px""alt=""img"">
                            </div>
                        </div>","-101","","0","images/G_D_U_26_darkshift.png","","","","positive","1","G","D","U","darkshift","",""
"","","","","","html-slider-response","165","307167","0.0-147.0","n8vzc2ow1u","1","NaN","<div style=""width:500px;"">
                            <p style=""font-size:50px; font-weight:bold;""
                            >positive</p>
                            <div style=""width:240px; margin: auto;"">
                                <img src=""images/R_L_S_5_lightshift.png"" style= ""width:200px""alt=""img"">
                            </div>
                        </div>","-104","","0","images/R_L_S_5_lightshift.png","","","","positive","2","R","L","S","lightshift","",""
"","","","","","html-slider-response","166","307857","0.0-148.0","n8vzc2ow1u","1","NaN","<div style=""width:500px;"">
                            <p style=""font-size:50px; font-weight:bold;""
                            >positive</p>
                            <div style=""width:240px; margin: auto;"">
                                <img src=""images/R_L_S_5_darkshift.png"" style= ""width:200px""alt=""img"">
                            </div>
                        </div>","-104","","0","images/R_L_S_5_darkshift.png","","","","positive","1","R","L","S","darkshift","",""
"","","","","","html-slider-response","167","308735","0.0-149.0","n8vzc2ow1u","1","NaN","<div style=""width:500px;"">
                            <p style=""font-size:50px; font-weight:bold;""
                            >positive</p>
                            <div style=""width:240px; margin: auto;"">
                                <img src=""images/R_L_U_7_darkshift.png"" style= ""width:200px""alt=""img"">
                            </div>
                        </div>","-104","","0","images/R_L_U_7_darkshift.png","","","","positive","1","R","L","U","darkshift","",""
"","","","","","html-slider-response","168","309514","0.0-150.0","n8vzc2ow1u","1","NaN","<div style=""width:500px;"">
                            <p style=""font-size:50px; font-weight:bold;""
                            >positive</p>
                            <div style=""width:240px; margin: auto;"">
                                <img src=""images/Y_D_U_2_lightshift.png"" style= ""width:200px""alt=""img"">
                            </div>
                        </div>","-104","","0","images/Y_D_U_2_lightshift.png","","","","positive","2","Y","D","U","lightshift","",""
"","","","","","html-slider-response","169","310181","0.0-151.0","n8vzc2ow1u","1","NaN","<div style=""width:500px;"">
                            <p style=""font-size:50px; font-weight:bold;""
                            >positive</p>
                            <div style=""width:240px; margin: auto;"">
                                <img src=""images/Y_L_U_41_lightshift.png"" style= ""width:200px""alt=""img"">
                            </div>
                        </div>","-103","","0","images/Y_L_U_41_lightshift.png","","","","positive","1","Y","L","U","lightshift","",""
"","","","","","html-slider-response","170","310880","0.0-152.0","n8vzc2ow1u","1","NaN","<div style=""width:500px;"">
                            <p style=""font-size:50px; font-weight:bold;""
                            >positive</p>
                            <div style=""width:240px; margin: auto;"">
                                <img src=""images/B_D_U_33_darkshift.png"" style= ""width:200px""alt=""img"">
                            </div>
                        </div>","-103","","0","images/B_D_U_33_darkshift.png","","","","positive","1","B","D","U","darkshift","",""
"","","","","","html-slider-response","171","311548","0.0-153.0","n8vzc2ow1u","1","NaN","<div style=""width:500px;"">
                            <p style=""font-size:50px; font-weight:bold;""
                            >positive</p>
                            <div style=""width:240px; margin: auto;"">
                                <img src=""images/G_L_U_15_lightshift.png"" style= ""width:200px""alt=""img"">
                            </div>
                        </div>","-103","","0","images/G_L_U_15_lightshift.png","","","","positive","1","G","L","U","lightshift","",""
"","","","","","html-slider-response","172","312214","0.0-154.0","n8vzc2ow1u","1","NaN","<div style=""width:500px;"">
                            <p style=""font-size:50px; font-weight:bold;""
                            >positive</p>
                            <div style=""width:240px; margin: auto;"">
                                <img src=""images/Y_D_U_2_darkshift.png"" style= ""width:200px""alt=""img"">
                            </div>
                        </div>","-103","","0","images/Y_D_U_2_darkshift.png","","","","positive","1","Y","D","U","darkshift","",""
"","","","","","html-slider-response","173","312867","0.0-155.0","n8vzc2ow1u","1","NaN","<div style=""width:500px;"">
                            <p style=""font-size:50px; font-weight:bold;""
                            >positive</p>
                            <div style=""width:240px; margin: auto;"">
                                <img src=""images/Y_L_U_41_lightshift.png"" style= ""width:200px""alt=""img"">
                            </div>
                        </div>","-103","","0","images/Y_L_U_41_lightshift.png","","","","positive","2","Y","L","U","lightshift","",""
"","","","","","html-slider-response","174","313542","0.0-156.0","n8vzc2ow1u","1","NaN","<div style=""width:500px;"">
                            <p style=""font-size:50px; font-weight:bold;""
                            >positive</p>
                            <div style=""width:240px; margin: auto;"">
                                <img src=""images/R_L_S_5_lightshift.png"" style= ""width:200px""alt=""img"">
                            </div>
                        </div>","-103","","0","images/R_L_S_5_lightshift.png","","","","positive","1","R","L","S","lightshift","",""
"","","","","","html-slider-response","175","314203","0.0-157.0","n8vzc2ow1u","1","NaN","<div style=""width:500px;"">
                            <p style=""font-size:50px; font-weight:bold;""
                            >positive</p>
                            <div style=""width:240px; margin: auto;"">
                                <img src=""images/R_L_S_5_darkshift.png"" style= ""width:200px""alt=""img"">
                            </div>
                        </div>","-103","","0","images/R_L_S_5_darkshift.png","","","","positive","2","R","L","S","darkshift","",""
"","","","","","html-slider-response","176","314871","0.0-158.0","n8vzc2ow1u","1","NaN","<div style=""width:500px;"">
                            <p style=""font-size:50px; font-weight:bold;""
                            >positive</p>
                            <div style=""width:240px; margin: auto;"">
                                <img src=""images/Y_D_S_44_darkshift.png"" style= ""width:200px""alt=""img"">
                            </div>
                        </div>","-103","","0","images/Y_D_S_44_darkshift.png","","","","positive","2","Y","D","S","darkshift","",""
"","","","","","html-slider-response","177","315546","0.0-159.0","n8vzc2ow1u","1","NaN","<div style=""width:500px;"">
                            <p style=""font-size:50px; font-weight:bold;""
                            >positive</p>
                            <div style=""width:240px; margin: auto;"">
                                <img src=""images/Y_L_S_37_darkshift.png"" style= ""width:200px""alt=""img"">
                            </div>
                        </div>","-103","","0","images/Y_L_S_37_darkshift.png","","","","positive","2","Y","L","S","darkshift","",""
"","","","","","html-slider-response","178","316220","0.0-160.0","n8vzc2ow1u","1","NaN","<div style=""width:500px;"">
                            <p style=""font-size:50px; font-weight:bold;""
                            >positive</p>
                            <div style=""width:240px; margin: auto;"">
                                <img src=""images/G_L_S_13_darkshift.png"" style= ""width:200px""alt=""img"">
                            </div>
                        </div>","-103","","0","images/G_L_S_13_darkshift.png","","","","positive","1","G","L","S","darkshift","",""
"","","","","","html-slider-response","179","316888","0.0-161.0","n8vzc2ow1u","1","NaN","<div style=""width:500px;"">
                            <p style=""font-size:50px; font-weight:bold;""
                            >positive</p>
                            <div style=""width:240px; margin: auto;"">
                                <img src=""images/R_D_U_12_darkshift.png"" style= ""width:200px""alt=""img"">
                            </div>
