"success","timeout","failed_images","failed_audio","failed_video","trial_type","trial_index","time_elapsed","internal_node_id","subject_id","condition_num","rt","stimulus","response","question_order","slider_start","image_path","practiceTrial","practiceTrialNum","correct","concept","repetition","hue","lightness","saturation","shift","ishihara_plate","correct_response"
"true","false","[]","[]","[]","preload","0","316","0.0-0.0","qda54zel6t","7","","","","","","","","","","","","","","","","",""
"","","","","","html-button-response","1","1568","0.0-1.0","qda54zel6t","7","1251","Welcome to our experiment!<p>At the bottom of this screen, you will see a button that says ""Begin Experiment"".<br>Please only click that button when you are ready to complete the 25 minute experiment in one sitting.</p><p> Once you click that button, it will not be possible to restart the experiment.","0","","","","","","","","","","","","","",""
"true","","","","","fullscreen","2","4537","0.0-2.0","qda54zel6t","7","1964","","","","","","","","","","","","","","","",""
"","","","","","survey-multi-select","3","17660","0.0-3.0","qda54zel6t","7","13117","","{""Consent"":[""<strong>I consent</strong>""]}","[0]","","","","","","","","","","","","",""
"","","","","","html-button-response","4","20324","0.0-4.0","qda54zel6t","7","2662","Welcome! <p> This experiment involves two parts: demographic information, followed by the experimental task.<p> It will take about 25 minutes to complete both parts.","0","","","","","","","","","","","","","",""
"","","","","","survey-text","5","35874","0.0-5.0","qda54zel6t","7","15536","","{""Age"":""19"",""Gender"":""female"",""Race/ethnicity"":""white"",""Languages"":""english""}","","","","","","","","","","","","","",""
"","","","","","html-slider-response","6","86918","0.0-6.0","qda54zel6t","7","51039","
                            <div style='text-align:left; font-size:20px; line-height:25px; width: 1400px;'>
                                During this experiment you will be asked to rate how much you associate maps with                    different concepts.<br> Below, you can see some examples of the maps you will be asked to rate. Next to the maps
                    is the list of concepts.<br>You will be asked                    to rate how much you associate each map with each concept on a scale from 'not at all' to 'very much' like the
                    one below. <br><br>
                    Now, please look at the list of concepts and maps. For each concept, think about the map you associate 'very
                    much' with the concept.<br>                     When you see that map during the experiment, please rate it near the 'very much' endpoint of the
                    scale.<br>Now, please think about which map you associate 'not at all'                     with each concept. When you see that map during the experiment, please rate it near the 'not at all' endpoint
                    of the scale.<br>
                    Please use the full range of the scale. That is, if a map is somewhat associated with the concept, you would
                    click partway between the middle point and right side of the scale.                    You will be asked to rate each map for a given concept before moving on to the next concept.<br><br>Press the
                    'Continue' button for instructions on how to use the slider.                    <br><br>
                </div>

                <div style=""width: 500px; margin: 0 auto;"">
                    <!-- Centered text paragraphs -->
                    <div style=""text-align: center; width: 500px;"">
                        <p style=""font-size:25px; line-height:18px;"">calm</p>
                        <p style=""font-size:25px; line-height:18px;"">positive</p>
                        <p style=""font-size:25px;line-height:18px;"">negative</p>
                        <p style=""font-size:25px;line-height:18px;"">startling</p>
                    </div>

                    <!-- Grid section -->
                   <div style=""display: flex; justify-content: center; padding-top: 15px;"">
                    <div style=""display: grid; grid-template-columns: repeat(8, 80px); grid-gap: 5px; width: auto;"">
                        <img src=""images/Y_D_S_13_lightshift.png"" alt=""map"" style=""width: 100%;""><img src=""images/R_D_U_28_lightshift.png"" alt=""map"" style=""width: 100%;""><img src=""images/R_L_S_23_lightshift.png"" alt=""map"" style=""width: 100%;""><img src=""images/B_L_S_44_darkshift.png"" alt=""map"" style=""width: 100%;""><img src=""images/B_L_S_44_lightshift.png"" alt=""map"" style=""width: 100%;""><img src=""images/R_L_S_23_darkshift.png"" alt=""map"" style=""width: 100%;""><img src=""images/Y_D_U_15_lightshift.png"" alt=""map"" style=""width: 100%;""><img src=""images/Y_L_S_10_lightshift.png"" alt=""map"" style=""width: 100%;""><img src=""images/G_D_S_37_darkshift.png"" alt=""map"" style=""width: 100%;""><img src=""images/G_L_U_33_lightshift.png"" alt=""map"" style=""width: 100%;""><img src=""images/G_L_S_30_darkshift.png"" alt=""map"" style=""width: 100%;""><img src=""images/G_D_U_41_lightshift.png"" alt=""map"" style=""width: 100%;""><img src=""images/R_D_S_27_lightshift.png"" alt=""map"" style=""width: 100%;""><img src=""images/G_D_U_41_darkshift.png"" alt=""map"" style=""width: 100%;""><img src=""images/B_D_U_7_lightshift.png"" alt=""map"" style=""width: 100%;""><img src=""images/R_L_U_26_lightshift.png"" alt=""map"" style=""width: 100%;""><img src=""images/Y_D_S_13_darkshift.png"" alt=""map"" style=""width: 100%;""><img src=""images/R_D_U_28_darkshift.png"" alt=""map"" style=""width: 100%;""><img src=""images/G_D_S_37_lightshift.png"" alt=""map"" style=""width: 100%;""><img src=""images/Y_L_S_10_darkshift.png"" alt=""map"" style=""width: 100%;""><img src=""images/Y_D_U_15_darkshift.png"" alt=""map"" style=""width: 100%;""><img src=""images/B_L_U_2_lightshift.png"" alt=""map"" style=""width: 100%;""><img src=""images/Y_L_U_12_darkshift.png"" alt=""map"" style=""width: 100%;""><img src=""images/R_D_S_27_darkshift.png"" alt=""map"" style=""width: 100%;""><img src=""images/R_L_U_26_darkshift.png"" alt=""map"" style=""width: 100%;""><img src=""images/B_D_U_7_darkshift.png"" alt=""map"" style=""width: 100%;""><img src=""images/G_L_U_33_darkshift.png"" alt=""map"" style=""width: 100%;""><img src=""images/G_L_S_30_lightshift.png"" alt=""map"" style=""width: 100%;""><img src=""images/B_D_S_5_lightshift.png"" alt=""map"" style=""width: 100%;""><img src=""images/B_D_S_5_darkshift.png"" alt=""map"" style=""width: 100%;""><img src=""images/B_L_U_2_darkshift.png"" alt=""map"" style=""width: 100%;""><img src=""images/Y_L_U_12_lightshift.png"" alt=""map"" style=""width: 100%;"">
                    </div>
                </div>

                    <!-- Clear floats -->
                    <div style=""clear: both;""></div>
                </div>
                            ","25","","0","maps_anchoring.png","true","","","","","","","","","",""
"","","","","","html-button-response","7","88530","0.0-7.0","qda54zel6t","7","1611","<div style=""width:800px;""><p style=""text-align:left"">To move the slider, click and drag your cursor to the location of the scale where you would like to make your rating and then let go. When you let go of the slider, your response will be recorded and the next trial will begin. <br>
                    We are interested in your initial impressions of each map for the given concept, so please go with your first intuition. <br>
                    Before you begin the experiment, there will be four training trials for you to practice using the scale. <br>
                     When you are ready to start the training trials, please click ""Continue"".</p><br></div>","0","","","","","","","","","","","","","",""
"","","","","","html-slider-response","8","91559","0.0-8.0-0.0","qda54zel6t","7","NaN","<div style=""width:500px;"">
                                    <p style=""font-size:25px;"">Please move the slider all the way to the <br> right endpoint of the scale</p>

                                    </div>
                                </div>","200","","0","","true","0","true","","","","","","","",""
"","","","","","html-button-response","9","93428","0.0-8.0-1.0","qda54zel6t","7","1366","<p align='center'><b>Good job!</b> Click on 'Continue' to proceed.</p>","0","","","","","","","","","","","","","",""
"","","","","","html-slider-response","10","95551","0.0-9.0-0.0","qda54zel6t","7","NaN","<div style=""width:500px;"">
                                    <p style=""font-size:25px;"">Please move the slider all the way to the <br> left endpoint of the scale</p>

                                    </div>
                                </div>","-200","","0","","true","1","true","","","","","","","",""
"","","","","","html-button-response","11","97566","0.0-9.0-1.0","qda54zel6t","7","1513","<p align='center'><b>Good job!</b> Click on 'Continue' to proceed.</p>","0","","","","","","","","","","","","","",""
"","","","","","html-slider-response","12","102829","0.0-10.0-0.0","qda54zel6t","7","NaN","<div style=""width:500px;"">
                                    <p style=""font-size:25px;"">Please move the slider halfway between the center and right endpoint of the scale</p>

                                    </div>
                                </div>","98","","0","","true","2","true","","","","","","","",""
"","","","","","html-button-response","13","104517","0.0-10.0-1.0","qda54zel6t","7","1184","<p align='center'><b>Good job!</b> Click on 'Continue' to proceed.</p>","0","","","","","","","","","","","","","",""
"","","","","","html-slider-response","14","106946","0.0-11.0-0.0","qda54zel6t","7","NaN","<div style=""width:500px;"">
                                    <p style=""font-size:25px;"">Please move the slider halfway between the center and left endpoint of the scale</p>

                                    </div>
                                </div>","-107","","0","","true","3","true","","","","","","","",""
"","","","","","html-button-response","15","108858","0.0-11.0-1.0","qda54zel6t","7","1410","<p align='center'><b>Good job!</b> Click on 'Continue' to proceed.</p>","0","","","","","","","","","","","","","",""
"","","","","","html-button-response","16","110238","0.0-12.0","qda54zel6t","7","1378","<p>Great job! You've completed the practice trials. Now you will begin the main task.</p>","0","","","","","","","","","","","","","",""
"","","","","","html-button-response","17","113253","0.0-13.0","qda54zel6t","7","3015","<p>In this block of trials, you will be asked to rate how much you associate each map with:</p > <p style = 'font-size:150%; font-weight: bold'>startling</p><br></br>","0","","","","","","","","","","","","","",""
"","","","","","html-slider-response","18","117109","0.0-14.0","qda54zel6t","7","NaN","<div style=""width:500px;"">
                            <p style=""font-size:50px; font-weight:bold;""
                            >startling</p>
                            <div style=""width:240px; margin: auto;"">
                                <img src=""images/Y_L_S_10_lightshift.png"" style= ""width:200px""alt=""img"">
                            </div>
                        </div>","-13","","0","images/Y_L_S_10_lightshift.png","","","","startling","1","Y","L","S","lightshift","",""
"","","","","","html-slider-response","19","119839","0.0-15.0","qda54zel6t","7","NaN","<div style=""width:500px;"">
                            <p style=""font-size:50px; font-weight:bold;""
                            >startling</p>
                            <div style=""width:240px; margin: auto;"">
                                <img src=""images/R_L_U_26_lightshift.png"" style= ""width:200px""alt=""img"">
                            </div>
                        </div>","-15","","0","images/R_L_U_26_lightshift.png","","","","startling","2","R","L","U","lightshift","",""
"","","","","","html-slider-response","20","121713","0.0-16.0","qda54zel6t","7","NaN","<div style=""width:500px;"">
                            <p style=""font-size:50px; font-weight:bold;""
                            >startling</p>
                            <div style=""width:240px; margin: auto;"">
                                <img src=""images/G_L_U_33_darkshift.png"" style= ""width:200px""alt=""img"">
                            </div>
                        </div>","19","","0","images/G_L_U_33_darkshift.png","","","","startling","1","G","L","U","darkshift","",""
"","","","","","html-slider-response","21","123780","0.0-17.0","qda54zel6t","7","NaN","<div style=""width:500px;"">
                            <p style=""font-size:50px; font-weight:bold;""
                            >startling</p>
                            <div style=""width:240px; margin: auto;"">
                                <img src=""images/B_D_U_7_darkshift.png"" style= ""width:200px""alt=""img"">
                            </div>
                        </div>","-20","","0","images/B_D_U_7_darkshift.png","","","","startling","1","B","D","U","darkshift","",""
"","","","","","html-slider-response","22","141416","0.0-18.0","qda54zel6t","7","NaN","<div style=""width:500px;"">
                            <p style=""font-size:50px; font-weight:bold;""
                            >startling</p>
                            <div style=""width:240px; margin: auto;"">
                                <img src=""images/B_L_U_2_darkshift.png"" style= ""width:200px""alt=""img"">
                            </div>
                        </div>","-72","","0","images/B_L_U_2_darkshift.png","","","","startling","1","B","L","U","darkshift","",""
"","","","","","html-slider-response","23","143485","0.0-19.0","qda54zel6t","7","NaN","<div style=""width:500px;"">
                            <p style=""font-size:50px; font-weight:bold;""
                            >startling</p>
                            <div style=""width:240px; margin: auto;"">
                                <img src=""images/B_L_S_44_lightshift.png"" style= ""width:200px""alt=""img"">
                            </div>
                        </div>","57","","0","images/B_L_S_44_lightshift.png","","","","startling","2","B","L","S","lightshift","",""
"","","","","","html-slider-response","24","145252","0.0-20.0","qda54zel6t","7","NaN","<div style=""width:500px;"">
                            <p style=""font-size:50px; font-weight:bold;""
                            >startling</p>
                            <div style=""width:240px; margin: auto;"">
                                <img src=""images/B_D_U_7_lightshift.png"" style= ""width:200px""alt=""img"">
                            </div>
                        </div>","-153","","0","images/B_D_U_7_lightshift.png","","","","startling","1","B","D","U","lightshift","",""
"","","","","","html-slider-response","25","146801","0.0-21.0","qda54zel6t","7","NaN","<div style=""width:500px;"">
                            <p style=""font-size:50px; font-weight:bold;""
                            >startling</p>
                            <div style=""width:240px; margin: auto;"">
                                <img src=""images/B_L_S_44_lightshift.png"" style= ""width:200px""alt=""img"">
                            </div>
                        </div>","19","","0","images/B_L_S_44_lightshift.png","","","","startling","1","B","L","S","lightshift","",""
"","","","","","html-slider-response","26","148480","0.0-22.0","qda54zel6t","7","NaN","<div style=""width:500px;"">
                            <p style=""font-size:50px; font-weight:bold;""
                            >startling</p>
                            <div style=""width:240px; margin: auto;"">
                                <img src=""images/Y_L_S_10_darkshift.png"" style= ""width:200px""alt=""img"">
                            </div>
                        </div>","-27","","0","images/Y_L_S_10_darkshift.png","","","","startling","2","Y","L","S","darkshift","",""
"","","","","","html-slider-response","27","150428","0.0-23.0","qda54zel6t","7","NaN","<div style=""width:500px;"">
                            <p style=""font-size:50px; font-weight:bold;""
                            >startling</p>
                            <div style=""width:240px; margin: auto;"">
                                <img src=""images/G_D_U_41_darkshift.png"" style= ""width:200px""alt=""img"">
                            </div>
                        </div>","-96","","0","images/G_D_U_41_darkshift.png","","","","startling","1","G","D","U","darkshift","",""
"","","","","","html-slider-response","28","152505","0.0-24.0","qda54zel6t","7","NaN","<div style=""width:500px;"">
                            <p style=""font-size:50px; font-weight:bold;""
                            >startling</p>
                            <div style=""width:240px; margin: auto;"">
                                <img src=""images/B_D_S_5_darkshift.png"" style= ""width:200px""alt=""img"">
                            </div>
                        </div>","51","","0","images/B_D_S_5_darkshift.png","","","","startling","1","B","D","S","darkshift","",""
"","","","","","html-slider-response","29","154499","0.0-25.0","qda54zel6t","7","NaN","<div style=""width:500px;"">
                            <p style=""font-size:50px; font-weight:bold;""
                            >startling</p>
                            <div style=""width:240px; margin: auto;"">
                                <img src=""images/B_D_U_7_lightshift.png"" style= ""width:200px""alt=""img"">
                            </div>
                        </div>","-111","","0","images/B_D_U_7_lightshift.png","","","","startling","2","B","D","U","lightshift","",""
"","","","","","html-slider-response","30","156397","0.0-26.0","qda54zel6t","7","NaN","<div style=""width:500px;"">
                            <p style=""font-size:50px; font-weight:bold;""
                            >startling</p>
                            <div style=""width:240px; margin: auto;"">
                                <img src=""images/R_D_S_27_lightshift.png"" style= ""width:200px""alt=""img"">
                            </div>
                        </div>","30","","0","images/R_D_S_27_lightshift.png","","","","startling","1","R","D","S","lightshift","",""
"","","","","","html-slider-response","31","157980","0.0-27.0","qda54zel6t","7","NaN","<div style=""width:500px;"">
                            <p style=""font-size:50px; font-weight:bold;""
                            >startling</p>
                            <div style=""width:240px; margin: auto;"">
                                <img src=""images/R_L_S_23_lightshift.png"" style= ""width:200px""alt=""img"">
                            </div>
                        </div>","20","","0","images/R_L_S_23_lightshift.png","","","","startling","1","R","L","S","lightshift","",""
"","","","","","html-slider-response","32","159897","0.0-28.0","qda54zel6t","7","NaN","<div style=""width:500px;"">
                            <p style=""font-size:50px; font-weight:bold;""
                            >startling</p>
                            <div style=""width:240px; margin: auto;"">
                                <img src=""images/R_D_S_27_darkshift.png"" style= ""width:200px""alt=""img"">
                            </div>
                        </div>","33","","0","images/R_D_S_27_darkshift.png","","","","startling","1","R","D","S","darkshift","",""
"","","","","","html-slider-response","33","161654","0.0-29.0","qda54zel6t","7","NaN","<div style=""width:500px;"">
                            <p style=""font-size:50px; font-weight:bold;""
                            >startling</p>
                            <div style=""width:240px; margin: auto;"">
                                <img src=""images/Y_D_S_13_darkshift.png"" style= ""width:200px""alt=""img"">
                            </div>
                        </div>","-50","","0","images/Y_D_S_13_darkshift.png","","","","startling","2","Y","D","S","darkshift","",""
"","","","","","html-slider-response","34","163544","0.0-30.0","qda54zel6t","7","NaN","<div style=""width:500px;"">
                            <p style=""font-size:50px; font-weight:bold;""
                            >startling</p>
                            <div style=""width:240px; margin: auto;"">
                                <img src=""images/G_L_U_33_lightshift.png"" style= ""width:200px""alt=""img"">
                            </div>
                        </div>","126","","0","images/G_L_U_33_lightshift.png","","","","startling","1","G","L","U","lightshift","",""
"","","","","","html-slider-response","35","165153","0.0-31.0","qda54zel6t","7","NaN","<div style=""width:500px;"">
                            <p style=""font-size:50px; font-weight:bold;""
                            >startling</p>
                            <div style=""width:240px; margin: auto;"">
                                <img src=""images/B_D_S_5_darkshift.png"" style= ""width:200px""alt=""img"">
                            </div>
                        </div>","30","","0","images/B_D_S_5_darkshift.png","","","","startling","2","B","D","S","darkshift","",""
"","","","","","html-slider-response","36","166805","0.0-32.0","qda54zel6t","7","NaN","<div style=""width:500px;"">
                            <p style=""font-size:50px; font-weight:bold;""
                            >startling</p>
                            <div style=""width:240px; margin: auto;"">
                                <img src=""images/Y_L_U_12_darkshift.png"" style= ""width:200px""alt=""img"">
                            </div>
                        </div>","-42","","0","images/Y_L_U_12_darkshift.png","","","","startling","1","Y","L","U","darkshift","",""
"","","","","","html-slider-response","37","168488","0.0-33.0","qda54zel6t","7","NaN","<div style=""width:500px;"">
                            <p style=""font-size:50px; font-weight:bold;""
                            >startling</p>
                            <div style=""width:240px; margin: auto;"">
                                <img src=""images/B_D_U_7_darkshift.png"" style= ""width:200px""alt=""img"">
                            </div>
                        </div>","-57","","0","images/B_D_U_7_darkshift.png","","","","startling","2","B","D","U","darkshift","",""
"","","","","","html-slider-response","38","170017","0.0-34.0","qda54zel6t","7","NaN","<div style=""width:500px;"">
                            <p style=""font-size:50px; font-weight:bold;""
                            >startling</p>
                            <div style=""width:240px; margin: auto;"">
                                <img src=""images/Y_D_U_15_darkshift.png"" style= ""width:200px""alt=""img"">
                            </div>
                        </div>","-80","","0","images/Y_D_U_15_darkshift.png","","","","startling","1","Y","D","U","darkshift","",""
"","","","","","html-slider-response","39","171794","0.0-35.0","qda54zel6t","7","NaN","<div style=""width:500px;"">
                            <p style=""font-size:50px; font-weight:bold;""
                            >startling</p>
                            <div style=""width:240px; margin: auto;"">
                                <img src=""images/G_L_S_30_lightshift.png"" style= ""width:200px""alt=""img"">
                            </div>
                        </div>","113","","0","images/G_L_S_30_lightshift.png","","","","startling","2","G","L","S","lightshift","",""
"","","","","","html-slider-response","40","173326","0.0-36.0","qda54zel6t","7","NaN","<div style=""width:500px;"">
                            <p style=""font-size:50px; font-weight:bold;""
                            >startling</p>
                            <div style=""width:240px; margin: auto;"">
                                <img src=""images/Y_L_S_10_lightshift.png"" style= ""width:200px""alt=""img"">
                            </div>
                        </div>","-10","","0","images/Y_L_S_10_lightshift.png","","","","startling","2","Y","L","S","lightshift","",""
"","","","","","html-slider-response","41","174706","0.0-37.0","qda54zel6t","7","NaN","<div style=""width:500px;"">
                            <p style=""font-size:50px; font-weight:bold;""
                            >startling</p>
                            <div style=""width:240px; margin: auto;"">
                                <img src=""images/Y_D_S_13_lightshift.png"" style= ""width:200px""alt=""img"">
                            </div>
                        </div>","-74","","0","images/Y_D_S_13_lightshift.png","","","","startling","1","Y","D","S","lightshift","",""
"","","","","","html-slider-response","42","176407","0.0-38.0","qda54zel6t","7","NaN","<div style=""width:500px;"">
                            <p style=""font-size:50px; font-weight:bold;""
                            >startling</p>
                            <div style=""width:240px; margin: auto;"">
                                <img src=""images/G_D_U_41_lightshift.png"" style= ""width:200px""alt=""img"">
                            </div>
                        </div>","-91","","0","images/G_D_U_41_lightshift.png","","","","startling","1","G","D","U","lightshift","",""
"","","","","","html-slider-response","43","177816","0.0-39.0","qda54zel6t","7","NaN","<div style=""width:500px;"">
                            <p style=""font-size:50px; font-weight:bold;""
                            >startling</p>
                            <div style=""width:240px; margin: auto;"">
                                <img src=""images/Y_L_S_10_darkshift.png"" style= ""width:200px""alt=""img"">
                            </div>
                        </div>","-70","","0","images/Y_L_S_10_darkshift.png","","","","startling","1","Y","L","S","darkshift","",""
"","","","","","html-slider-response","44","179947","0.0-40.0","qda54zel6t","7","NaN","<div style=""width:500px;"">
                            <p style=""font-size:50px; font-weight:bold;""
                            >startling</p>
                            <div style=""width:240px; margin: auto;"">
                                <img src=""images/B_L_U_2_lightshift.png"" style= ""width:200px""alt=""img"">
                            </div>
                        </div>","170","","0","images/B_L_U_2_lightshift.png","","","","startling","2","B","L","U","lightshift","",""
"","","","","","html-slider-response","45","181863","0.0-41.0","qda54zel6t","7","NaN","<div style=""width:500px;"">
                            <p style=""font-size:50px; font-weight:bold;""
                            >startling</p>
                            <div style=""width:240px; margin: auto;"">
                                <img src=""images/R_L_U_26_darkshift.png"" style= ""width:200px""alt=""img"">
                            </div>
                        </div>","122","","0","images/R_L_U_26_darkshift.png","","","","startling","1","R","L","U","darkshift","",""
"","","","","","html-slider-response","46","183535","0.0-42.0","qda54zel6t","7","NaN","<div style=""width:500px;"">
                            <p style=""font-size:50px; font-weight:bold;""
                            >startling</p>
                            <div style=""width:240px; margin: auto;"">
                                <img src=""images/R_D_S_27_darkshift.png"" style= ""width:200px""alt=""img"">
                            </div>
                        </div>","69","","0","images/R_D_S_27_darkshift.png","","","","startling","2","R","D","S","darkshift","",""
"","","","","","html-slider-response","47","185545","0.0-43.0","qda54zel6t","7","NaN","<div style=""width:500px;"">
                            <p style=""font-size:50px; font-weight:bold;""
                            >startling</p>
                            <div style=""width:240px; margin: auto;"">
                                <img src=""images/G_L_S_30_darkshift.png"" style= ""width:200px""alt=""img"">
                            </div>
                        </div>","30","","0","images/G_L_S_30_darkshift.png","","","","startling","2","G","L","S","darkshift","",""
"","","","","","html-slider-response","48","187207","0.0-44.0","qda54zel6t","7","NaN","<div style=""width:500px;"">
                            <p style=""font-size:50px; font-weight:bold;""
                            >startling</p>
                            <div style=""width:240px; margin: auto;"">
                                <img src=""images/G_L_U_33_lightshift.png"" style= ""width:200px""alt=""img"">
                            </div>
                        </div>","183","","0","images/G_L_U_33_lightshift.png","","","","startling","2","G","L","U","lightshift","",""
"","","","","","html-slider-response","49","189363","0.0-45.0","qda54zel6t","7","NaN","<div style=""width:500px;"">
                            <p style=""font-size:50px; font-weight:bold;""
                            >startling</p>
                            <div style=""width:240px; margin: auto;"">
                                <img src=""images/B_D_S_5_lightshift.png"" style= ""width:200px""alt=""img"">
                            </div>
                        </div>","-18","","0","images/B_D_S_5_lightshift.png","","","","startling","2","B","D","S","lightshift","",""
"","","","","","html-slider-response","50","191062","0.0-46.0","qda54zel6t","7","NaN","<div style=""width:500px;"">
                            <p style=""font-size:50px; font-weight:bold;""
                            >startling</p>
                            <div style=""width:240px; margin: auto;"">
                                <img src=""images/R_L_S_23_lightshift.png"" style= ""width:200px""alt=""img"">
                            </div>
                        </div>","55","","0","images/R_L_S_23_lightshift.png","","","","startling","2","R","L","S","lightshift","",""
"","","","","","html-slider-response","51","193090","0.0-47.0","qda54zel6t","7","NaN","<div style=""width:500px;"">
                            <p style=""font-size:50px; font-weight:bold;""
                            >startling</p>
                            <div style=""width:240px; margin: auto;"">
                                <img src=""images/Y_L_U_12_lightshift.png"" style= ""width:200px""alt=""img"">
                            </div>
                        </div>","145","","0","images/Y_L_U_12_lightshift.png","","","","startling","1","Y","L","U","lightshift","",""
"","","","","","html-slider-response","52","195179","0.0-48.0","qda54zel6t","7","NaN","<div style=""width:500px;"">
                            <p style=""font-size:50px; font-weight:bold;""
                            >startling</p>
                            <div style=""width:240px; margin: auto;"">
                                <img src=""images/G_D_U_41_lightshift.png"" style= ""width:200px""alt=""img"">
                            </div>
                        </div>","-46","","0","images/G_D_U_41_lightshift.png","","","","startling","2","G","D","U","lightshift","",""
"","","","","","html-slider-response","53","198651","0.0-49.0","qda54zel6t","7","NaN","<div style=""width:500px;"">
                            <p style=""font-size:50px; font-weight:bold;""
                            >startling</p>
                            <div style=""width:240px; margin: auto;"">
                                <img src=""images/Y_D_U_15_lightshift.png"" style= ""width:200px""alt=""img"">
                            </div>
                        </div>","-74","","0","images/Y_D_U_15_lightshift.png","","","","startling","2","Y","D","U","lightshift","",""
"","","","","","html-slider-response","54","223572","0.0-50.0","qda54zel6t","7","NaN","<div style=""width:500px;"">
                            <p style=""font-size:50px; font-weight:bold;""
                            >startling</p>
                            <div style=""width:240px; margin: auto;"">
                                <img src=""images/G_D_S_37_darkshift.png"" style= ""width:200px""alt=""img"">
                            </div>
                        </div>","-146","","0","images/G_D_S_37_darkshift.png","","","","startling","1","G","D","S","darkshift","",""
"","","","","","html-slider-response","55","225472","0.0-51.0","qda54zel6t","7","NaN","<div style=""width:500px;"">
                            <p style=""font-size:50px; font-weight:bold;""
                            >startling</p>
                            <div style=""width:240px; margin: auto;"">
                                <img src=""images/G_D_S_37_lightshift.png"" style= ""width:200px""alt=""img"">
                            </div>
                        </div>","34","","0","images/G_D_S_37_lightshift.png","","","","startling","2","G","D","S","lightshift","",""
"","","","","","html-slider-response","56","227158","0.0-52.0","qda54zel6t","7","NaN","<div style=""width:500px;"">
                            <p style=""font-size:50px; font-weight:bold;""
                            >startling</p>
                            <div style=""width:240px; margin: auto;"">
                                <img src=""images/R_D_U_28_lightshift.png"" style= ""width:200px""alt=""img"">
                            </div>
                        </div>","30","","0","images/R_D_U_28_lightshift.png","","","","startling","2","R","D","U","lightshift","",""
"","","","","","html-slider-response","57","228890","0.0-53.0","qda54zel6t","7","NaN","<div style=""width:500px;"">
                            <p style=""font-size:50px; font-weight:bold;""
                            >startling</p>
                            <div style=""width:240px; margin: auto;"">
                                <img src=""images/R_D_S_27_lightshift.png"" style= ""width:200px""alt=""img"">
                            </div>
                        </div>","28","","0","images/R_D_S_27_lightshift.png","","","","startling","2","R","D","S","lightshift","",""
"","","","","","html-slider-response","58","230506","0.0-54.0","qda54zel6t","7","NaN","<div style=""width:500px;"">
                            <p style=""font-size:50px; font-weight:bold;""
                            >startling</p>
                            <div style=""width:240px; margin: auto;"">
                                <img src=""images/B_L_U_2_lightshift.png"" style= ""width:200px""alt=""img"">
                            </div>
                        </div>","116","","0","images/B_L_U_2_lightshift.png","","","","startling","1","B","L","U","lightshift","",""
"","","","","","html-slider-response","59","232304","0.0-55.0","qda54zel6t","7","NaN","<div style=""width:500px;"">
                            <p style=""font-size:50px; font-weight:bold;""
                            >startling</p>
                            <div style=""width:240px; margin: auto;"">
                                <img src=""images/B_L_U_2_darkshift.png"" style= ""width:200px""alt=""img"">
                            </div>
                        </div>","52","","0","images/B_L_U_2_darkshift.png","","","","startling","2","B","L","U","darkshift","",""
"","","","","","html-slider-response","60","234053","0.0-56.0","qda54zel6t","7","NaN","<div style=""width:500px;"">
                            <p style=""font-size:50px; font-weight:bold;""
                            >startling</p>
                            <div style=""width:240px; margin: auto;"">
                                <img src=""images/B_L_S_44_darkshift.png"" style= ""width:200px""alt=""img"">
                            </div>
                        </div>","38","","0","images/B_L_S_44_darkshift.png","","","","startling","1","B","L","S","darkshift","",""
"","","","","","html-slider-response","61","235644","0.0-57.0","qda54zel6t","7","NaN","<div style=""width:500px;"">
                            <p style=""font-size:50px; font-weight:bold;""
                            >startling</p>
                            <div style=""width:240px; margin: auto;"">
                                <img src=""images/G_L_S_30_darkshift.png"" style= ""width:200px""alt=""img"">
                            </div>
                        </div>","77","","0","images/G_L_S_30_darkshift.png","","","","startling","1","G","L","S","darkshift","",""
"","","","","","html-slider-response","62","237428","0.0-58.0","qda54zel6t","7","NaN","<div style=""width:500px;"">
                            <p style=""font-size:50px; font-weight:bold;""
                            >startling</p>
                            <div style=""width:240px; margin: auto;"">
                                <img src=""images/Y_L_U_12_lightshift.png"" style= ""width:200px""alt=""img"">
                            </div>
                        </div>","128","","0","images/Y_L_U_12_lightshift.png","","","","startling","2","Y","L","U","lightshift","",""
"","","","","","html-slider-response","63","239499","0.0-59.0","qda54zel6t","7","NaN","<div style=""width:500px;"">
                            <p style=""font-size:50px; font-weight:bold;""
                            >startling</p>
                            <div style=""width:240px; margin: auto;"">
                                <img src=""images/R_L_S_23_darkshift.png"" style= ""width:200px""alt=""img"">
                            </div>
                        </div>","200","","0","images/R_L_S_23_darkshift.png","","","","startling","2","R","L","S","darkshift","",""
"","","","","","html-slider-response","64","241542","0.0-60.0","qda54zel6t","7","NaN","<div style=""width:500px;"">
                            <p style=""font-size:50px; font-weight:bold;""
                            >startling</p>
                            <div style=""width:240px; margin: auto;"">
                                <img src=""images/Y_D_U_15_lightshift.png"" style= ""width:200px""alt=""img"">
                            </div>
                        </div>","-86","","0","images/Y_D_U_15_lightshift.png","","","","startling","1","Y","D","U","lightshift","",""
"","","","","","html-slider-response","65","243726","0.0-61.0","qda54zel6t","7","NaN","<div style=""width:500px;"">
                            <p style=""font-size:50px; font-weight:bold;""
                            >startling</p>
                            <div style=""width:240px; margin: auto;"">
                                <img src=""images/R_L_S_23_darkshift.png"" style= ""width:200px""alt=""img"">
                            </div>
                        </div>","46","","0","images/R_L_S_23_darkshift.png","","","","startling","1","R","L","S","darkshift","",""
"","","","","","html-slider-response","66","259219","0.0-62.0","qda54zel6t","7","NaN","<div style=""width:500px;"">
                            <p style=""font-size:50px; font-weight:bold;""
                            >startling</p>
                            <div style=""width:240px; margin: auto;"">
                                <img src=""images/Y_D_S_13_darkshift.png"" style= ""width:200px""alt=""img"">
                            </div>
                        </div>","-112","","0","images/Y_D_S_13_darkshift.png","","","","startling","1","Y","D","S","darkshift","",""
"","","","","","html-slider-response","67","263457","0.0-63.0","qda54zel6t","7","NaN","<div style=""width:500px;"">
                            <p style=""font-size:50px; font-weight:bold;""
                            >startling</p>
                            <div style=""width:240px; margin: auto;"">
                                <img src=""images/R_D_U_28_darkshift.png"" style= ""width:200px""alt=""img"">
                            </div>
                        </div>","-83","","0","images/R_D_U_28_darkshift.png","","","","startling","2","R","D","U","darkshift","",""
"","","","","","html-slider-response","68","265171","0.0-64.0","qda54zel6t","7","NaN","<div style=""width:500px;"">
                            <p style=""font-size:50px; font-weight:bold;""
                            >startling</p>
                            <div style=""width:240px; margin: auto;"">
                                <img src=""images/R_D_U_28_lightshift.png"" style= ""width:200px""alt=""img"">
                            </div>
                        </div>","33","","0","images/R_D_U_28_lightshift.png","","","","startling","1","R","D","U","lightshift","",""
"","","","","","html-slider-response","69","266679","0.0-65.0","qda54zel6t","7","NaN","<div style=""width:500px;"">
                            <p style=""font-size:50px; font-weight:bold;""
                            >startling</p>
                            <div style=""width:240px; margin: auto;"">
                                <img src=""images/B_D_S_5_lightshift.png"" style= ""width:200px""alt=""img"">
                            </div>
                        </div>","46","","0","images/B_D_S_5_lightshift.png","","","","startling","1","B","D","S","lightshift","",""
"","","","","","html-slider-response","70","268313","0.0-66.0","qda54zel6t","7","NaN","<div style=""width:500px;"">
                            <p style=""font-size:50px; font-weight:bold;""
                            >startling</p>
                            <div style=""width:240px; margin: auto;"">
                                <img src=""images/R_L_U_26_darkshift.png"" style= ""width:200px""alt=""img"">
                            </div>
                        </div>","38","","0","images/R_L_U_26_darkshift.png","","","","startling","2","R","L","U","darkshift","",""
"","","","","","html-slider-response","71","269756","0.0-67.0","qda54zel6t","7","NaN","<div style=""width:500px;"">
                            <p style=""font-size:50px; font-weight:bold;""
                            >startling</p>
                            <div style=""width:240px; margin: auto;"">
                                <img src=""images/G_D_U_41_darkshift.png"" style= ""width:200px""alt=""img"">
                            </div>
                        </div>","-61","","0","images/G_D_U_41_darkshift.png","","","","startling","2","G","D","U","darkshift","",""
"","","","","","html-slider-response","72","271330","0.0-68.0","qda54zel6t","7","NaN","<div style=""width:500px;"">
                            <p style=""font-size:50px; font-weight:bold;""
                            >startling</p>
                            <div style=""width:240px; margin: auto;"">
                                <img src=""images/G_D_S_37_lightshift.png"" style= ""width:200px""alt=""img"">
                            </div>
                        </div>","94","","0","images/G_D_S_37_lightshift.png","","","","startling","1","G","D","S","lightshift","",""
"","","","","","html-slider-response","73","273256","0.0-69.0","qda54zel6t","7","NaN","<div style=""width:500px;"">
                            <p style=""font-size:50px; font-weight:bold;""
                            >startling</p>
                            <div style=""width:240px; margin: auto;"">
                                <img src=""images/G_D_S_37_darkshift.png"" style= ""width:200px""alt=""img"">
                            </div>
                        </div>","94","","0","images/G_D_S_37_darkshift.png","","","","startling","2","G","D","S","darkshift","",""
"","","","","","html-slider-response","74","274753","0.0-70.0","qda54zel6t","7","NaN","<div style=""width:500px;"">
                            <p style=""font-size:50px; font-weight:bold;""
                            >startling</p>
                            <div style=""width:240px; margin: auto;"">
                                <img src=""images/B_L_S_44_darkshift.png"" style= ""width:200px""alt=""img"">
                            </div>
                        </div>","74","","0","images/B_L_S_44_darkshift.png","","","","startling","2","B","L","S","darkshift","",""
"","","","","","html-slider-response","75","276305","0.0-71.0","qda54zel6t","7","NaN","<div style=""width:500px;"">
                            <p style=""font-size:50px; font-weight:bold;""
                            >startling</p>
                            <div style=""width:240px; margin: auto;"">
                                <img src=""images/Y_L_U_12_darkshift.png"" style= ""width:200px""alt=""img"">
                            </div>
                        </div>","-30","","0","images/Y_L_U_12_darkshift.png","","","","startling","2","Y","L","U","darkshift","",""
"","","","","","html-slider-response","76","277721","0.0-72.0","qda54zel6t","7","NaN","<div style=""width:500px;"">
                            <p style=""font-size:50px; font-weight:bold;""
                            >startling</p>
                            <div style=""width:240px; margin: auto;"">
                                <img src=""images/G_L_U_33_darkshift.png"" style= ""width:200px""alt=""img"">
                            </div>
                        </div>","55","","0","images/G_L_U_33_darkshift.png","","","","startling","2","G","L","U","darkshift","",""
"","","","","","html-slider-response","77","279260","0.0-73.0","qda54zel6t","7","NaN","<div style=""width:500px;"">
                            <p style=""font-size:50px; font-weight:bold;""
                            >startling</p>
                            <div style=""width:240px; margin: auto;"">
                                <img src=""images/Y_D_S_13_lightshift.png"" style= ""width:200px""alt=""img"">
                            </div>
                        </div>","-66","","0","images/Y_D_S_13_lightshift.png","","","","startling","2","Y","D","S","lightshift","",""
"","","","","","html-slider-response","78","281126","0.0-74.0","qda54zel6t","7","NaN","<div style=""width:500px;"">
                            <p style=""font-size:50px; font-weight:bold;""
                            >startling</p>
                            <div style=""width:240px; margin: auto;"">
                                <img src=""images/G_L_S_30_lightshift.png"" style= ""width:200px""alt=""img"">
                            </div>
                        </div>","38","","0","images/G_L_S_30_lightshift.png","","","","startling","1","G","L","S","lightshift","",""
"","","","","","html-slider-response","79","294287","0.0-75.0","qda54zel6t","7","NaN","<div style=""width:500px;"">
                            <p style=""font-size:50px; font-weight:bold;""
                            >startling</p>
                            <div style=""width:240px; margin: auto;"">
                                <img src=""images/R_D_U_28_darkshift.png"" style= ""width:200px""alt=""img"">
                            </div>
                        </div>","48","","0","images/R_D_U_28_darkshift.png","","","","startling","1","R","D","U","darkshift","",""
"","","","","","html-slider-response","80","295706","0.0-76.0","qda54zel6t","7","NaN","<div style=""width:500px;"">
                            <p style=""font-size:50px; font-weight:bold;""
                            >startling</p>
                            <div style=""width:240px; margin: auto;"">
                                <img src=""images/Y_D_U_15_darkshift.png"" style= ""width:200px""alt=""img"">
                            </div>
                        </div>","-50","","0","images/Y_D_U_15_darkshift.png","","","","startling","2","Y","D","U","darkshift","",""
"","","","","","html-slider-response","81","297792","0.0-77.0","qda54zel6t","7","NaN","<div style=""width:500px;"">
                            <p style=""font-size:50px; font-weight:bold;""
                            >startling</p>
                            <div style=""width:240px; margin: auto;"">
                                <img src=""images/R_L_U_26_lightshift.png"" style= ""width:200px""alt=""img"">
                            </div>
                        </div>","63","","0","images/R_L_U_26_lightshift.png","","","","startling","1","R","L","U","lightshift","",""
"","","","","","html-button-response","82","299459","0.0-78.0","qda54zel6t","7","1164","<p>Great Job! You've finished block 1.<br></br> You have 3 block(s) left to go.<br></br></p>","0","","","","","","","","","","","","","",""
"","","","","","html-button-response","83","300602","0.0-79.0","qda54zel6t","7","1142","<p>In this block of trials, you will be asked to rate how much you associate each map with:</p > <p style = 'font-size:150%; font-weight: bold'>negative</p><br></br>","0","","","","","","","","","","","","","",""
"","","","","","html-slider-response","84","302348","0.0-80.0","qda54zel6t","7","NaN","<div style=""width:500px;"">
                            <p style=""font-size:50px; font-weight:bold;""
                            >negative</p>
                            <div style=""width:240px; margin: auto;"">
                                <img src=""images/R_D_U_28_darkshift.png"" style= ""width:200px""alt=""img"">
                            </div>
                        </div>","133","","0","images/R_D_U_28_darkshift.png","","","","negative","2","R","D","U","darkshift","",""
"","","","","","html-slider-response","85","304388","0.0-81.0","qda54zel6t","7","NaN","<div style=""width:500px;"">
                            <p style=""font-size:50px; font-weight:bold;""
                            >negative</p>
                            <div style=""width:240px; margin: auto;"">
                                <img src=""images/G_D_S_37_darkshift.png"" style= ""width:200px""alt=""img"">
                            </div>
                        </div>","23","","0","images/G_D_S_37_darkshift.png","","","","negative","1","G","D","S","darkshift","",""
"","","","","","html-slider-response","86","306676","0.0-82.0","qda54zel6t","7","NaN","<div style=""width:500px;"">
                            <p style=""font-size:50px; font-weight:bold;""
                            >negative</p>
                            <div style=""width:240px; margin: auto;"">
                                <img src=""images/B_L_S_44_darkshift.png"" style= ""width:200px""alt=""img"">
                            </div>
                        </div>","-146","","0","images/B_L_S_44_darkshift.png","","","","negative","1","B","L","S","darkshift","",""
"","","","","","html-slider-response","87","308593","0.0-83.0","qda54zel6t","7","NaN","<div style=""width:500px;"">
                            <p style=""font-size:50px; font-weight:bold;""
                            >negative</p>
                            <div style=""width:240px; margin: auto;"">
                                <img src=""images/B_L_S_44_lightshift.png"" style= ""width:200px""alt=""img"">
                            </div>
                        </div>","-142","","0","images/B_L_S_44_lightshift.png","","","","negative","1","B","L","S","lightshift","",""
"","","","","","html-slider-response","88","309835","0.0-84.0","qda54zel6t","7","NaN","<div style=""width:500px;"">
                            <p style=""font-size:50px; font-weight:bold;""
                            >negative</p>
                            <div style=""width:240px; margin: auto;"">
                                <img src=""images/B_D_S_5_lightshift.png"" style= ""width:200px""alt=""img"">
                            </div>
                        </div>","-142","","0","images/B_D_S_5_lightshift.png","","","","negative","2","B","D","S","lightshift","",""
"","","","","","html-slider-response","89","311446","0.0-85.0","qda54zel6t","7","NaN","<div style=""width:500px;"">
                            <p style=""font-size:50px; font-weight:bold;""
                            >negative</p>
                            <div style=""width:240px; margin: auto;"">
                                <img src=""images/Y_L_S_10_lightshift.png"" style= ""width:200px""alt=""img"">
                            </div>
                        </div>","21","","0","images/Y_L_S_10_lightshift.png","","","","negative","1","Y","L","S","lightshift","",""
"","","","","","html-slider-response","90","312875","0.0-86.0","qda54zel6t","7","NaN","<div style=""width:500px;"">
                            <p style=""font-size:50px; font-weight:bold;""
                            >negative</p>
                            <div style=""width:240px; margin: auto;"">
                                <img src=""images/R_D_U_28_darkshift.png"" style= ""width:200px""alt=""img"">
                            </div>
                        </div>","84","","0","images/R_D_U_28_darkshift.png","","","","negative","1","R","D","U","darkshift","",""
"","","","","","html-slider-response","91","314397","0.0-87.0","qda54zel6t","7","NaN","<div style=""width:500px;"">
                            <p style=""font-size:50px; font-weight:bold;""
                            >negative</p>
                            <div style=""width:240px; margin: auto;"">
                                <img src=""images/G_L_S_30_darkshift.png"" style= ""width:200px""alt=""img"">
                            </div>
                        </div>","-28","","0","images/G_L_S_30_darkshift.png","","","","negative","1","G","L","S","darkshift","",""
"","","","","","html-slider-response","92","316043","0.0-88.0","qda54zel6t","7","NaN","<div style=""width:500px;"">
                            <p style=""font-size:50px; font-weight:bold;""
                            >negative</p>
                            <div style=""width:240px; margin: auto;"">
                                <img src=""images/R_D_S_27_darkshift.png"" style= ""width:200px""alt=""img"">
                            </div>
                        </div>","150","","0","images/R_D_S_27_darkshift.png","","","","negative","1","R","D","S","darkshift","",""
"","","","","","html-slider-response","93","317939","0.0-89.0","qda54zel6t","7","NaN","<div style=""width:500px;"">
                            <p style=""font-size:50px; font-weight:bold;""
                            >negative</p>
                            <div style=""width:240px; margin: auto;"">
                                <img src=""images/G_D_U_41_lightshift.png"" style= ""width:200px""alt=""img"">
                            </div>
                        </div>","-64","","0","images/G_D_U_41_lightshift.png","","","","negative","2","G","D","U","lightshift","",""
"","","","","","html-slider-response","94","319376","0.0-90.0","qda54zel6t","7","NaN","<div style=""width:500px;"">
                            <p style=""font-size:50px; font-weight:bold;""
                            >negative</p>
                            <div style=""width:240px; margin: auto;"">
                                <img src=""images/G_D_S_37_lightshift.png"" style= ""width:200px""alt=""img"">
                            </div>
                        </div>","-112","","0","images/G_D_S_37_lightshift.png","","","","negative","1","G","D","S","lightshift","",""
"","","","","","html-slider-response","95","321002","0.0-91.0","qda54zel6t","7","NaN","<div style=""width:500px;"">
                            <p style=""font-size:50px; font-weight:bold;""
                            >negative</p>
                            <div style=""width:240px; margin: auto;"">
                                <img src=""images/R_D_S_27_darkshift.png"" style= ""width:200px""alt=""img"">
                            </div>
                        </div>","154","","0","images/R_D_S_27_darkshift.png","","","","negative","2","R","D","S","darkshift","",""
"","","","","","html-slider-response","96","323169","0.0-92.0","qda54zel6t","7","NaN","<div style=""width:500px;"">
                            <p style=""font-size:50px; font-weight:bold;""
                            >negative</p>
                            <div style=""width:240px; margin: auto;"">
                                <img src=""images/G_D_U_41_darkshift.png"" style= ""width:200px""alt=""img"">
                            </div>
                        </div>","-22","","0","images/G_D_U_41_darkshift.png","","","","negative","2","G","D","U","darkshift","",""
"","","","","","html-slider-response","97","352555","0.0-93.0","qda54zel6t","7","NaN","<div style=""width:500px;"">
                            <p style=""font-size:50px; font-weight:bold;""
                            >negative</p>
                            <div style=""width:240px; margin: auto;"">
                                <img src=""images/G_D_S_37_darkshift.png"" style= ""width:200px""alt=""img"">
                            </div>
                        </div>","-40","","0","images/G_D_S_37_darkshift.png","","","","negative","2","G","D","S","darkshift","",""
"","","","","","html-slider-response","98","353937","0.0-94.0","qda54zel6t","7","NaN","<div style=""width:500px;"">
                            <p style=""font-size:50px; font-weight:bold;""
                            >negative</p>
                            <div style=""width:240px; margin: auto;"">
                                <img src=""images/Y_L_U_12_darkshift.png"" style= ""width:200px""alt=""img"">
                            </div>
                        </div>","-40","","0","images/Y_L_U_12_darkshift.png","","","","negative","2","Y","L","U","darkshift","",""
"","","","","","html-slider-response","99","355588","0.0-95.0","qda54zel6t","7","NaN","<div style=""width:500px;"">
                            <p style=""font-size:50px; font-weight:bold;""
                            >negative</p>
                            <div style=""width:240px; margin: auto;"">
                                <img src=""images/B_D_S_5_darkshift.png"" style= ""width:200px""alt=""img"">
                            </div>
                        </div>","-163","","0","images/B_D_S_5_darkshift.png","","","","negative","1","B","D","S","darkshift","",""
"","","","","","html-slider-response","100","357492","0.0-96.0","qda54zel6t","7","NaN","<div style=""width:500px;"">
                            <p style=""font-size:50px; font-weight:bold;""
                            >negative</p>
                            <div style=""width:240px; margin: auto;"">
                                <img src=""images/Y_D_U_15_darkshift.png"" style= ""width:200px""alt=""img"">
                            </div>
                        </div>","27","","0","images/Y_D_U_15_darkshift.png","","","","negative","2","Y","D","U","darkshift","",""
"","","","","","html-slider-response","101","359670","0.0-97.0","qda54zel6t","7","NaN","<div style=""width:500px;"">
                            <p style=""font-size:50px; font-weight:bold;""
                            >negative</p>
                            <div style=""width:240px; margin: auto;"">
                                <img src=""images/Y_L_S_10_lightshift.png"" style= ""width:200px""alt=""img"">
                            </div>
                        </div>","-9","","0","images/Y_L_S_10_lightshift.png","","","","negative","2","Y","L","S","lightshift","",""
"","","","","","html-slider-response","102","362400","0.0-98.0","qda54zel6t","7","NaN","<div style=""width:500px;"">
                            <p style=""font-size:50px; font-weight:bold;""
                            >negative</p>
                            <div style=""width:240px; margin: auto;"">
                                <img src=""images/Y_D_U_15_darkshift.png"" style= ""width:200px""alt=""img"">
                            </div>
                        </div>","36","","0","images/Y_D_U_15_darkshift.png","","","","negative","1","Y","D","U","darkshift","",""
"","","","","","html-slider-response","103","364047","0.0-99.0","qda54zel6t","7","NaN","<div style=""width:500px;"">
                            <p style=""font-size:50px; font-weight:bold;""
                            >negative</p>
                            <div style=""width:240px; margin: auto;"">
                                <img src=""images/Y_D_S_13_lightshift.png"" style= ""width:200px""alt=""img"">
                            </div>
                        </div>","3","","0","images/Y_D_S_13_lightshift.png","","","","negative","1","Y","D","S","lightshift","",""
"","","","","","html-slider-response","104","366596","0.0-100.0","qda54zel6t","7","NaN","<div style=""width:500px;"">
                            <p style=""font-size:50px; font-weight:bold;""
                            >negative</p>
                            <div style=""width:240px; margin: auto;"">
                                <img src=""images/B_L_U_2_lightshift.png"" style= ""width:200px""alt=""img"">
                            </div>
                        </div>","-18","","0","images/B_L_U_2_lightshift.png","","","","negative","1","B","L","U","lightshift","",""
"","","","","","html-slider-response","105","368422","0.0-101.0","qda54zel6t","7","NaN","<div style=""width:500px;"">
                            <p style=""font-size:50px; font-weight:bold;""
                            >negative</p>
                            <div style=""width:240px; margin: auto;"">
                                <img src=""images/G_D_S_37_lightshift.png"" style= ""width:200px""alt=""img"">
                            </div>
                        </div>","-63","","0","images/G_D_S_37_lightshift.png","","","","negative","2","G","D","S","lightshift","",""
"","","","","","html-slider-response","106","370925","0.0-102.0","qda54zel6t","7","NaN","<div style=""width:500px;"">
                            <p style=""font-size:50px; font-weight:bold;""
                            >negative</p>
                            <div style=""width:240px; margin: auto;"">
                                <img src=""images/R_L_S_23_lightshift.png"" style= ""width:200px""alt=""img"">
                            </div>
                        </div>","-174","","0","images/R_L_S_23_lightshift.png","","","","negative","2","R","L","S","lightshift","",""
"","","","","","html-slider-response","107","373236","0.0-103.0","qda54zel6t","7","NaN","<div style=""width:500px;"">
                            <p style=""font-size:50px; font-weight:bold;""
                            >negative</p>
                            <div style=""width:240px; margin: auto;"">
                                <img src=""images/R_D_U_28_lightshift.png"" style= ""width:200px""alt=""img"">
                            </div>
                        </div>","20","","0","images/R_D_U_28_lightshift.png","","","","negative","1","R","D","U","lightshift","",""
"","","","","","html-slider-response","108","374714","0.0-104.0","qda54zel6t","7","NaN","<div style=""width:500px;"">
                            <p style=""font-size:50px; font-weight:bold;""
                            >negative</p>
                            <div style=""width:240px; margin: auto;"">
                                <img src=""images/G_D_U_41_lightshift.png"" style= ""width:200px""alt=""img"">
                            </div>
                        </div>","-47","","0","images/G_D_U_41_lightshift.png","","","","negative","1","G","D","U","lightshift","",""
"","","","","","html-slider-response","109","376782","0.0-105.0","qda54zel6t","7","NaN","<div style=""width:500px;"">
                            <p style=""font-size:50px; font-weight:bold;""
                            >negative</p>
                            <div style=""width:240px; margin: auto;"">
                                <img src=""images/B_L_S_44_darkshift.png"" style= ""width:200px""alt=""img"">
                            </div>
                        </div>","-179","","0","images/B_L_S_44_darkshift.png","","","","negative","2","B","L","S","darkshift","",""
"","","","","","html-slider-response","110","378879","0.0-106.0","qda54zel6t","7","NaN","<div style=""width:500px;"">
                            <p style=""font-size:50px; font-weight:bold;""
                            >negative</p>
                            <div style=""width:240px; margin: auto;"">
                                <img src=""images/B_D_U_7_lightshift.png"" style= ""width:200px""alt=""img"">
                            </div>
                        </div>","-22","","0","images/B_D_U_7_lightshift.png","","","","negative","2","B","D","U","lightshift","",""
"","","","","","html-slider-response","111","380692","0.0-107.0","qda54zel6t","7","NaN","<div style=""width:500px;"">
                            <p style=""font-size:50px; font-weight:bold;""
                            >negative</p>
                            <div style=""width:240px; margin: auto;"">
                                <img src=""images/R_L_U_26_lightshift.png"" style= ""width:200px""alt=""img"">
                            </div>
                        </div>","-53","","0","images/R_L_U_26_lightshift.png","","","","negative","2","R","L","U","lightshift","",""
"","","","","","html-slider-response","112","382586","0.0-108.0","qda54zel6t","7","NaN","<div style=""width:500px;"">
                            <p style=""font-size:50px; font-weight:bold;""
                            >negative</p>
                            <div style=""width:240px; margin: auto;"">
                                <img src=""images/R_L_S_23_lightshift.png"" style= ""width:200px""alt=""img"">
                            </div>
                        </div>","-193","","0","images/R_L_S_23_lightshift.png","","","","negative","1","R","L","S","lightshift","",""
"","","","","","html-slider-response","113","384551","0.0-109.0","qda54zel6t","7","NaN","<div style=""width:500px;"">
                            <p style=""font-size:50px; font-weight:bold;""
                            >negative</p>
                            <div style=""width:240px; margin: auto;"">
                                <img src=""images/R_L_U_26_darkshift.png"" style= ""width:200px""alt=""img"">
                            </div>
                        </div>","77","","0","images/R_L_U_26_darkshift.png","","","","negative","2","R","L","U","darkshift","",""
"","","","","","html-slider-response","114","386350","0.0-110.0","qda54zel6t","7","NaN","<div style=""width:500px;"">
                            <p style=""font-size:50px; font-weight:bold;""
                            >negative</p>
                            <div style=""width:240px; margin: auto;"">
                                <img src=""images/B_D_U_7_darkshift.png"" style= ""width:200px""alt=""img"">
                            </div>
                        </div>","-28","","0","images/B_D_U_7_darkshift.png","","","","negative","1","B","D","U","darkshift","",""
"","","","","","html-slider-response","115","390415","0.0-111.0","qda54zel6t","7","NaN","<div style=""width:500px;"">
                            <p style=""font-size:50px; font-weight:bold;""
                            >negative</p>
                            <div style=""width:240px; margin: auto;"">
                                <img src=""images/B_L_U_2_darkshift.png"" style= ""width:200px""alt=""img"">
                            </div>
                        </div>","-170","","0","images/B_L_U_2_darkshift.png","","","","negative","1","B","L","U","darkshift","",""
"","","","","","html-slider-response","116","392138","0.0-112.0","qda54zel6t","7","NaN","<div style=""width:500px;"">
                            <p style=""font-size:50px; font-weight:bold;""
                            >negative</p>
                            <div style=""width:240px; margin: auto;"">
                                <img src=""images/B_L_S_44_lightshift.png"" style= ""width:200px""alt=""img"">
                            </div>
                        </div>","-150","","0","images/B_L_S_44_lightshift.png","","","","negative","2","B","L","S","lightshift","",""
"","","","","","html-slider-response","117","394407","0.0-113.0","qda54zel6t","7","NaN","<div style=""width:500px;"">
                            <p style=""font-size:50px; font-weight:bold;""
                            >negative</p>
                            <div style=""width:240px; margin: auto;"">
                                <img src=""images/Y_D_U_15_lightshift.png"" style= ""width:200px""alt=""img"">
                            </div>
                        </div>","-19","","0","images/Y_D_U_15_lightshift.png","","","","negative","1","Y","D","U","lightshift","",""
"","","","","","html-slider-response","118","396012","0.0-114.0","qda54zel6t","7","NaN","<div style=""width:500px;"">
                            <p style=""font-size:50px; font-weight:bold;""
                            >negative</p>
                            <div style=""width:240px; margin: auto;"">
                                <img src=""images/G_L_U_33_darkshift.png"" style= ""width:200px""alt=""img"">
                            </div>
                        </div>","-52","","0","images/G_L_U_33_darkshift.png","","","","negative","1","G","L","U","darkshift","",""
"","","","","","html-slider-response","119","398520","0.0-115.0","qda54zel6t","7","NaN","<div style=""width:500px;"">
                            <p style=""font-size:50px; font-weight:bold;""
                            >negative</p>
                            <div style=""width:240px; margin: auto;"">
                                <img src=""images/G_L_S_30_darkshift.png"" style= ""width:200px""alt=""img"">
                            </div>
                        </div>","-198","","0","images/G_L_S_30_darkshift.png","","","","negative","2","G","L","S","darkshift","",""
"","","","","","html-slider-response","120","400121","0.0-116.0","qda54zel6t","7","NaN","<div style=""width:500px;"">
                            <p style=""font-size:50px; font-weight:bold;""
                            >negative</p>
                            <div style=""width:240px; margin: auto;"">
                                <img src=""images/B_L_U_2_lightshift.png"" style= ""width:200px""alt=""img"">
                            </div>
                        </div>","-126","","0","images/B_L_U_2_lightshift.png","","","","negative","2","B","L","U","lightshift","",""
"","","","","","html-slider-response","121","402474","0.0-117.0","qda54zel6t","7","NaN","<div style=""width:500px;"">
                            <p style=""font-size:50px; font-weight:bold;""
                            >negative</p>
                            <div style=""width:240px; margin: auto;"">
                                <img src=""images/R_D_S_27_lightshift.png"" style= ""width:200px""alt=""img"">
                            </div>
                        </div>","-55","","0","images/R_D_S_27_lightshift.png","","","","negative","1","R","D","S","lightshift","",""
"","","","","","html-slider-response","122","405708","0.0-118.0","qda54zel6t","7","NaN","<div style=""width:500px;"">
                            <p style=""font-size:50px; font-weight:bold;""
                            >negative</p>
                            <div style=""width:240px; margin: auto;"">
                                <img src=""images/B_D_S_5_lightshift.png"" style= ""width:200px""alt=""img"">
                            </div>
                        </div>","-134","","0","images/B_D_S_5_lightshift.png","","","","negative","1","B","D","S","lightshift","",""
"","","","","","html-slider-response","123","407390","0.0-119.0","qda54zel6t","7","NaN","<div style=""width:500px;"">
                            <p style=""font-size:50px; font-weight:bold;""
                            >negative</p>
                            <div style=""width:240px; margin: auto;"">
                                <img src=""images/R_L_S_23_darkshift.png"" style= ""width:200px""alt=""img"">
                            </div>
                        </div>","-181","","0","images/R_L_S_23_darkshift.png","","","","negative","1","R","L","S","darkshift","",""
"","","","","","html-slider-response","124","409122","0.0-120.0","qda54zel6t","7","NaN","<div style=""width:500px;"">
                            <p style=""font-size:50px; font-weight:bold;""
                            >negative</p>
                            <div style=""width:240px; margin: auto;"">
                                <img src=""images/Y_L_U_12_darkshift.png"" style= ""width:200px""alt=""img"">
                            </div>
                        </div>","-13","","0","images/Y_L_U_12_darkshift.png","","","","negative","1","Y","L","U","darkshift","",""
"","","","","","html-slider-response","125","410650","0.0-121.0","qda54zel6t","7","NaN","<div style=""width:500px;"">
                            <p style=""font-size:50px; font-weight:bold;""
                            >negative</p>
                            <div style=""width:240px; margin: auto;"">
                                <img src=""images/Y_L_U_12_lightshift.png"" style= ""width:200px""alt=""img"">
                            </div>
                        </div>","-32","","0","images/Y_L_U_12_lightshift.png","","","","negative","2","Y","L","U","lightshift","",""
"","","","","","html-slider-response","126","413211","0.0-122.0","qda54zel6t","7","NaN","<div style=""width:500px;"">
                            <p style=""font-size:50px; font-weight:bold;""
                            >negative</p>
                            <div style=""width:240px; margin: auto;"">
                                <img src=""images/G_L_U_33_darkshift.png"" style= ""width:200px""alt=""img"">
                            </div>
                        </div>","-194","","0","images/G_L_U_33_darkshift.png","","","","negative","2","G","L","U","darkshift","",""
"","","","","","html-slider-response","127","415133","0.0-123.0","qda54zel6t","7","NaN","<div style=""width:500px;"">
                            <p style=""font-size:50px; font-weight:bold;""
                            >negative</p>
                            <div style=""width:240px; margin: auto;"">
                                <img src=""images/G_L_U_33_lightshift.png"" style= ""width:200px""alt=""img"">
                            </div>
                        </div>","-70","","0","images/G_L_U_33_lightshift.png","","","","negative","1","G","L","U","lightshift","",""
"","","","","","html-slider-response","128","417362","0.0-124.0","qda54zel6t","7","NaN","<div style=""width:500px;"">
                            <p style=""font-size:50px; font-weight:bold;""
                            >negative</p>
                            <div style=""width:240px; margin: auto;"">
                                <img src=""images/Y_L_S_10_darkshift.png"" style= ""width:200px""alt=""img"">
                            </div>
                        </div>","-16","","0","images/Y_L_S_10_darkshift.png","","","","negative","1","Y","L","S","darkshift","",""
"","","","","","html-slider-response","129","418952","0.0-125.0","qda54zel6t","7","NaN","<div style=""width:500px;"">
                            <p style=""font-size:50px; font-weight:bold;""
                            >negative</p>
                            <div style=""width:240px; margin: auto;"">
                                <img src=""images/Y_L_S_10_darkshift.png"" style= ""width:200px""alt=""img"">
                            </div>
                        </div>","7","","0","images/Y_L_S_10_darkshift.png","","","","negative","2","Y","L","S","darkshift","",""
"","","","","","html-slider-response","130","420771","0.0-126.0","qda54zel6t","7","NaN","<div style=""width:500px;"">
                            <p style=""font-size:50px; font-weight:bold;""
                            >negative</p>
                            <div style=""width:240px; margin: auto;"">
                                <img src=""images/Y_L_U_12_lightshift.png"" style= ""width:200px""alt=""img"">
                            </div>
                        </div>","-2","","0","images/Y_L_U_12_lightshift.png","","","","negative","1","Y","L","U","lightshift","",""
"","","","","","html-slider-response","131","422420","0.0-127.0","qda54zel6t","7","NaN","<div style=""width:500px;"">
                            <p style=""font-size:50px; font-weight:bold;""
                            >negative</p>
                            <div style=""width:240px; margin: auto;"">
                                <img src=""images/R_D_S_27_lightshift.png"" style= ""width:200px""alt=""img"">
                            </div>
                        </div>","-43","","0","images/R_D_S_27_lightshift.png","","","","negative","2","R","D","S","lightshift","",""
"","","","","","html-slider-response","132","424342","0.0-128.0","qda54zel6t","7","NaN","<div style=""width:500px;"">
                            <p style=""font-size:50px; font-weight:bold;""
                            >negative</p>
                            <div style=""width:240px; margin: auto;"">
                                <img src=""images/Y_D_S_13_lightshift.png"" style= ""width:200px""alt=""img"">
                            </div>
                        </div>","-31","","0","images/Y_D_S_13_lightshift.png","","","","negative","2","Y","D","S","lightshift","",""
"","","","","","html-slider-response","133","426484","0.0-129.0","qda54zel6t","7","NaN","<div style=""width:500px;"">
                            <p style=""font-size:50px; font-weight:bold;""
                            >negative</p>
                            <div style=""width:240px; margin: auto;"">
                                <img src=""images/B_D_S_5_darkshift.png"" style= ""width:200px""alt=""img"">
                            </div>
                        </div>","-98","","0","images/B_D_S_5_darkshift.png","","","","negative","2","B","D","S","darkshift","",""
"","","","","","html-slider-response","134","428236","0.0-130.0","qda54zel6t","7","NaN","<div style=""width:500px;"">
                            <p style=""font-size:50px; font-weight:bold;""
                            >negative</p>
                            <div style=""width:240px; margin: auto;"">
                                <img src=""images/R_L_S_23_darkshift.png"" style= ""width:200px""alt=""img"">
                            </div>
                        </div>","-103","","0","images/R_L_S_23_darkshift.png","","","","negative","2","R","L","S","darkshift","",""
"","","","","","html-slider-response","135","429948","0.0-131.0","qda54zel6t","7","NaN","<div style=""width:500px;"">
                            <p style=""font-size:50px; font-weight:bold;""
                            >negative</p>
                            <div style=""width:240px; margin: auto;"">
                                <img src=""images/G_L_U_33_lightshift.png"" style= ""width:200px""alt=""img"">
                            </div>
                        </div>","-82","","0","images/G_L_U_33_lightshift.png","","","","negative","2","G","L","U","lightshift","",""
"","","","","","html-slider-response","136","431845","0.0-132.0","qda54zel6t","7","NaN","<div style=""width:500px;"">
                            <p style=""font-size:50px; font-weight:bold;""
                            >negative</p>
                            <div style=""width:240px; margin: auto;"">
                                <img src=""images/Y_D_S_13_darkshift.png"" style= ""width:200px""alt=""img"">
                            </div>
                        </div>","-11","","0","images/Y_D_S_13_darkshift.png","","","","negative","1","Y","D","S","darkshift","",""
"","","","","","html-slider-response","137","433592","0.0-133.0","qda54zel6t","7","NaN","<div style=""width:500px;"">
                            <p style=""font-size:50px; font-weight:bold;""
                            >negative</p>
                            <div style=""width:240px; margin: auto;"">
                                <img src=""images/R_L_U_26_darkshift.png"" style= ""width:200px""alt=""img"">
                            </div>
                        </div>","22","","0","images/R_L_U_26_darkshift.png","","","","negative","1","R","L","U","darkshift","",""
"","","","","","html-slider-response","138","436289","0.0-134.0","qda54zel6t","7","NaN","<div style=""width:500px;"">
                            <p style=""font-size:50px; font-weight:bold;""
                            >negative</p>
                            <div style=""width:240px; margin: auto;"">
                                <img src=""images/B_L_U_2_darkshift.png"" style= ""width:200px""alt=""img"">
                            </div>
                        </div>","-198","","0","images/B_L_U_2_darkshift.png","","","","negative","2","B","L","U","darkshift","",""
"","","","","","html-slider-response","139","438751","0.0-135.0","qda54zel6t","7","NaN","<div style=""width:500px;"">
                            <p style=""font-size:50px; font-weight:bold;""
                            >negative</p>
                            <div style=""width:240px; margin: auto;"">
                                <img src=""images/R_D_U_28_lightshift.png"" style= ""width:200px""alt=""img"">
                            </div>
                        </div>","179","","0","images/R_D_U_28_lightshift.png","","","","negative","2","R","D","U","lightshift","",""
"","","","","","html-slider-response","140","442468","0.0-136.0","qda54zel6t","7","NaN","<div style=""width:500px;"">
                            <p style=""font-size:50px; font-weight:bold;""
                            >negative</p>
                            <div style=""width:240px; margin: auto;"">
                                <img src=""images/G_L_S_30_lightshift.png"" style= ""width:200px""alt=""img"">
                            </div>
                        </div>","-83","","0","images/G_L_S_30_lightshift.png","","","","negative","2","G","L","S","lightshift","",""
"","","","","","html-slider-response","141","444430","0.0-137.0","qda54zel6t","7","NaN","<div style=""width:500px;"">
                            <p style=""font-size:50px; font-weight:bold;""
                            >negative</p>
                            <div style=""width:240px; margin: auto;"">
                                <img src=""images/B_D_U_7_lightshift.png"" style= ""width:200px""alt=""img"">
                            </div>
                        </div>","-22","","0","images/B_D_U_7_lightshift.png","","","","negative","1","B","D","U","lightshift","",""
"","","","","","html-slider-response","142","446274","0.0-138.0","qda54zel6t","7","NaN","<div style=""width:500px;"">
                            <p style=""font-size:50px; font-weight:bold;""
                            >negative</p>
                            <div style=""width:240px; margin: auto;"">
                                <img src=""images/G_D_U_41_darkshift.png"" style= ""width:200px""alt=""img"">
                            </div>
                        </div>","19","","0","images/G_D_U_41_darkshift.png","","","","negative","1","G","D","U","darkshift","",""
"","","","","","html-slider-response","143","448024","0.0-139.0","qda54zel6t","7","NaN","<div style=""width:500px;"">
                            <p style=""font-size:50px; font-weight:bold;""
                            >negative</p>
                            <div style=""width:240px; margin: auto;"">
                                <img src=""images/Y_D_S_13_darkshift.png"" style= ""width:200px""alt=""img"">
                            </div>
                        </div>","30","","0","images/Y_D_S_13_darkshift.png","","","","negative","2","Y","D","S","darkshift","",""
"","","","","","html-slider-response","144","451668","0.0-140.0","qda54zel6t","7","NaN","<div style=""width:500px;"">
                            <p style=""font-size:50px; font-weight:bold;""
                            >negative</p>
                            <div style=""width:240px; margin: auto;"">
                                <img src=""images/G_L_S_30_lightshift.png"" style= ""width:200px""alt=""img"">
                            </div>
                        </div>","-200","","0","images/G_L_S_30_lightshift.png","","","","negative","1","G","L","S","lightshift","",""
"","","","","","html-slider-response","145","455795","0.0-141.0","qda54zel6t","7","NaN","<div style=""width:500px;"">
                            <p style=""font-size:50px; font-weight:bold;""
                            >negative</p>
                            <div style=""width:240px; margin: auto;"">
                                <img src=""images/B_D_U_7_darkshift.png"" style= ""width:200px""alt=""img"">
                            </div>
                        </div>","-51","","0","images/B_D_U_7_darkshift.png","","","","negative","2","B","D","U","darkshift","",""
"","","","","","html-slider-response","146","457358","0.0-142.0","qda54zel6t","7","NaN","<div style=""width:500px;"">
                            <p style=""font-size:50px; font-weight:bold;""
                            >negative</p>
                            <div style=""width:240px; margin: auto;"">
                                <img src=""images/Y_D_U_15_lightshift.png"" style= ""width:200px""alt=""img"">
                            </div>
                        </div>","14","","0","images/Y_D_U_15_lightshift.png","","","","negative","2","Y","D","U","lightshift","",""
"","","","","","html-slider-response","147","459180","0.0-143.0","qda54zel6t","7","NaN","<div style=""width:500px;"">
                            <p style=""font-size:50px; font-weight:bold;""
                            >negative</p>
                            <div style=""width:240px; margin: auto;"">
                                <img src=""images/R_L_U_26_lightshift.png"" style= ""width:200px""alt=""img"">
                            </div>
                        </div>","-3","","0","images/R_L_U_26_lightshift.png","","","","negative","1","R","L","U","lightshift","",""
"","","","","","html-button-response","148","461025","0.0-144.0","qda54zel6t","7","1342","<p>Great Job! You've finished block 2.<br></br> You have 2 block(s) left to go.<br></br></p>","0","","","","","","","","","","","","","",""
"","","","","","html-button-response","149","461636","0.0-145.0","qda54zel6t","7","610","<p>In this block of trials, you will be asked to rate how much you associate each map with:</p > <p style = 'font-size:150%; font-weight: bold'>positive</p><br></br>","0","","","","","","","","","","","","","",""
"","","","","","html-slider-response","150","463118","0.0-146.0","qda54zel6t","7","NaN","<div style=""width:500px;"">
                            <p style=""font-size:50px; font-weight:bold;""
                            >positive</p>
                            <div style=""width:240px; margin: auto;"">
                                <img src=""images/G_L_S_30_lightshift.png"" style= ""width:200px""alt=""img"">
                            </div>
                        </div>","196","","0","images/G_L_S_30_lightshift.png","","","","positive","1","G","L","S","lightshift","",""
"","","","","","html-slider-response","151","465204","0.0-147.0","qda54zel6t","7","NaN","<div style=""width:500px;"">
                            <p style=""font-size:50px; font-weight:bold;""
                            >positive</p>
                            <div style=""width:240px; margin: auto;"">
                                <img src=""images/R_L_U_26_lightshift.png"" style= ""width:200px""alt=""img"">
                            </div>
                        </div>","198","","0","images/R_L_U_26_lightshift.png","","","","positive","2","R","L","U","lightshift","",""
"","","","","","html-slider-response","152","466775","0.0-148.0","qda54zel6t","7","NaN","<div style=""width:500px;"">
                            <p style=""font-size:50px; font-weight:bold;""
                            >positive</p>
                            <div style=""width:240px; margin: auto;"">
                                <img src=""images/Y_L_U_12_darkshift.png"" style= ""width:200px""alt=""img"">
                            </div>
                        </div>","-113","","0","images/Y_L_U_12_darkshift.png","","","","positive","2","Y","L","U","darkshift","",""
"","","","","","html-slider-response","153","468636","0.0-149.0","qda54zel6t","7","NaN","<div style=""width:500px;"">
                            <p style=""font-size:50px; font-weight:bold;""
                            >positive</p>
                            <div style=""width:240px; margin: auto;"">
                                <img src=""images/R_D_U_28_lightshift.png"" style= ""width:200px""alt=""img"">
                            </div>
                        </div>","-38","","0","images/R_D_U_28_lightshift.png","","","","positive","2","R","D","U","lightshift","",""
"","","","","","html-slider-response","154","470791","0.0-150.0","qda54zel6t","7","NaN","<div style=""width:500px;"">
                            <p style=""font-size:50px; font-weight:bold;""
                            >positive</p>
                            <div style=""width:240px; margin: auto;"">
                                <img src=""images/B_D_S_5_lightshift.png"" style= ""width:200px""alt=""img"">
                            </div>
                        </div>","107","","0","images/B_D_S_5_lightshift.png","","","","positive","2","B","D","S","lightshift","",""
"","","","","","html-slider-response","155","472369","0.0-151.0","qda54zel6t","7","NaN","<div style=""width:500px;"">
                            <p style=""font-size:50px; font-weight:bold;""
                            >positive</p>
                            <div style=""width:240px; margin: auto;"">
                                <img src=""images/R_L_U_26_darkshift.png"" style= ""width:200px""alt=""img"">
                            </div>
                        </div>","118","","0","images/R_L_U_26_darkshift.png","","","","positive","2","R","L","U","darkshift","",""
"","","","","","html-slider-response","156","474196","0.0-152.0","qda54zel6t","7","NaN","<div style=""width:500px;"">
                            <p style=""font-size:50px; font-weight:bold;""
                            >positive</p>
                            <div style=""width:240px; margin: auto;"">
                                <img src=""images/R_D_S_27_darkshift.png"" style= ""width:200px""alt=""img"">
                            </div>
                        </div>","-65","","0","images/R_D_S_27_darkshift.png","","","","positive","1","R","D","S","darkshift","",""
"","","","","","html-slider-response","157","475991","0.0-153.0","qda54zel6t","7","NaN","<div style=""width:500px;"">
                            <p style=""font-size:50px; font-weight:bold;""
                            >positive</p>
                            <div style=""width:240px; margin: auto;"">
                                <img src=""images/Y_D_S_13_darkshift.png"" style= ""width:200px""alt=""img"">
                            </div>
                        </div>","-194","","0","images/Y_D_S_13_darkshift.png","","","","positive","2","Y","D","S","darkshift","",""
"","","","","","html-slider-response","158","478845","0.0-154.0","qda54zel6t","7","NaN","<div style=""width:500px;"">
                            <p style=""font-size:50px; font-weight:bold;""
                            >positive</p>
                            <div style=""width:240px; margin: auto;"">
                                <img src=""images/B_L_S_44_darkshift.png"" style= ""width:200px""alt=""img"">
                            </div>
                        </div>","166","","0","images/B_L_S_44_darkshift.png","","","","positive","2","B","L","S","darkshift","",""
"","","","","","html-slider-response","159","480292","0.0-155.0","qda54zel6t","7","NaN","<div style=""width:500px;"">
                            <p style=""font-size:50px; font-weight:bold;""
                            >positive</p>
                            <div style=""width:240px; margin: auto;"">
                                <img src=""images/B_L_U_2_lightshift.png"" style= ""width:200px""alt=""img"">
                            </div>
                        </div>","34","","0","images/B_L_U_2_lightshift.png","","","","positive","1","B","L","U","lightshift","",""
"","","","","","html-slider-response","160","482472","0.0-156.0","qda54zel6t","7","NaN","<div style=""width:500px;"">
                            <p style=""font-size:50px; font-weight:bold;""
                            >positive</p>
                            <div style=""width:240px; margin: auto;"">
                                <img src=""images/Y_L_S_10_lightshift.png"" style= ""width:200px""alt=""img"">
                            </div>
                        </div>","-194","","0","images/Y_L_S_10_lightshift.png","","","","positive","1","Y","L","S","lightshift","",""
"","","","","","html-slider-response","161","484371","0.0-157.0","qda54zel6t","7","NaN","<div style=""width:500px;"">
                            <p style=""font-size:50px; font-weight:bold;""
                            >positive</p>
                            <div style=""width:240px; margin: auto;"">
                                <img src=""images/G_D_U_41_lightshift.png"" style= ""width:200px""alt=""img"">
                            </div>
                        </div>","-89","","0","images/G_D_U_41_lightshift.png","","","","positive","1","G","D","U","lightshift","",""
"","","","","","html-slider-response","162","486320","0.0-158.0","qda54zel6t","7","NaN","<div style=""width:500px;"">
                            <p style=""font-size:50px; font-weight:bold;""
                            >positive</p>
                            <div style=""width:240px; margin: auto;"">
                                <img src=""images/Y_L_U_12_lightshift.png"" style= ""width:200px""alt=""img"">
                            </div>
                        </div>","-115","","0","images/Y_L_U_12_lightshift.png","","","","positive","1","Y","L","U","lightshift","",""
"","","","","","html-slider-response","163","488318","0.0-159.0","qda54zel6t","7","NaN","<div style=""width:500px;"">
                            <p style=""font-size:50px; font-weight:bold;""
                            >positive</p>
                            <div style=""width:240px; margin: auto;"">
                                <img src=""images/B_L_S_44_lightshift.png"" style= ""width:200px""alt=""img"">
                            </div>
                        </div>","106","","0","images/B_L_S_44_lightshift.png","","","","positive","2","B","L","S","lightshift","",""
"","","","","","html-slider-response","164","489723","0.0-160.0","qda54zel6t","7","NaN","<div style=""width:500px;"">
                            <p style=""font-size:50px; font-weight:bold;""
                            >positive</p>
                            <div style=""width:240px; margin: auto;"">
                                <img src=""images/G_L_U_33_lightshift.png"" style= ""width:200px""alt=""img"">
                            </div>
                        </div>","95","","0","images/G_L_U_33_lightshift.png","","","","positive","1","G","L","U","lightshift","",""
"","","","","","html-slider-response","165","491524","0.0-161.0","qda54zel6t","7","NaN","<div style=""width:500px;"">
                            <p style=""font-size:50px; font-weight:bold;""
                            >positive</p>
                            <div style=""width:240px; margin: auto;"">
                                <img src=""images/Y_D_U_15_darkshift.png"" style= ""width:200px""alt=""img"">
                            </div>
                        </div>","-180","","0","images/Y_D_U_15_darkshift.png","","","","positive","2","Y","D","U","darkshift","",""
"","","","","","html-slider-response","166","493357","0.0-162.0","qda54zel6t","7","NaN","<div style=""width:500px;"">
                            <p style=""font-size:50px; font-weight:bold;""
                            >positive</p>
                            <div style=""width:240px; margin: auto;"">
                                <img src=""images/G_D_S_37_darkshift.png"" style= ""width:200px""alt=""img"">
                            </div>
                        </div>","21","","0","images/G_D_S_37_darkshift.png","","","","positive","1","G","D","S","darkshift","",""
"","","","","","html-slider-response","167","495532","0.0-163.0","qda54zel6t","7","NaN","<div style=""width:500px;"">
                            <p style=""font-size:50px; font-weight:bold;""
                            >positive</p>
                            <div style=""width:240px; margin: auto;"">
                                <img src=""images/B_L_S_44_darkshift.png"" style= ""width:200px""alt=""img"">
                            </div>
                        </div>","196","","0","images/B_L_S_44_darkshift.png","","","","positive","1","B","L","S","darkshift","",""
"","","","","","html-slider-response","168","497311","0.0-164.0","qda54zel6t","7","NaN","<div style=""width:500px;"">
                            <p style=""font-size:50px; font-weight:bold;""
                            >positive</p>
                            <div style=""width:240px; margin: auto;"">
                                <img src=""images/Y_L_S_10_lightshift.png"" style= ""width:200px""alt=""img"">
                            </div>
                        </div>","-194","","0","images/Y_L_S_10_lightshift.png","","","","positive","2","Y","L","S","lightshift","",""
"","","","","","html-slider-response","169","498684","0.0-165.0","qda54zel6t","7","NaN","<div style=""width:500px;"">
                            <p style=""font-size:50px; font-weight:bold;""
                            >positive</p>
                            <div style=""width:240px; margin: auto;"">
                                <img src=""images/Y_D_S_13_darkshift.png"" style= ""width:200px""alt=""img"">
                            </div>
                        </div>","-194","","0","images/Y_D_S_13_darkshift.png","","","","positive","1","Y","D","S","darkshift","",""
"","","","","","html-slider-response","170","499921","0.0-166.0","qda54zel6t","7","NaN","<div style=""width:500px;"">
                            <p style=""font-size:50px; font-weight:bold;""
                            >positive</p>
                            <div style=""width:240px; margin: auto;"">
                                <img src=""images/Y_L_S_10_darkshift.png"" style= ""width:200px""alt=""img"">
                            </div>
                        </div>","-172","","0","images/Y_L_S_10_darkshift.png","","","","positive","1","Y","L","S","darkshift","",""
"","","","","","html-slider-response","171","501752","0.0-167.0","qda54zel6t","7","NaN","<div style=""width:500px;"">
                            <p style=""font-size:50px; font-weight:bold;""
                            >positive</p>
                            <div style=""width:240px; margin: auto;"">
                                <img src=""images/R_L_U_26_darkshift.png"" style= ""width:200px""alt=""img"">
                            </div>
                        </div>","20","","0","images/R_L_U_26_darkshift.png","","","","positive","1","R","L","U","darkshift","",""
"","","","","","html-slider-response","172","503333","0.0-168.0","qda54zel6t","7","NaN","<div style=""width:500px;"">
                            <p style=""font-size:50px; font-weight:bold;""
                            >positive</p>
                            <div style=""width:240px; margin: auto;"">
                                <img src=""images/R_D_U_28_darkshift.png"" style= ""width:200px""alt=""img"">
                            </div>
                        </div>","-14","","0","images/R_D_U_28_darkshift.png","","","","positive","2","R","D","U","darkshift","",""
