"success","timeout","failed_images","failed_audio","failed_video","trial_type","trial_index","time_elapsed","internal_node_id","subject_id","condition_num","rt","stimulus","response","question_order","slider_start","image_path","practiceTrial","practiceTrialNum","correct","concept","repetition","hue","lightness","saturation","shift","ishihara_plate","correct_response"
"true","false","[]","[]","[]","preload","0","322","0.0-0.0","qpbf9vrqcb","5","","","","","","","","","","","","","","","","",""
"","","","","","html-button-response","1","5213","0.0-1.0","qpbf9vrqcb","5","4889","Welcome to our experiment!<p>At the bottom of this screen, you will see a button that says ""Begin Experiment"".<br>Please only click that button when you are ready to complete the 25 minute experiment in one sitting.</p><p> Once you click that button, it will not be possible to restart the experiment.","0","","","","","","","","","","","","","",""
"true","","","","","fullscreen","2","7867","0.0-2.0","qpbf9vrqcb","5","1650","","","","","","","","","","","","","","","",""
"","","","","","survey-multi-select","3","44025","0.0-3.0","qpbf9vrqcb","5","36154","","{""Consent"":[""<strong>I consent</strong>""]}","[0]","","","","","","","","","","","","",""
"","","","","","html-button-response","4","47854","0.0-4.0","qpbf9vrqcb","5","3828","Welcome! <p> This experiment involves two parts: demographic information, followed by the experimental task.<p> It will take about 25 minutes to complete both parts.","0","","","","","","","","","","","","","",""
"","","","","","survey-text","5","60640","0.0-5.0","qpbf9vrqcb","5","12777","","{""Age"":""18"",""Gender"":""Female"",""Race/ethnicity"":""White"",""Languages"":""English""}","","","","","","","","","","","","","",""
"","","","","","html-slider-response","6","112809","0.0-6.0","qpbf9vrqcb","5","51997","
                            <div style='text-align:left; font-size:20px; line-height:25px; width: 1400px;'>
                                During this experiment you will be asked to rate how much you associate maps with                    different concepts.<br> Below, you can see some examples of the maps you will be asked to rate. Next to the maps
                    is the list of concepts.<br>You will be asked                    to rate how much you associate each map with each concept on a scale from 'not at all' to 'very much' like the
                    one below. <br><br>
                    Now, please look at the list of concepts and maps. For each concept, think about the map you associate 'very
                    much' with the concept.<br>                     When you see that map during the experiment, please rate it near the 'very much' endpoint of the
                    scale.<br>Now, please think about which map you associate 'not at all'                     with each concept. When you see that map during the experiment, please rate it near the 'not at all' endpoint
                    of the scale.<br>
                    Please use the full range of the scale. That is, if a map is somewhat associated with the concept, you would
                    click partway between the middle point and right side of the scale.                    You will be asked to rate each map for a given concept before moving on to the next concept.<br><br>Press the
                    'Continue' button for instructions on how to use the slider.                    <br><br>
                </div>

                <div style=""width: 500px; margin: 0 auto;"">
                    <!-- Centered text paragraphs -->
                    <div style=""text-align: center; width: 500px;"">
                        <p style=""font-size:25px; line-height:18px;"">calm</p>
                        <p style=""font-size:25px; line-height:18px;"">positive</p>
                        <p style=""font-size:25px;line-height:18px;"">negative</p>
                        <p style=""font-size:25px;line-height:18px;"">startling</p>
                    </div>

                    <!-- Grid section -->
                   <div style=""display: flex; justify-content: center; padding-top: 15px;"">
                    <div style=""display: grid; grid-template-columns: repeat(8, 80px); grid-gap: 5px; width: auto;"">
                        <img src=""images/Y_D_U_12_lightshift.png"" alt=""map"" style=""width: 100%;""><img src=""images/Y_L_U_7_lightshift.png"" alt=""map"" style=""width: 100%;""><img src=""images/R_D_U_26_lightshift.png"" alt=""map"" style=""width: 100%;""><img src=""images/G_L_U_28_lightshift.png"" alt=""map"" style=""width: 100%;""><img src=""images/G_D_S_30_lightshift.png"" alt=""map"" style=""width: 100%;""><img src=""images/B_L_S_37_lightshift.png"" alt=""map"" style=""width: 100%;""><img src=""images/R_L_S_13_darkshift.png"" alt=""map"" style=""width: 100%;""><img src=""images/R_D_U_26_darkshift.png"" alt=""map"" style=""width: 100%;""><img src=""images/R_L_U_15_lightshift.png"" alt=""map"" style=""width: 100%;""><img src=""images/R_D_S_23_darkshift.png"" alt=""map"" style=""width: 100%;""><img src=""images/B_D_U_2_darkshift.png"" alt=""map"" style=""width: 100%;""><img src=""images/Y_D_U_12_darkshift.png"" alt=""map"" style=""width: 100%;""><img src=""images/Y_D_S_10_darkshift.png"" alt=""map"" style=""width: 100%;""><img src=""images/B_D_S_44_lightshift.png"" alt=""map"" style=""width: 100%;""><img src=""images/B_L_U_41_lightshift.png"" alt=""map"" style=""width: 100%;""><img src=""images/G_D_S_30_darkshift.png"" alt=""map"" style=""width: 100%;""><img src=""images/R_L_S_13_lightshift.png"" alt=""map"" style=""width: 100%;""><img src=""images/B_D_S_44_darkshift.png"" alt=""map"" style=""width: 100%;""><img src=""images/B_D_U_2_lightshift.png"" alt=""map"" style=""width: 100%;""><img src=""images/R_L_U_15_darkshift.png"" alt=""map"" style=""width: 100%;""><img src=""images/Y_D_S_10_lightshift.png"" alt=""map"" style=""width: 100%;""><img src=""images/G_L_U_28_darkshift.png"" alt=""map"" style=""width: 100%;""><img src=""images/B_L_U_41_darkshift.png"" alt=""map"" style=""width: 100%;""><img src=""images/Y_L_S_5_darkshift.png"" alt=""map"" style=""width: 100%;""><img src=""images/Y_L_S_5_lightshift.png"" alt=""map"" style=""width: 100%;""><img src=""images/B_L_S_37_darkshift.png"" alt=""map"" style=""width: 100%;""><img src=""images/G_D_U_33_lightshift.png"" alt=""map"" style=""width: 100%;""><img src=""images/G_D_U_33_darkshift.png"" alt=""map"" style=""width: 100%;""><img src=""images/G_L_S_27_lightshift.png"" alt=""map"" style=""width: 100%;""><img src=""images/Y_L_U_7_darkshift.png"" alt=""map"" style=""width: 100%;""><img src=""images/G_L_S_27_darkshift.png"" alt=""map"" style=""width: 100%;""><img src=""images/R_D_S_23_lightshift.png"" alt=""map"" style=""width: 100%;"">
                    </div>
                </div>

                    <!-- Clear floats -->
                    <div style=""clear: both;""></div>
                </div>
                            ","null","","0","maps_anchoring.png","true","","","","","","","","","",""
"","","","","","html-button-response","7","117452","0.0-7.0","qpbf9vrqcb","5","4642","<div style=""width:800px;""><p style=""text-align:left"">To move the slider, click and drag your cursor to the location of the scale where you would like to make your rating and then let go. When you let go of the slider, your response will be recorded and the next trial will begin. <br>
                    We are interested in your initial impressions of each map for the given concept, so please go with your first intuition. <br>
                    Before you begin the experiment, there will be four training trials for you to practice using the scale. <br>
                     When you are ready to start the training trials, please click ""Continue"".</p><br></div>","0","","","","","","","","","","","","","",""
"","","","","","html-slider-response","8","120304","0.0-8.0-0.0","qpbf9vrqcb","5","NaN","<div style=""width:500px;"">
                                    <p style=""font-size:25px;"">Please move the slider all the way to the <br> right endpoint of the scale</p>

                                    </div>
                                </div>","200","","0","","true","0","true","","","","","","","",""
"","","","","","html-button-response","9","121654","0.0-8.0-1.0","qpbf9vrqcb","5","846","<p align='center'><b>Good job!</b> Click on 'Continue' to proceed.</p>","0","","","","","","","","","","","","","",""
"","","","","","html-slider-response","10","123278","0.0-9.0-0.0","qpbf9vrqcb","5","NaN","<div style=""width:500px;"">
                                    <p style=""font-size:25px;"">Please move the slider all the way to the <br> left endpoint of the scale</p>

                                    </div>
                                </div>","-200","","0","","true","1","true","","","","","","","",""
"","","","","","html-button-response","11","124463","0.0-9.0-1.0","qpbf9vrqcb","5","682","<p align='center'><b>Good job!</b> Click on 'Continue' to proceed.</p>","0","","","","","","","","","","","","","",""
"","","","","","html-slider-response","12","128417","0.0-10.0-0.0","qpbf9vrqcb","5","NaN","<div style=""width:500px;"">
                                    <p style=""font-size:25px;"">Please move the slider halfway between the center and right endpoint of the scale</p>

                                    </div>
                                </div>","101","","0","","true","2","true","","","","","","","",""
"","","","","","html-button-response","13","129475","0.0-10.0-1.0","qpbf9vrqcb","5","554","<p align='center'><b>Good job!</b> Click on 'Continue' to proceed.</p>","0","","","","","","","","","","","","","",""
"","","","","","html-slider-response","14","130960","0.0-11.0-0.0","qpbf9vrqcb","5","NaN","<div style=""width:500px;"">
                                    <p style=""font-size:25px;"">Please move the slider halfway between the center and left endpoint of the scale</p>

                                    </div>
                                </div>","-100","","0","","true","3","true","","","","","","","",""
"","","","","","html-button-response","15","132455","0.0-11.0-1.0","qpbf9vrqcb","5","992","<p align='center'><b>Good job!</b> Click on 'Continue' to proceed.</p>","0","","","","","","","","","","","","","",""
"","","","","","html-button-response","16","134803","0.0-12.0","qpbf9vrqcb","5","2346","<p>Great job! You've completed the practice trials. Now you will begin the main task.</p>","0","","","","","","","","","","","","","",""
"","","","","","html-button-response","17","145784","0.0-13.0","qpbf9vrqcb","5","10979","<p>In this block of trials, you will be asked to rate how much you associate each map with:</p > <p style = 'font-size:150%; font-weight: bold'>positive</p><br></br>","0","","","","","","","","","","","","","",""
"","","","","","html-slider-response","18","148125","0.0-14.0","qpbf9vrqcb","5","NaN","<div style=""width:500px;"">
                            <p style=""font-size:50px; font-weight:bold;""
                            >positive</p>
                            <div style=""width:240px; margin: auto;"">
                                <img src=""images/Y_L_U_7_lightshift.png"" style= ""width:200px""alt=""img"">
                            </div>
                        </div>","200","","0","images/Y_L_U_7_lightshift.png","","","","positive","2","Y","L","U","lightshift","",""
"","","","","","html-slider-response","19","151366","0.0-15.0","qpbf9vrqcb","5","NaN","<div style=""width:500px;"">
                            <p style=""font-size:50px; font-weight:bold;""
                            >positive</p>
                            <div style=""width:240px; margin: auto;"">
                                <img src=""images/B_D_U_2_lightshift.png"" style= ""width:200px""alt=""img"">
                            </div>
                        </div>","-92","","0","images/B_D_U_2_lightshift.png","","","","positive","1","B","D","U","lightshift","",""
"","","","","","html-slider-response","20","153811","0.0-16.0","qpbf9vrqcb","5","NaN","<div style=""width:500px;"">
                            <p style=""font-size:50px; font-weight:bold;""
                            >positive</p>
                            <div style=""width:240px; margin: auto;"">
                                <img src=""images/B_D_S_44_darkshift.png"" style= ""width:200px""alt=""img"">
                            </div>
                        </div>","-200","","0","images/B_D_S_44_darkshift.png","","","","positive","2","B","D","S","darkshift","",""
"","","","","","html-slider-response","21","156478","0.0-17.0","qpbf9vrqcb","5","NaN","<div style=""width:500px;"">
                            <p style=""font-size:50px; font-weight:bold;""
                            >positive</p>
                            <div style=""width:240px; margin: auto;"">
                                <img src=""images/G_D_S_30_lightshift.png"" style= ""width:200px""alt=""img"">
                            </div>
                        </div>","-48","","0","images/G_D_S_30_lightshift.png","","","","positive","1","G","D","S","lightshift","",""
"","","","","","html-slider-response","22","158241","0.0-18.0","qpbf9vrqcb","5","NaN","<div style=""width:500px;"">
                            <p style=""font-size:50px; font-weight:bold;""
                            >positive</p>
                            <div style=""width:240px; margin: auto;"">
                                <img src=""images/B_L_U_41_lightshift.png"" style= ""width:200px""alt=""img"">
                            </div>
                        </div>","-1","","0","images/B_L_U_41_lightshift.png","","","","positive","2","B","L","U","lightshift","",""
"","","","","","html-slider-response","23","161244","0.0-19.0","qpbf9vrqcb","5","NaN","<div style=""width:500px;"">
                            <p style=""font-size:50px; font-weight:bold;""
                            >positive</p>
                            <div style=""width:240px; margin: auto;"">
                                <img src=""images/G_L_U_28_darkshift.png"" style= ""width:200px""alt=""img"">
                            </div>
                        </div>","40","","0","images/G_L_U_28_darkshift.png","","","","positive","2","G","L","U","darkshift","",""
"","","","","","html-slider-response","24","163269","0.0-20.0","qpbf9vrqcb","5","NaN","<div style=""width:500px;"">
                            <p style=""font-size:50px; font-weight:bold;""
                            >positive</p>
                            <div style=""width:240px; margin: auto;"">
                                <img src=""images/G_D_S_30_darkshift.png"" style= ""width:200px""alt=""img"">
                            </div>
                        </div>","62","","0","images/G_D_S_30_darkshift.png","","","","positive","2","G","D","S","darkshift","",""
"","","","","","html-slider-response","25","165260","0.0-21.0","qpbf9vrqcb","5","NaN","<div style=""width:500px;"">
                            <p style=""font-size:50px; font-weight:bold;""
                            >positive</p>
                            <div style=""width:240px; margin: auto;"">
                                <img src=""images/B_L_S_37_lightshift.png"" style= ""width:200px""alt=""img"">
                            </div>
                        </div>","103","","0","images/B_L_S_37_lightshift.png","","","","positive","1","B","L","S","lightshift","",""
"","","","","","html-slider-response","26","167437","0.0-22.0","qpbf9vrqcb","5","NaN","<div style=""width:500px;"">
                            <p style=""font-size:50px; font-weight:bold;""
                            >positive</p>
                            <div style=""width:240px; margin: auto;"">
                                <img src=""images/R_L_U_15_darkshift.png"" style= ""width:200px""alt=""img"">
                            </div>
                        </div>","78","","0","images/R_L_U_15_darkshift.png","","","","positive","2","R","L","U","darkshift","",""
"","","","","","html-slider-response","27","169797","0.0-23.0","qpbf9vrqcb","5","NaN","<div style=""width:500px;"">
                            <p style=""font-size:50px; font-weight:bold;""
                            >positive</p>
                            <div style=""width:240px; margin: auto;"">
                                <img src=""images/Y_D_S_10_lightshift.png"" style= ""width:200px""alt=""img"">
                            </div>
                        </div>","200","","0","images/Y_D_S_10_lightshift.png","","","","positive","1","Y","D","S","lightshift","",""
"","","","","","html-slider-response","28","171901","0.0-24.0","qpbf9vrqcb","5","NaN","<div style=""width:500px;"">
                            <p style=""font-size:50px; font-weight:bold;""
                            >positive</p>
                            <div style=""width:240px; margin: auto;"">
                                <img src=""images/Y_D_U_12_lightshift.png"" style= ""width:200px""alt=""img"">
                            </div>
                        </div>","-104","","0","images/Y_D_U_12_lightshift.png","","","","positive","2","Y","D","U","lightshift","",""
"","","","","","html-slider-response","29","174053","0.0-25.0","qpbf9vrqcb","5","NaN","<div style=""width:500px;"">
                            <p style=""font-size:50px; font-weight:bold;""
                            >positive</p>
                            <div style=""width:240px; margin: auto;"">
                                <img src=""images/R_L_U_15_lightshift.png"" style= ""width:200px""alt=""img"">
                            </div>
                        </div>","-38","","0","images/R_L_U_15_lightshift.png","","","","positive","2","R","L","U","lightshift","",""
"","","","","","html-slider-response","30","175912","0.0-26.0","qpbf9vrqcb","5","NaN","<div style=""width:500px;"">
                            <p style=""font-size:50px; font-weight:bold;""
                            >positive</p>
                            <div style=""width:240px; margin: auto;"">
                                <img src=""images/R_L_S_13_lightshift.png"" style= ""width:200px""alt=""img"">
                            </div>
                        </div>","-95","","0","images/R_L_S_13_lightshift.png","","","","positive","1","R","L","S","lightshift","",""
"","","","","","html-slider-response","31","177756","0.0-27.0","qpbf9vrqcb","5","NaN","<div style=""width:500px;"">
                            <p style=""font-size:50px; font-weight:bold;""
                            >positive</p>
                            <div style=""width:240px; margin: auto;"">
                                <img src=""images/G_D_U_33_darkshift.png"" style= ""width:200px""alt=""img"">
                            </div>
                        </div>","-59","","0","images/G_D_U_33_darkshift.png","","","","positive","1","G","D","U","darkshift","",""
"","","","","","html-slider-response","32","181095","0.0-28.0","qpbf9vrqcb","5","NaN","<div style=""width:500px;"">
                            <p style=""font-size:50px; font-weight:bold;""
                            >positive</p>
                            <div style=""width:240px; margin: auto;"">
                                <img src=""images/B_D_U_2_lightshift.png"" style= ""width:200px""alt=""img"">
                            </div>
                        </div>","59","","0","images/B_D_U_2_lightshift.png","","","","positive","2","B","D","U","lightshift","",""
"","","","","","html-slider-response","33","183245","0.0-29.0","qpbf9vrqcb","5","NaN","<div style=""width:500px;"">
                            <p style=""font-size:50px; font-weight:bold;""
                            >positive</p>
                            <div style=""width:240px; margin: auto;"">
                                <img src=""images/Y_L_U_7_darkshift.png"" style= ""width:200px""alt=""img"">
                            </div>
                        </div>","173","","0","images/Y_L_U_7_darkshift.png","","","","positive","1","Y","L","U","darkshift","",""
"","","","","","html-slider-response","34","185628","0.0-30.0","qpbf9vrqcb","5","NaN","<div style=""width:500px;"">
                            <p style=""font-size:50px; font-weight:bold;""
                            >positive</p>
                            <div style=""width:240px; margin: auto;"">
                                <img src=""images/B_D_S_44_lightshift.png"" style= ""width:200px""alt=""img"">
                            </div>
                        </div>","-68","","0","images/B_D_S_44_lightshift.png","","","","positive","2","B","D","S","lightshift","",""
"","","","","","html-slider-response","35","188589","0.0-31.0","qpbf9vrqcb","5","NaN","<div style=""width:500px;"">
                            <p style=""font-size:50px; font-weight:bold;""
                            >positive</p>
                            <div style=""width:240px; margin: auto;"">
                                <img src=""images/Y_D_U_12_darkshift.png"" style= ""width:200px""alt=""img"">
                            </div>
                        </div>","-174","","0","images/Y_D_U_12_darkshift.png","","","","positive","1","Y","D","U","darkshift","",""
"","","","","","html-slider-response","36","191642","0.0-32.0","qpbf9vrqcb","5","NaN","<div style=""width:500px;"">
                            <p style=""font-size:50px; font-weight:bold;""
                            >positive</p>
                            <div style=""width:240px; margin: auto;"">
                                <img src=""images/G_L_S_27_darkshift.png"" style= ""width:200px""alt=""img"">
                            </div>
                        </div>","35","","0","images/G_L_S_27_darkshift.png","","","","positive","1","G","L","S","darkshift","",""
"","","","","","html-slider-response","37","193870","0.0-33.0","qpbf9vrqcb","5","NaN","<div style=""width:500px;"">
                            <p style=""font-size:50px; font-weight:bold;""
                            >positive</p>
                            <div style=""width:240px; margin: auto;"">
                                <img src=""images/G_L_U_28_darkshift.png"" style= ""width:200px""alt=""img"">
                            </div>
                        </div>","50","","0","images/G_L_U_28_darkshift.png","","","","positive","1","G","L","U","darkshift","",""
"","","","","","html-slider-response","38","196566","0.0-34.0","qpbf9vrqcb","5","NaN","<div style=""width:500px;"">
                            <p style=""font-size:50px; font-weight:bold;""
                            >positive</p>
                            <div style=""width:240px; margin: auto;"">
                                <img src=""images/G_D_U_33_darkshift.png"" style= ""width:200px""alt=""img"">
                            </div>
                        </div>","-34","","0","images/G_D_U_33_darkshift.png","","","","positive","2","G","D","U","darkshift","",""
"","","","","","html-slider-response","39","198849","0.0-35.0","qpbf9vrqcb","5","NaN","<div style=""width:500px;"">
                            <p style=""font-size:50px; font-weight:bold;""
                            >positive</p>
                            <div style=""width:240px; margin: auto;"">
                                <img src=""images/Y_L_S_5_darkshift.png"" style= ""width:200px""alt=""img"">
                            </div>
                        </div>","86","","0","images/Y_L_S_5_darkshift.png","","","","positive","1","Y","L","S","darkshift","",""
"","","","","","html-slider-response","40","201182","0.0-36.0","qpbf9vrqcb","5","NaN","<div style=""width:500px;"">
                            <p style=""font-size:50px; font-weight:bold;""
                            >positive</p>
                            <div style=""width:240px; margin: auto;"">
                                <img src=""images/Y_D_U_12_lightshift.png"" style= ""width:200px""alt=""img"">
                            </div>
                        </div>","39","","0","images/Y_D_U_12_lightshift.png","","","","positive","1","Y","D","U","lightshift","",""
"","","","","","html-slider-response","41","205141","0.0-37.0","qpbf9vrqcb","5","NaN","<div style=""width:500px;"">
                            <p style=""font-size:50px; font-weight:bold;""
                            >positive</p>
                            <div style=""width:240px; margin: auto;"">
                                <img src=""images/R_D_S_23_lightshift.png"" style= ""width:200px""alt=""img"">
                            </div>
                        </div>","38","","0","images/R_D_S_23_lightshift.png","","","","positive","2","R","D","S","lightshift","",""
"","","","","","html-slider-response","42","207028","0.0-38.0","qpbf9vrqcb","5","NaN","<div style=""width:500px;"">
                            <p style=""font-size:50px; font-weight:bold;""
                            >positive</p>
                            <div style=""width:240px; margin: auto;"">
                                <img src=""images/B_L_S_37_lightshift.png"" style= ""width:200px""alt=""img"">
                            </div>
                        </div>","-39","","0","images/B_L_S_37_lightshift.png","","","","positive","2","B","L","S","lightshift","",""
"","","","","","html-slider-response","43","208664","0.0-39.0","qpbf9vrqcb","5","NaN","<div style=""width:500px;"">
                            <p style=""font-size:50px; font-weight:bold;""
                            >positive</p>
                            <div style=""width:240px; margin: auto;"">
                                <img src=""images/R_D_S_23_darkshift.png"" style= ""width:200px""alt=""img"">
                            </div>
                        </div>","36","","0","images/R_D_S_23_darkshift.png","","","","positive","2","R","D","S","darkshift","",""
"","","","","","html-slider-response","44","211162","0.0-40.0","qpbf9vrqcb","5","NaN","<div style=""width:500px;"">
                            <p style=""font-size:50px; font-weight:bold;""
                            >positive</p>
                            <div style=""width:240px; margin: auto;"">
                                <img src=""images/B_L_S_37_darkshift.png"" style= ""width:200px""alt=""img"">
                            </div>
                        </div>","-26","","0","images/B_L_S_37_darkshift.png","","","","positive","2","B","L","S","darkshift","",""
"","","","","","html-slider-response","45","214453","0.0-41.0","qpbf9vrqcb","5","NaN","<div style=""width:500px;"">
                            <p style=""font-size:50px; font-weight:bold;""
                            >positive</p>
                            <div style=""width:240px; margin: auto;"">
                                <img src=""images/Y_L_U_7_lightshift.png"" style= ""width:200px""alt=""img"">
                            </div>
                        </div>","132","","0","images/Y_L_U_7_lightshift.png","","","","positive","1","Y","L","U","lightshift","",""
"","","","","","html-slider-response","46","216730","0.0-42.0","qpbf9vrqcb","5","NaN","<div style=""width:500px;"">
                            <p style=""font-size:50px; font-weight:bold;""
                            >positive</p>
                            <div style=""width:240px; margin: auto;"">
                                <img src=""images/B_D_S_44_lightshift.png"" style= ""width:200px""alt=""img"">
                            </div>
                        </div>","-25","","0","images/B_D_S_44_lightshift.png","","","","positive","1","B","D","S","lightshift","",""
"","","","","","html-slider-response","47","219289","0.0-43.0","qpbf9vrqcb","5","NaN","<div style=""width:500px;"">
                            <p style=""font-size:50px; font-weight:bold;""
                            >positive</p>
                            <div style=""width:240px; margin: auto;"">
                                <img src=""images/Y_D_S_10_lightshift.png"" style= ""width:200px""alt=""img"">
                            </div>
                        </div>","60","","0","images/Y_D_S_10_lightshift.png","","","","positive","2","Y","D","S","lightshift","",""
"","","","","","html-slider-response","48","221178","0.0-44.0","qpbf9vrqcb","5","NaN","<div style=""width:500px;"">
                            <p style=""font-size:50px; font-weight:bold;""
                            >positive</p>
                            <div style=""width:240px; margin: auto;"">
                                <img src=""images/R_L_U_15_lightshift.png"" style= ""width:200px""alt=""img"">
                            </div>
                        </div>","46","","0","images/R_L_U_15_lightshift.png","","","","positive","1","R","L","U","lightshift","",""
"","","","","","html-slider-response","49","223232","0.0-45.0","qpbf9vrqcb","5","NaN","<div style=""width:500px;"">
                            <p style=""font-size:50px; font-weight:bold;""
                            >positive</p>
                            <div style=""width:240px; margin: auto;"">
                                <img src=""images/G_D_U_33_lightshift.png"" style= ""width:200px""alt=""img"">
                            </div>
                        </div>","-53","","0","images/G_D_U_33_lightshift.png","","","","positive","2","G","D","U","lightshift","",""
"","","","","","html-slider-response","50","224796","0.0-46.0","qpbf9vrqcb","5","NaN","<div style=""width:500px;"">
                            <p style=""font-size:50px; font-weight:bold;""
                            >positive</p>
                            <div style=""width:240px; margin: auto;"">
                                <img src=""images/B_D_U_2_darkshift.png"" style= ""width:200px""alt=""img"">
                            </div>
                        </div>","26","","0","images/B_D_U_2_darkshift.png","","","","positive","1","B","D","U","darkshift","",""
"","","","","","html-slider-response","51","226514","0.0-47.0","qpbf9vrqcb","5","NaN","<div style=""width:500px;"">
                            <p style=""font-size:50px; font-weight:bold;""
                            >positive</p>
                            <div style=""width:240px; margin: auto;"">
                                <img src=""images/Y_L_S_5_lightshift.png"" style= ""width:200px""alt=""img"">
                            </div>
                        </div>","194","","0","images/Y_L_S_5_lightshift.png","","","","positive","1","Y","L","S","lightshift","",""
"","","","","","html-slider-response","52","228659","0.0-48.0","qpbf9vrqcb","5","NaN","<div style=""width:500px;"">
                            <p style=""font-size:50px; font-weight:bold;""
                            >positive</p>
                            <div style=""width:240px; margin: auto;"">
                                <img src=""images/G_D_S_30_darkshift.png"" style= ""width:200px""alt=""img"">
                            </div>
                        </div>","28","","0","images/G_D_S_30_darkshift.png","","","","positive","1","G","D","S","darkshift","",""
"","","","","","html-slider-response","53","230262","0.0-49.0","qpbf9vrqcb","5","NaN","<div style=""width:500px;"">
                            <p style=""font-size:50px; font-weight:bold;""
                            >positive</p>
                            <div style=""width:240px; margin: auto;"">
                                <img src=""images/R_L_S_13_darkshift.png"" style= ""width:200px""alt=""img"">
                            </div>
                        </div>","32","","0","images/R_L_S_13_darkshift.png","","","","positive","2","R","L","S","darkshift","",""
"","","","","","html-slider-response","54","231573","0.0-50.0","qpbf9vrqcb","5","NaN","<div style=""width:500px;"">
                            <p style=""font-size:50px; font-weight:bold;""
                            >positive</p>
                            <div style=""width:240px; margin: auto;"">
                                <img src=""images/R_D_S_23_lightshift.png"" style= ""width:200px""alt=""img"">
                            </div>
                        </div>","38","","0","images/R_D_S_23_lightshift.png","","","","positive","1","R","D","S","lightshift","",""
"","","","","","html-slider-response","55","233646","0.0-51.0","qpbf9vrqcb","5","NaN","<div style=""width:500px;"">
                            <p style=""font-size:50px; font-weight:bold;""
                            >positive</p>
                            <div style=""width:240px; margin: auto;"">
                                <img src=""images/R_D_S_23_darkshift.png"" style= ""width:200px""alt=""img"">
                            </div>
                        </div>","-27","","0","images/R_D_S_23_darkshift.png","","","","positive","1","R","D","S","darkshift","",""
"","","","","","html-slider-response","56","235550","0.0-52.0","qpbf9vrqcb","5","NaN","<div style=""width:500px;"">
                            <p style=""font-size:50px; font-weight:bold;""
                            >positive</p>
                            <div style=""width:240px; margin: auto;"">
                                <img src=""images/R_L_S_13_lightshift.png"" style= ""width:200px""alt=""img"">
                            </div>
                        </div>","-32","","0","images/R_L_S_13_lightshift.png","","","","positive","2","R","L","S","lightshift","",""
"","","","","","html-slider-response","57","237753","0.0-53.0","qpbf9vrqcb","5","NaN","<div style=""width:500px;"">
                            <p style=""font-size:50px; font-weight:bold;""
                            >positive</p>
                            <div style=""width:240px; margin: auto;"">
                                <img src=""images/Y_L_S_5_darkshift.png"" style= ""width:200px""alt=""img"">
                            </div>
                        </div>","154","","0","images/Y_L_S_5_darkshift.png","","","","positive","2","Y","L","S","darkshift","",""
"","","","","","html-slider-response","58","239284","0.0-54.0","qpbf9vrqcb","5","NaN","<div style=""width:500px;"">
                            <p style=""font-size:50px; font-weight:bold;""
                            >positive</p>
                            <div style=""width:240px; margin: auto;"">
                                <img src=""images/B_L_U_41_darkshift.png"" style= ""width:200px""alt=""img"">
                            </div>
                        </div>","24","","0","images/B_L_U_41_darkshift.png","","","","positive","1","B","L","U","darkshift","",""
"","","","","","html-slider-response","59","241307","0.0-55.0","qpbf9vrqcb","5","NaN","<div style=""width:500px;"">
                            <p style=""font-size:50px; font-weight:bold;""
                            >positive</p>
                            <div style=""width:240px; margin: auto;"">
                                <img src=""images/R_D_U_26_darkshift.png"" style= ""width:200px""alt=""img"">
                            </div>
                        </div>","-77","","0","images/R_D_U_26_darkshift.png","","","","positive","1","R","D","U","darkshift","",""
"","","","","","html-slider-response","60","244401","0.0-56.0","qpbf9vrqcb","5","NaN","<div style=""width:500px;"">
                            <p style=""font-size:50px; font-weight:bold;""
                            >positive</p>
                            <div style=""width:240px; margin: auto;"">
                                <img src=""images/G_L_U_28_lightshift.png"" style= ""width:200px""alt=""img"">
                            </div>
                        </div>","-42","","0","images/G_L_U_28_lightshift.png","","","","positive","2","G","L","U","lightshift","",""
"","","","","","html-slider-response","61","246555","0.0-57.0","qpbf9vrqcb","5","NaN","<div style=""width:500px;"">
                            <p style=""font-size:50px; font-weight:bold;""
                            >positive</p>
                            <div style=""width:240px; margin: auto;"">
                                <img src=""images/Y_D_S_10_darkshift.png"" style= ""width:200px""alt=""img"">
                            </div>
                        </div>","-180","","0","images/Y_D_S_10_darkshift.png","","","","positive","2","Y","D","S","darkshift","",""
"","","","","","html-slider-response","62","248288","0.0-58.0","qpbf9vrqcb","5","NaN","<div style=""width:500px;"">
                            <p style=""font-size:50px; font-weight:bold;""
                            >positive</p>
                            <div style=""width:240px; margin: auto;"">
                                <img src=""images/R_D_U_26_lightshift.png"" style= ""width:200px""alt=""img"">
                            </div>
                        </div>","36","","0","images/R_D_U_26_lightshift.png","","","","positive","2","R","D","U","lightshift","",""
"","","","","","html-slider-response","63","250943","0.0-59.0","qpbf9vrqcb","5","NaN","<div style=""width:500px;"">
                            <p style=""font-size:50px; font-weight:bold;""
                            >positive</p>
                            <div style=""width:240px; margin: auto;"">
                                <img src=""images/G_L_U_28_lightshift.png"" style= ""width:200px""alt=""img"">
                            </div>
                        </div>","50","","0","images/G_L_U_28_lightshift.png","","","","positive","1","G","L","U","lightshift","",""
"","","","","","html-slider-response","64","252718","0.0-60.0","qpbf9vrqcb","5","NaN","<div style=""width:500px;"">
                            <p style=""font-size:50px; font-weight:bold;""
                            >positive</p>
                            <div style=""width:240px; margin: auto;"">
                                <img src=""images/R_L_U_15_darkshift.png"" style= ""width:200px""alt=""img"">
                            </div>
                        </div>","46","","0","images/R_L_U_15_darkshift.png","","","","positive","1","R","L","U","darkshift","",""
"","","","","","html-slider-response","65","255009","0.0-61.0","qpbf9vrqcb","5","NaN","<div style=""width:500px;"">
                            <p style=""font-size:50px; font-weight:bold;""
                            >positive</p>
                            <div style=""width:240px; margin: auto;"">
                                <img src=""images/G_D_S_30_lightshift.png"" style= ""width:200px""alt=""img"">
                            </div>
                        </div>","-115","","0","images/G_D_S_30_lightshift.png","","","","positive","2","G","D","S","lightshift","",""
"","","","","","html-slider-response","66","257390","0.0-62.0","qpbf9vrqcb","5","NaN","<div style=""width:500px;"">
                            <p style=""font-size:50px; font-weight:bold;""
                            >positive</p>
                            <div style=""width:240px; margin: auto;"">
                                <img src=""images/B_L_U_41_lightshift.png"" style= ""width:200px""alt=""img"">
                            </div>
                        </div>","-31","","0","images/B_L_U_41_lightshift.png","","","","positive","1","B","L","U","lightshift","",""
"","","","","","html-slider-response","67","260629","0.0-63.0","qpbf9vrqcb","5","NaN","<div style=""width:500px;"">
                            <p style=""font-size:50px; font-weight:bold;""
                            >positive</p>
                            <div style=""width:240px; margin: auto;"">
                                <img src=""images/B_L_S_37_darkshift.png"" style= ""width:200px""alt=""img"">
                            </div>
                        </div>","35","","0","images/B_L_S_37_darkshift.png","","","","positive","1","B","L","S","darkshift","",""
"","","","","","html-slider-response","68","262936","0.0-64.0","qpbf9vrqcb","5","NaN","<div style=""width:500px;"">
                            <p style=""font-size:50px; font-weight:bold;""
                            >positive</p>
                            <div style=""width:240px; margin: auto;"">
                                <img src=""images/G_L_S_27_lightshift.png"" style= ""width:200px""alt=""img"">
                            </div>
                        </div>","32","","0","images/G_L_S_27_lightshift.png","","","","positive","1","G","L","S","lightshift","",""
"","","","","","html-slider-response","69","268470","0.0-65.0","qpbf9vrqcb","5","NaN","<div style=""width:500px;"">
                            <p style=""font-size:50px; font-weight:bold;""
                            >positive</p>
                            <div style=""width:240px; margin: auto;"">
                                <img src=""images/Y_L_U_7_darkshift.png"" style= ""width:200px""alt=""img"">
                            </div>
                        </div>","167","","0","images/Y_L_U_7_darkshift.png","","","","positive","2","Y","L","U","darkshift","",""
"","","","","","html-slider-response","70","270454","0.0-66.0","qpbf9vrqcb","5","NaN","<div style=""width:500px;"">
                            <p style=""font-size:50px; font-weight:bold;""
                            >positive</p>
                            <div style=""width:240px; margin: auto;"">
                                <img src=""images/B_D_S_44_darkshift.png"" style= ""width:200px""alt=""img"">
                            </div>
                        </div>","30","","0","images/B_D_S_44_darkshift.png","","","","positive","1","B","D","S","darkshift","",""
"","","","","","html-slider-response","71","279353","0.0-67.0","qpbf9vrqcb","5","NaN","<div style=""width:500px;"">
                            <p style=""font-size:50px; font-weight:bold;""
                            >positive</p>
                            <div style=""width:240px; margin: auto;"">
                                <img src=""images/R_D_U_26_darkshift.png"" style= ""width:200px""alt=""img"">
                            </div>
                        </div>","30","","0","images/R_D_U_26_darkshift.png","","","","positive","2","R","D","U","darkshift","",""
"","","","","","html-slider-response","72","281646","0.0-68.0","qpbf9vrqcb","5","NaN","<div style=""width:500px;"">
                            <p style=""font-size:50px; font-weight:bold;""
                            >positive</p>
                            <div style=""width:240px; margin: auto;"">
                                <img src=""images/Y_L_S_5_lightshift.png"" style= ""width:200px""alt=""img"">
                            </div>
                        </div>","145","","0","images/Y_L_S_5_lightshift.png","","","","positive","2","Y","L","S","lightshift","",""
"","","","","","html-slider-response","73","284026","0.0-69.0","qpbf9vrqcb","5","NaN","<div style=""width:500px;"">
                            <p style=""font-size:50px; font-weight:bold;""
                            >positive</p>
                            <div style=""width:240px; margin: auto;"">
                                <img src=""images/G_D_U_33_lightshift.png"" style= ""width:200px""alt=""img"">
                            </div>
                        </div>","43","","0","images/G_D_U_33_lightshift.png","","","","positive","1","G","D","U","lightshift","",""
"","","","","","html-slider-response","74","285914","0.0-70.0","qpbf9vrqcb","5","NaN","<div style=""width:500px;"">
                            <p style=""font-size:50px; font-weight:bold;""
                            >positive</p>
                            <div style=""width:240px; margin: auto;"">
                                <img src=""images/G_L_S_27_lightshift.png"" style= ""width:200px""alt=""img"">
                            </div>
                        </div>","-30","","0","images/G_L_S_27_lightshift.png","","","","positive","2","G","L","S","lightshift","",""
"","","","","","html-slider-response","75","287347","0.0-71.0","qpbf9vrqcb","5","NaN","<div style=""width:500px;"">
                            <p style=""font-size:50px; font-weight:bold;""
                            >positive</p>
                            <div style=""width:240px; margin: auto;"">
                                <img src=""images/Y_D_U_12_darkshift.png"" style= ""width:200px""alt=""img"">
                            </div>
                        </div>","37","","0","images/Y_D_U_12_darkshift.png","","","","positive","2","Y","D","U","darkshift","",""
"","","","","","html-slider-response","76","288884","0.0-72.0","qpbf9vrqcb","5","NaN","<div style=""width:500px;"">
                            <p style=""font-size:50px; font-weight:bold;""
                            >positive</p>
                            <div style=""width:240px; margin: auto;"">
                                <img src=""images/B_D_U_2_darkshift.png"" style= ""width:200px""alt=""img"">
                            </div>
                        </div>","37","","0","images/B_D_U_2_darkshift.png","","","","positive","2","B","D","U","darkshift","",""
"","","","","","html-slider-response","77","290861","0.0-73.0","qpbf9vrqcb","5","NaN","<div style=""width:500px;"">
                            <p style=""font-size:50px; font-weight:bold;""
                            >positive</p>
                            <div style=""width:240px; margin: auto;"">
                                <img src=""images/Y_D_S_10_darkshift.png"" style= ""width:200px""alt=""img"">
                            </div>
                        </div>","-185","","0","images/Y_D_S_10_darkshift.png","","","","positive","1","Y","D","S","darkshift","",""
"","","","","","html-slider-response","78","292861","0.0-74.0","qpbf9vrqcb","5","NaN","<div style=""width:500px;"">
                            <p style=""font-size:50px; font-weight:bold;""
                            >positive</p>
                            <div style=""width:240px; margin: auto;"">
                                <img src=""images/G_L_S_27_darkshift.png"" style= ""width:200px""alt=""img"">
                            </div>
                        </div>","25","","0","images/G_L_S_27_darkshift.png","","","","positive","2","G","L","S","darkshift","",""
"","","","","","html-slider-response","79","294724","0.0-75.0","qpbf9vrqcb","5","NaN","<div style=""width:500px;"">
                            <p style=""font-size:50px; font-weight:bold;""
                            >positive</p>
                            <div style=""width:240px; margin: auto;"">
                                <img src=""images/R_D_U_26_lightshift.png"" style= ""width:200px""alt=""img"">
                            </div>
                        </div>","23","","0","images/R_D_U_26_lightshift.png","","","","positive","1","R","D","U","lightshift","",""
"","","","","","html-slider-response","80","296772","0.0-76.0","qpbf9vrqcb","5","NaN","<div style=""width:500px;"">
                            <p style=""font-size:50px; font-weight:bold;""
                            >positive</p>
                            <div style=""width:240px; margin: auto;"">
                                <img src=""images/B_L_U_41_darkshift.png"" style= ""width:200px""alt=""img"">
                            </div>
                        </div>","-22","","0","images/B_L_U_41_darkshift.png","","","","positive","2","B","L","U","darkshift","",""
"","","","","","html-slider-response","81","301277","0.0-77.0","qpbf9vrqcb","5","NaN","<div style=""width:500px;"">
                            <p style=""font-size:50px; font-weight:bold;""
                            >positive</p>
                            <div style=""width:240px; margin: auto;"">
                                <img src=""images/R_L_S_13_darkshift.png"" style= ""width:200px""alt=""img"">
                            </div>
                        </div>","52","","0","images/R_L_S_13_darkshift.png","","","","positive","1","R","L","S","darkshift","",""
"","","","","","html-button-response","82","304758","0.0-78.0","qpbf9vrqcb","5","2978","<p>Great Job! You've finished block 1.<br></br> You have 3 block(s) left to go.<br></br></p>","0","","","","","","","","","","","","","",""
"","","","","","html-button-response","83","306443","0.0-79.0","qpbf9vrqcb","5","1683","<p>In this block of trials, you will be asked to rate how much you associate each map with:</p > <p style = 'font-size:150%; font-weight: bold'>negative</p><br></br>","0","","","","","","","","","","","","","",""
"","","","","","html-slider-response","84","308938","0.0-80.0","qpbf9vrqcb","5","NaN","<div style=""width:500px;"">
                            <p style=""font-size:50px; font-weight:bold;""
                            >negative</p>
                            <div style=""width:240px; margin: auto;"">
                                <img src=""images/B_D_U_2_darkshift.png"" style= ""width:200px""alt=""img"">
                            </div>
                        </div>","171","","0","images/B_D_U_2_darkshift.png","","","","negative","2","B","D","U","darkshift","",""
"","","","","","html-slider-response","85","311360","0.0-81.0","qpbf9vrqcb","5","NaN","<div style=""width:500px;"">
                            <p style=""font-size:50px; font-weight:bold;""
                            >negative</p>
                            <div style=""width:240px; margin: auto;"">
                                <img src=""images/R_D_S_23_lightshift.png"" style= ""width:200px""alt=""img"">
                            </div>
                        </div>","-32","","0","images/R_D_S_23_lightshift.png","","","","negative","2","R","D","S","lightshift","",""
"","","","","","html-slider-response","86","313231","0.0-82.0","qpbf9vrqcb","5","NaN","<div style=""width:500px;"">
                            <p style=""font-size:50px; font-weight:bold;""
                            >negative</p>
                            <div style=""width:240px; margin: auto;"">
                                <img src=""images/R_L_U_15_darkshift.png"" style= ""width:200px""alt=""img"">
                            </div>
                        </div>","50","","0","images/R_L_U_15_darkshift.png","","","","negative","1","R","L","U","darkshift","",""
"","","","","","html-slider-response","87","315620","0.0-83.0","qpbf9vrqcb","5","NaN","<div style=""width:500px;"">
                            <p style=""font-size:50px; font-weight:bold;""
                            >negative</p>
                            <div style=""width:240px; margin: auto;"">
                                <img src=""images/G_D_S_30_lightshift.png"" style= ""width:200px""alt=""img"">
                            </div>
                        </div>","-38","","0","images/G_D_S_30_lightshift.png","","","","negative","2","G","D","S","lightshift","",""
"","","","","","html-slider-response","88","319053","0.0-84.0","qpbf9vrqcb","5","NaN","<div style=""width:500px;"">
                            <p style=""font-size:50px; font-weight:bold;""
                            >negative</p>
                            <div style=""width:240px; margin: auto;"">
                                <img src=""images/G_L_U_28_darkshift.png"" style= ""width:200px""alt=""img"">
                            </div>
                        </div>","-37","","0","images/G_L_U_28_darkshift.png","","","","negative","2","G","L","U","darkshift","",""
"","","","","","html-slider-response","89","320496","0.0-85.0","qpbf9vrqcb","5","NaN","<div style=""width:500px;"">
                            <p style=""font-size:50px; font-weight:bold;""
                            >negative</p>
                            <div style=""width:240px; margin: auto;"">
                                <img src=""images/G_L_S_27_darkshift.png"" style= ""width:200px""alt=""img"">
                            </div>
                        </div>","-37","","0","images/G_L_S_27_darkshift.png","","","","negative","2","G","L","S","darkshift","",""
"","","","","","html-slider-response","90","322406","0.0-86.0","qpbf9vrqcb","5","NaN","<div style=""width:500px;"">
                            <p style=""font-size:50px; font-weight:bold;""
                            >negative</p>
                            <div style=""width:240px; margin: auto;"">
                                <img src=""images/B_D_S_44_lightshift.png"" style= ""width:200px""alt=""img"">
                            </div>
                        </div>","18","","0","images/B_D_S_44_lightshift.png","","","","negative","1","B","D","S","lightshift","",""
"","","","","","html-slider-response","91","324455","0.0-87.0","qpbf9vrqcb","5","NaN","<div style=""width:500px;"">
                            <p style=""font-size:50px; font-weight:bold;""
                            >negative</p>
                            <div style=""width:240px; margin: auto;"">
                                <img src=""images/G_L_U_28_darkshift.png"" style= ""width:200px""alt=""img"">
                            </div>
                        </div>","18","","0","images/G_L_U_28_darkshift.png","","","","negative","1","G","L","U","darkshift","",""
"","","","","","html-slider-response","92","326091","0.0-88.0","qpbf9vrqcb","5","NaN","<div style=""width:500px;"">
                            <p style=""font-size:50px; font-weight:bold;""
                            >negative</p>
                            <div style=""width:240px; margin: auto;"">
                                <img src=""images/R_D_S_23_darkshift.png"" style= ""width:200px""alt=""img"">
                            </div>
                        </div>","41","","0","images/R_D_S_23_darkshift.png","","","","negative","1","R","D","S","darkshift","",""
"","","","","","html-slider-response","93","329072","0.0-89.0","qpbf9vrqcb","5","NaN","<div style=""width:500px;"">
                            <p style=""font-size:50px; font-weight:bold;""
                            >negative</p>
                            <div style=""width:240px; margin: auto;"">
                                <img src=""images/G_D_U_33_lightshift.png"" style= ""width:200px""alt=""img"">
                            </div>
                        </div>","75","","0","images/G_D_U_33_lightshift.png","","","","negative","1","G","D","U","lightshift","",""
"","","","","","html-slider-response","94","331266","0.0-90.0","qpbf9vrqcb","5","NaN","<div style=""width:500px;"">
                            <p style=""font-size:50px; font-weight:bold;""
                            >negative</p>
                            <div style=""width:240px; margin: auto;"">
                                <img src=""images/Y_L_U_7_lightshift.png"" style= ""width:200px""alt=""img"">
                            </div>
                        </div>","-75","","0","images/Y_L_U_7_lightshift.png","","","","negative","2","Y","L","U","lightshift","",""
"","","","","","html-slider-response","95","332797","0.0-91.0","qpbf9vrqcb","5","NaN","<div style=""width:500px;"">
                            <p style=""font-size:50px; font-weight:bold;""
                            >negative</p>
                            <div style=""width:240px; margin: auto;"">
                                <img src=""images/Y_L_U_7_darkshift.png"" style= ""width:200px""alt=""img"">
                            </div>
                        </div>","-58","","0","images/Y_L_U_7_darkshift.png","","","","negative","1","Y","L","U","darkshift","",""
"","","","","","html-slider-response","96","334319","0.0-92.0","qpbf9vrqcb","5","NaN","<div style=""width:500px;"">
                            <p style=""font-size:50px; font-weight:bold;""
                            >negative</p>
                            <div style=""width:240px; margin: auto;"">
                                <img src=""images/R_L_S_13_darkshift.png"" style= ""width:200px""alt=""img"">
                            </div>
                        </div>","-30","","0","images/R_L_S_13_darkshift.png","","","","negative","2","R","L","S","darkshift","",""
"","","","","","html-slider-response","97","336723","0.0-93.0","qpbf9vrqcb","5","NaN","<div style=""width:500px;"">
                            <p style=""font-size:50px; font-weight:bold;""
                            >negative</p>
                            <div style=""width:240px; margin: auto;"">
                                <img src=""images/B_L_S_37_lightshift.png"" style= ""width:200px""alt=""img"">
                            </div>
                        </div>","-17","","0","images/B_L_S_37_lightshift.png","","","","negative","2","B","L","S","lightshift","",""
"","","","","","html-slider-response","98","338659","0.0-94.0","qpbf9vrqcb","5","NaN","<div style=""width:500px;"">
                            <p style=""font-size:50px; font-weight:bold;""
                            >negative</p>
                            <div style=""width:240px; margin: auto;"">
                                <img src=""images/R_L_U_15_lightshift.png"" style= ""width:200px""alt=""img"">
                            </div>
                        </div>","-13","","0","images/R_L_U_15_lightshift.png","","","","negative","2","R","L","U","lightshift","",""
"","","","","","html-slider-response","99","340465","0.0-95.0","qpbf9vrqcb","5","NaN","<div style=""width:500px;"">
                            <p style=""font-size:50px; font-weight:bold;""
                            >negative</p>
                            <div style=""width:240px; margin: auto;"">
                                <img src=""images/Y_L_S_5_darkshift.png"" style= ""width:200px""alt=""img"">
                            </div>
                        </div>","-26","","0","images/Y_L_S_5_darkshift.png","","","","negative","2","Y","L","S","darkshift","",""
"","","","","","html-slider-response","100","342320","0.0-96.0","qpbf9vrqcb","5","NaN","<div style=""width:500px;"">
                            <p style=""font-size:50px; font-weight:bold;""
                            >negative</p>
                            <div style=""width:240px; margin: auto;"">
                                <img src=""images/Y_D_S_10_lightshift.png"" style= ""width:200px""alt=""img"">
                            </div>
                        </div>","-60","","0","images/Y_D_S_10_lightshift.png","","","","negative","1","Y","D","S","lightshift","",""
"","","","","","html-slider-response","101","344442","0.0-97.0","qpbf9vrqcb","5","NaN","<div style=""width:500px;"">
                            <p style=""font-size:50px; font-weight:bold;""
                            >negative</p>
                            <div style=""width:240px; margin: auto;"">
                                <img src=""images/Y_D_U_12_lightshift.png"" style= ""width:200px""alt=""img"">
                            </div>
                        </div>","176","","0","images/Y_D_U_12_lightshift.png","","","","negative","1","Y","D","U","lightshift","",""
"","","","","","html-slider-response","102","345939","0.0-98.0","qpbf9vrqcb","5","NaN","<div style=""width:500px;"">
                            <p style=""font-size:50px; font-weight:bold;""
                            >negative</p>
                            <div style=""width:240px; margin: auto;"">
                                <img src=""images/R_L_S_13_darkshift.png"" style= ""width:200px""alt=""img"">
                            </div>
                        </div>","-41","","0","images/R_L_S_13_darkshift.png","","","","negative","1","R","L","S","darkshift","",""
"","","","","","html-slider-response","103","347794","0.0-99.0","qpbf9vrqcb","5","NaN","<div style=""width:500px;"">
                            <p style=""font-size:50px; font-weight:bold;""
                            >negative</p>
                            <div style=""width:240px; margin: auto;"">
                                <img src=""images/B_D_S_44_darkshift.png"" style= ""width:200px""alt=""img"">
                            </div>
                        </div>","-55","","0","images/B_D_S_44_darkshift.png","","","","negative","1","B","D","S","darkshift","",""
"","","","","","html-slider-response","104","350588","0.0-100.0","qpbf9vrqcb","5","NaN","<div style=""width:500px;"">
                            <p style=""font-size:50px; font-weight:bold;""
                            >negative</p>
                            <div style=""width:240px; margin: auto;"">
                                <img src=""images/R_D_U_26_lightshift.png"" style= ""width:200px""alt=""img"">
                            </div>
                        </div>","18","","0","images/R_D_U_26_lightshift.png","","","","negative","2","R","D","U","lightshift","",""
"","","","","","html-slider-response","105","352256","0.0-101.0","qpbf9vrqcb","5","NaN","<div style=""width:500px;"">
                            <p style=""font-size:50px; font-weight:bold;""
                            >negative</p>
                            <div style=""width:240px; margin: auto;"">
                                <img src=""images/R_D_S_23_lightshift.png"" style= ""width:200px""alt=""img"">
                            </div>
                        </div>","-56","","0","images/R_D_S_23_lightshift.png","","","","negative","1","R","D","S","lightshift","",""
"","","","","","html-slider-response","106","354532","0.0-102.0","qpbf9vrqcb","5","NaN","<div style=""width:500px;"">
                            <p style=""font-size:50px; font-weight:bold;""
                            >negative</p>
                            <div style=""width:240px; margin: auto;"">
                                <img src=""images/Y_L_S_5_lightshift.png"" style= ""width:200px""alt=""img"">
                            </div>
                        </div>","-74","","0","images/Y_L_S_5_lightshift.png","","","","negative","1","Y","L","S","lightshift","",""
"","","","","","html-slider-response","107","356427","0.0-103.0","qpbf9vrqcb","5","NaN","<div style=""width:500px;"">
                            <p style=""font-size:50px; font-weight:bold;""
                            >negative</p>
                            <div style=""width:240px; margin: auto;"">
                                <img src=""images/G_D_U_33_lightshift.png"" style= ""width:200px""alt=""img"">
                            </div>
                        </div>","38","","0","images/G_D_U_33_lightshift.png","","","","negative","2","G","D","U","lightshift","",""
"","","","","","html-slider-response","108","358037","0.0-104.0","qpbf9vrqcb","5","NaN","<div style=""width:500px;"">
                            <p style=""font-size:50px; font-weight:bold;""
                            >negative</p>
                            <div style=""width:240px; margin: auto;"">
                                <img src=""images/G_D_U_33_darkshift.png"" style= ""width:200px""alt=""img"">
                            </div>
                        </div>","-59","","0","images/G_D_U_33_darkshift.png","","","","negative","1","G","D","U","darkshift","",""
"","","","","","html-slider-response","109","359544","0.0-105.0","qpbf9vrqcb","5","NaN","<div style=""width:500px;"">
                            <p style=""font-size:50px; font-weight:bold;""
                            >negative</p>
                            <div style=""width:240px; margin: auto;"">
                                <img src=""images/B_L_S_37_darkshift.png"" style= ""width:200px""alt=""img"">
                            </div>
                        </div>","-30","","0","images/B_L_S_37_darkshift.png","","","","negative","2","B","L","S","darkshift","",""
"","","","","","html-slider-response","110","361731","0.0-106.0","qpbf9vrqcb","5","NaN","<div style=""width:500px;"">
                            <p style=""font-size:50px; font-weight:bold;""
                            >negative</p>
                            <div style=""width:240px; margin: auto;"">
                                <img src=""images/R_D_U_26_darkshift.png"" style= ""width:200px""alt=""img"">
                            </div>
                        </div>","157","","0","images/R_D_U_26_darkshift.png","","","","negative","1","R","D","U","darkshift","",""
"","","","","","html-slider-response","111","363171","0.0-107.0","qpbf9vrqcb","5","NaN","<div style=""width:500px;"">
                            <p style=""font-size:50px; font-weight:bold;""
                            >negative</p>
                            <div style=""width:240px; margin: auto;"">
                                <img src=""images/G_L_S_27_lightshift.png"" style= ""width:200px""alt=""img"">
                            </div>
                        </div>","-86","","0","images/G_L_S_27_lightshift.png","","","","negative","1","G","L","S","lightshift","",""
"","","","","","html-slider-response","112","364711","0.0-108.0","qpbf9vrqcb","5","NaN","<div style=""width:500px;"">
                            <p style=""font-size:50px; font-weight:bold;""
                            >negative</p>
                            <div style=""width:240px; margin: auto;"">
                                <img src=""images/B_L_U_41_lightshift.png"" style= ""width:200px""alt=""img"">
                            </div>
                        </div>","-43","","0","images/B_L_U_41_lightshift.png","","","","negative","2","B","L","U","lightshift","",""
"","","","","","html-slider-response","113","366380","0.0-109.0","qpbf9vrqcb","5","NaN","<div style=""width:500px;"">
                            <p style=""font-size:50px; font-weight:bold;""
                            >negative</p>
                            <div style=""width:240px; margin: auto;"">
                                <img src=""images/G_L_U_28_lightshift.png"" style= ""width:200px""alt=""img"">
                            </div>
                        </div>","-62","","0","images/G_L_U_28_lightshift.png","","","","negative","2","G","L","U","lightshift","",""
"","","","","","html-slider-response","114","367959","0.0-110.0","qpbf9vrqcb","5","NaN","<div style=""width:500px;"">
                            <p style=""font-size:50px; font-weight:bold;""
                            >negative</p>
                            <div style=""width:240px; margin: auto;"">
                                <img src=""images/B_L_U_41_darkshift.png"" style= ""width:200px""alt=""img"">
                            </div>
                        </div>","-82","","0","images/B_L_U_41_darkshift.png","","","","negative","1","B","L","U","darkshift","",""
"","","","","","html-slider-response","115","369279","0.0-111.0","qpbf9vrqcb","5","NaN","<div style=""width:500px;"">
                            <p style=""font-size:50px; font-weight:bold;""
                            >negative</p>
                            <div style=""width:240px; margin: auto;"">
                                <img src=""images/B_L_S_37_darkshift.png"" style= ""width:200px""alt=""img"">
                            </div>
                        </div>","-43","","0","images/B_L_S_37_darkshift.png","","","","negative","1","B","L","S","darkshift","",""
"","","","","","html-slider-response","116","370623","0.0-112.0","qpbf9vrqcb","5","NaN","<div style=""width:500px;"">
                            <p style=""font-size:50px; font-weight:bold;""
                            >negative</p>
                            <div style=""width:240px; margin: auto;"">
                                <img src=""images/B_L_U_41_darkshift.png"" style= ""width:200px""alt=""img"">
                            </div>
                        </div>","-53","","0","images/B_L_U_41_darkshift.png","","","","negative","2","B","L","U","darkshift","",""
"","","","","","html-slider-response","117","372874","0.0-113.0","qpbf9vrqcb","5","NaN","<div style=""width:500px;"">
                            <p style=""font-size:50px; font-weight:bold;""
                            >negative</p>
                            <div style=""width:240px; margin: auto;"">
                                <img src=""images/B_D_U_2_darkshift.png"" style= ""width:200px""alt=""img"">
                            </div>
                        </div>","56","","0","images/B_D_U_2_darkshift.png","","","","negative","1","B","D","U","darkshift","",""
"","","","","","html-slider-response","118","374638","0.0-114.0","qpbf9vrqcb","5","NaN","<div style=""width:500px;"">
                            <p style=""font-size:50px; font-weight:bold;""
                            >negative</p>
                            <div style=""width:240px; margin: auto;"">
                                <img src=""images/B_D_S_44_lightshift.png"" style= ""width:200px""alt=""img"">
                            </div>
                        </div>","-17","","0","images/B_D_S_44_lightshift.png","","","","negative","2","B","D","S","lightshift","",""
"","","","","","html-slider-response","119","377740","0.0-115.0","qpbf9vrqcb","5","NaN","<div style=""width:500px;"">
                            <p style=""font-size:50px; font-weight:bold;""
                            >negative</p>
                            <div style=""width:240px; margin: auto;"">
                                <img src=""images/G_D_S_30_darkshift.png"" style= ""width:200px""alt=""img"">
                            </div>
                        </div>","-12","","0","images/G_D_S_30_darkshift.png","","","","negative","1","G","D","S","darkshift","",""
"","","","","","html-slider-response","120","379595","0.0-116.0","qpbf9vrqcb","5","NaN","<div style=""width:500px;"">
                            <p style=""font-size:50px; font-weight:bold;""
                            >negative</p>
                            <div style=""width:240px; margin: auto;"">
                                <img src=""images/R_D_U_26_darkshift.png"" style= ""width:200px""alt=""img"">
                            </div>
                        </div>","129","","0","images/R_D_U_26_darkshift.png","","","","negative","2","R","D","U","darkshift","",""
"","","","","","html-slider-response","121","381344","0.0-117.0","qpbf9vrqcb","5","NaN","<div style=""width:500px;"">
                            <p style=""font-size:50px; font-weight:bold;""
                            >negative</p>
                            <div style=""width:240px; margin: auto;"">
                                <img src=""images/Y_D_S_10_darkshift.png"" style= ""width:200px""alt=""img"">
                            </div>
                        </div>","198","","0","images/Y_D_S_10_darkshift.png","","","","negative","1","Y","D","S","darkshift","",""
"","","","","","html-slider-response","122","382916","0.0-118.0","qpbf9vrqcb","5","NaN","<div style=""width:500px;"">
                            <p style=""font-size:50px; font-weight:bold;""
                            >negative</p>
                            <div style=""width:240px; margin: auto;"">
                                <img src=""images/Y_D_S_10_darkshift.png"" style= ""width:200px""alt=""img"">
                            </div>
                        </div>","200","","0","images/Y_D_S_10_darkshift.png","","","","negative","2","Y","D","S","darkshift","",""
"","","","","","html-slider-response","123","384567","0.0-119.0","qpbf9vrqcb","5","NaN","<div style=""width:500px;"">
                            <p style=""font-size:50px; font-weight:bold;""
                            >negative</p>
                            <div style=""width:240px; margin: auto;"">
                                <img src=""images/Y_D_U_12_darkshift.png"" style= ""width:200px""alt=""img"">
                            </div>
                        </div>","200","","0","images/Y_D_U_12_darkshift.png","","","","negative","1","Y","D","U","darkshift","",""
"","","","","","html-slider-response","124","387475","0.0-120.0","qpbf9vrqcb","5","NaN","<div style=""width:500px;"">
                            <p style=""font-size:50px; font-weight:bold;""
                            >negative</p>
                            <div style=""width:240px; margin: auto;"">
                                <img src=""images/B_D_U_2_lightshift.png"" style= ""width:200px""alt=""img"">
                            </div>
                        </div>","-44","","0","images/B_D_U_2_lightshift.png","","","","negative","1","B","D","U","lightshift","",""
"","","","","","html-slider-response","125","388835","0.0-121.0","qpbf9vrqcb","5","NaN","<div style=""width:500px;"">
                            <p style=""font-size:50px; font-weight:bold;""
                            >negative</p>
                            <div style=""width:240px; margin: auto;"">
                                <img src=""images/G_D_U_33_darkshift.png"" style= ""width:200px""alt=""img"">
                            </div>
                        </div>","-44","","0","images/G_D_U_33_darkshift.png","","","","negative","2","G","D","U","darkshift","",""
"","","","","","html-slider-response","126","393877","0.0-122.0","qpbf9vrqcb","5","NaN","<div style=""width:500px;"">
                            <p style=""font-size:50px; font-weight:bold;""
                            >negative</p>
                            <div style=""width:240px; margin: auto;"">
                                <img src=""images/G_D_S_30_darkshift.png"" style= ""width:200px""alt=""img"">
                            </div>
                        </div>","-44","","0","images/G_D_S_30_darkshift.png","","","","negative","2","G","D","S","darkshift","",""
"","","","","","html-slider-response","127","404571","0.0-123.0","qpbf9vrqcb","5","NaN","<div style=""width:500px;"">
                            <p style=""font-size:50px; font-weight:bold;""
                            >negative</p>
                            <div style=""width:240px; margin: auto;"">
                                <img src=""images/Y_D_U_12_lightshift.png"" style= ""width:200px""alt=""img"">
                            </div>
                        </div>","200","","0","images/Y_D_U_12_lightshift.png","","","","negative","2","Y","D","U","lightshift","",""
"","","","","","html-slider-response","128","406360","0.0-124.0","qpbf9vrqcb","5","NaN","<div style=""width:500px;"">
                            <p style=""font-size:50px; font-weight:bold;""
                            >negative</p>
                            <div style=""width:240px; margin: auto;"">
                                <img src=""images/R_D_S_23_darkshift.png"" style= ""width:200px""alt=""img"">
                            </div>
                        </div>","-61","","0","images/R_D_S_23_darkshift.png","","","","negative","2","R","D","S","darkshift","",""
"","","","","","html-slider-response","129","407899","0.0-125.0","qpbf9vrqcb","5","NaN","<div style=""width:500px;"">
                            <p style=""font-size:50px; font-weight:bold;""
                            >negative</p>
                            <div style=""width:240px; margin: auto;"">
                                <img src=""images/G_L_S_27_darkshift.png"" style= ""width:200px""alt=""img"">
                            </div>
                        </div>","-61","","0","images/G_L_S_27_darkshift.png","","","","negative","1","G","L","S","darkshift","",""
"","","","","","html-slider-response","130","409981","0.0-126.0","qpbf9vrqcb","5","NaN","<div style=""width:500px;"">
                            <p style=""font-size:50px; font-weight:bold;""
                            >negative</p>
                            <div style=""width:240px; margin: auto;"">
                                <img src=""images/Y_L_U_7_lightshift.png"" style= ""width:200px""alt=""img"">
                            </div>
                        </div>","-40","","0","images/Y_L_U_7_lightshift.png","","","","negative","1","Y","L","U","lightshift","",""
"","","","","","html-slider-response","131","411164","0.0-127.0","qpbf9vrqcb","5","NaN","<div style=""width:500px;"">
                            <p style=""font-size:50px; font-weight:bold;""
                            >negative</p>
                            <div style=""width:240px; margin: auto;"">
                                <img src=""images/G_L_S_27_lightshift.png"" style= ""width:200px""alt=""img"">
                            </div>
                        </div>","-40","","0","images/G_L_S_27_lightshift.png","","","","negative","2","G","L","S","lightshift","",""
"","","","","","html-slider-response","132","412312","0.0-128.0","qpbf9vrqcb","5","NaN","<div style=""width:500px;"">
                            <p style=""font-size:50px; font-weight:bold;""
                            >negative</p>
                            <div style=""width:240px; margin: auto;"">
                                <img src=""images/R_L_S_13_lightshift.png"" style= ""width:200px""alt=""img"">
                            </div>
                        </div>","-40","","0","images/R_L_S_13_lightshift.png","","","","negative","2","R","L","S","lightshift","",""
"","","","","","html-slider-response","133","413899","0.0-129.0","qpbf9vrqcb","5","NaN","<div style=""width:500px;"">
                            <p style=""font-size:50px; font-weight:bold;""
                            >negative</p>
                            <div style=""width:240px; margin: auto;"">
                                <img src=""images/B_L_S_37_lightshift.png"" style= ""width:200px""alt=""img"">
                            </div>
                        </div>","-107","","0","images/B_L_S_37_lightshift.png","","","","negative","1","B","L","S","lightshift","",""
"","","","","","html-slider-response","134","415770","0.0-130.0","qpbf9vrqcb","5","NaN","<div style=""width:500px;"">
                            <p style=""font-size:50px; font-weight:bold;""
                            >negative</p>
                            <div style=""width:240px; margin: auto;"">
                                <img src=""images/R_L_U_15_darkshift.png"" style= ""width:200px""alt=""img"">
                            </div>
                        </div>","46","","0","images/R_L_U_15_darkshift.png","","","","negative","2","R","L","U","darkshift","",""
"","","","","","html-slider-response","135","417503","0.0-131.0","qpbf9vrqcb","5","NaN","<div style=""width:500px;"">
                            <p style=""font-size:50px; font-weight:bold;""
                            >negative</p>
                            <div style=""width:240px; margin: auto;"">
                                <img src=""images/Y_D_U_12_darkshift.png"" style= ""width:200px""alt=""img"">
                            </div>
                        </div>","197","","0","images/Y_D_U_12_darkshift.png","","","","negative","2","Y","D","U","darkshift","",""
"","","","","","html-slider-response","136","419041","0.0-132.0","qpbf9vrqcb","5","NaN","<div style=""width:500px;"">
                            <p style=""font-size:50px; font-weight:bold;""
                            >negative</p>
                            <div style=""width:240px; margin: auto;"">
                                <img src=""images/B_L_U_41_lightshift.png"" style= ""width:200px""alt=""img"">
                            </div>
                        </div>","33","","0","images/B_L_U_41_lightshift.png","","","","negative","1","B","L","U","lightshift","",""
"","","","","","html-slider-response","137","421106","0.0-133.0","qpbf9vrqcb","5","NaN","<div style=""width:500px;"">
                            <p style=""font-size:50px; font-weight:bold;""
                            >negative</p>
                            <div style=""width:240px; margin: auto;"">
                                <img src=""images/Y_D_S_10_lightshift.png"" style= ""width:200px""alt=""img"">
                            </div>
                        </div>","184","","0","images/Y_D_S_10_lightshift.png","","","","negative","2","Y","D","S","lightshift","",""
"","","","","","html-slider-response","138","422767","0.0-134.0","qpbf9vrqcb","5","NaN","<div style=""width:500px;"">
                            <p style=""font-size:50px; font-weight:bold;""
                            >negative</p>
                            <div style=""width:240px; margin: auto;"">
                                <img src=""images/G_D_S_30_lightshift.png"" style= ""width:200px""alt=""img"">
                            </div>
                        </div>","-21","","0","images/G_D_S_30_lightshift.png","","","","negative","1","G","D","S","lightshift","",""
"","","","","","html-slider-response","139","424670","0.0-135.0","qpbf9vrqcb","5","NaN","<div style=""width:500px;"">
                            <p style=""font-size:50px; font-weight:bold;""
                            >negative</p>
                            <div style=""width:240px; margin: auto;"">
                                <img src=""images/Y_L_S_5_darkshift.png"" style= ""width:200px""alt=""img"">
                            </div>
                        </div>","-123","","0","images/Y_L_S_5_darkshift.png","","","","negative","1","Y","L","S","darkshift","",""
"","","","","","html-slider-response","140","426305","0.0-136.0","qpbf9vrqcb","5","NaN","<div style=""width:500px;"">
                            <p style=""font-size:50px; font-weight:bold;""
                            >negative</p>
                            <div style=""width:240px; margin: auto;"">
                                <img src=""images/R_L_S_13_lightshift.png"" style= ""width:200px""alt=""img"">
                            </div>
                        </div>","-63","","0","images/R_L_S_13_lightshift.png","","","","negative","1","R","L","S","lightshift","",""
"","","","","","html-slider-response","141","427828","0.0-137.0","qpbf9vrqcb","5","NaN","<div style=""width:500px;"">
                            <p style=""font-size:50px; font-weight:bold;""
                            >negative</p>
                            <div style=""width:240px; margin: auto;"">
                                <img src=""images/B_D_S_44_darkshift.png"" style= ""width:200px""alt=""img"">
                            </div>
                        </div>","-35","","0","images/B_D_S_44_darkshift.png","","","","negative","2","B","D","S","darkshift","",""
"","","","","","html-slider-response","142","430459","0.0-138.0","qpbf9vrqcb","5","NaN","<div style=""width:500px;"">
                            <p style=""font-size:50px; font-weight:bold;""
                            >negative</p>
                            <div style=""width:240px; margin: auto;"">
                                <img src=""images/R_D_U_26_lightshift.png"" style= ""width:200px""alt=""img"">
                            </div>
                        </div>","66","","0","images/R_D_U_26_lightshift.png","","","","negative","1","R","D","U","lightshift","",""
"","","","","","html-slider-response","143","432459","0.0-139.0","qpbf9vrqcb","5","NaN","<div style=""width:500px;"">
                            <p style=""font-size:50px; font-weight:bold;""
                            >negative</p>
                            <div style=""width:240px; margin: auto;"">
                                <img src=""images/Y_L_U_7_darkshift.png"" style= ""width:200px""alt=""img"">
                            </div>
                        </div>","189","","0","images/Y_L_U_7_darkshift.png","","","","negative","2","Y","L","U","darkshift","",""
"","","","","","html-slider-response","144","434022","0.0-140.0","qpbf9vrqcb","5","NaN","<div style=""width:500px;"">
                            <p style=""font-size:50px; font-weight:bold;""
                            >negative</p>
                            <div style=""width:240px; margin: auto;"">
                                <img src=""images/B_D_U_2_lightshift.png"" style= ""width:200px""alt=""img"">
                            </div>
                        </div>","38","","0","images/B_D_U_2_lightshift.png","","","","negative","2","B","D","U","lightshift","",""
"","","","","","html-slider-response","145","436322","0.0-141.0","qpbf9vrqcb","5","NaN","<div style=""width:500px;"">
                            <p style=""font-size:50px; font-weight:bold;""
                            >negative</p>
                            <div style=""width:240px; margin: auto;"">
                                <img src=""images/G_L_U_28_lightshift.png"" style= ""width:200px""alt=""img"">
                            </div>
                        </div>","40","","0","images/G_L_U_28_lightshift.png","","","","negative","1","G","L","U","lightshift","",""
"","","","","","html-slider-response","146","438063","0.0-142.0","qpbf9vrqcb","5","NaN","<div style=""width:500px;"">
                            <p style=""font-size:50px; font-weight:bold;""
                            >negative</p>
                            <div style=""width:240px; margin: auto;"">
                                <img src=""images/Y_L_S_5_lightshift.png"" style= ""width:200px""alt=""img"">
                            </div>
                        </div>","-73","","0","images/Y_L_S_5_lightshift.png","","","","negative","2","Y","L","S","lightshift","",""
"","","","","","html-slider-response","147","442941","0.0-143.0","qpbf9vrqcb","5","NaN","<div style=""width:500px;"">
                            <p style=""font-size:50px; font-weight:bold;""
                            >negative</p>
                            <div style=""width:240px; margin: auto;"">
                                <img src=""images/R_L_U_15_lightshift.png"" style= ""width:200px""alt=""img"">
                            </div>
                        </div>","-15","","0","images/R_L_U_15_lightshift.png","","","","negative","1","R","L","U","lightshift","",""
"","","","","","html-button-response","148","445011","0.0-144.0","qpbf9vrqcb","5","1567","<p>Great Job! You've finished block 2.<br></br> You have 2 block(s) left to go.<br></br></p>","0","","","","","","","","","","","","","",""
"","","","","","html-button-response","149","449326","0.0-145.0","qpbf9vrqcb","5","4314","<p>In this block of trials, you will be asked to rate how much you associate each map with:</p > <p style = 'font-size:150%; font-weight: bold'>calm</p><br></br>","0","","","","","","","","","","","","","",""
"","","","","","html-slider-response","150","451468","0.0-146.0","qpbf9vrqcb","5","NaN","<div style=""width:500px;"">
                            <p style=""font-size:50px; font-weight:bold;""
                            >calm</p>
                            <div style=""width:240px; margin: auto;"">
                                <img src=""images/G_L_S_27_lightshift.png"" style= ""width:200px""alt=""img"">
                            </div>
                        </div>","40","","0","images/G_L_S_27_lightshift.png","","","","calm","2","G","L","S","lightshift","",""
"","","","","","html-slider-response","151","452957","0.0-147.0","qpbf9vrqcb","5","NaN","<div style=""width:500px;"">
                            <p style=""font-size:50px; font-weight:bold;""
                            >calm</p>
                            <div style=""width:240px; margin: auto;"">
                                <img src=""images/B_L_S_37_lightshift.png"" style= ""width:200px""alt=""img"">
                            </div>
                        </div>","40","","0","images/B_L_S_37_lightshift.png","","","","calm","1","B","L","S","lightshift","",""
"","","","","","html-slider-response","152","454778","0.0-148.0","qpbf9vrqcb","5","NaN","<div style=""width:500px;"">
                            <p style=""font-size:50px; font-weight:bold;""
                            >calm</p>
                            <div style=""width:240px; margin: auto;"">
                                <img src=""images/G_L_U_28_darkshift.png"" style= ""width:200px""alt=""img"">
                            </div>
                        </div>","102","","0","images/G_L_U_28_darkshift.png","","","","calm","2","G","L","U","darkshift","",""
"","","","","","html-slider-response","153","458058","0.0-149.0","qpbf9vrqcb","5","NaN","<div style=""width:500px;"">
                            <p style=""font-size:50px; font-weight:bold;""
                            >calm</p>
                            <div style=""width:240px; margin: auto;"">
                                <img src=""images/G_D_U_33_lightshift.png"" style= ""width:200px""alt=""img"">
                            </div>
                        </div>","35","","0","images/G_D_U_33_lightshift.png","","","","calm","2","G","D","U","lightshift","",""
"","","","","","html-slider-response","154","460342","0.0-150.0","qpbf9vrqcb","5","NaN","<div style=""width:500px;"">
                            <p style=""font-size:50px; font-weight:bold;""
                            >calm</p>
                            <div style=""width:240px; margin: auto;"">
                                <img src=""images/G_L_U_28_darkshift.png"" style= ""width:200px""alt=""img"">
                            </div>
                        </div>","130","","0","images/G_L_U_28_darkshift.png","","","","calm","1","G","L","U","darkshift","",""
"","","","","","html-slider-response","155","462585","0.0-151.0","qpbf9vrqcb","5","NaN","<div style=""width:500px;"">
                            <p style=""font-size:50px; font-weight:bold;""
                            >calm</p>
                            <div style=""width:240px; margin: auto;"">
                                <img src=""images/B_L_U_41_lightshift.png"" style= ""width:200px""alt=""img"">
                            </div>
                        </div>","-55","","0","images/B_L_U_41_lightshift.png","","","","calm","2","B","L","U","lightshift","",""
"","","","","","html-slider-response","156","465354","0.0-152.0","qpbf9vrqcb","5","NaN","<div style=""width:500px;"">
                            <p style=""font-size:50px; font-weight:bold;""
                            >calm</p>
                            <div style=""width:240px; margin: auto;"">
                                <img src=""images/R_L_S_13_lightshift.png"" style= ""width:200px""alt=""img"">
                            </div>
                        </div>","-15","","0","images/R_L_S_13_lightshift.png","","","","calm","1","R","L","S","lightshift","",""
"","","","","","html-slider-response","157","468577","0.0-153.0","qpbf9vrqcb","5","NaN","<div style=""width:500px;"">
                            <p style=""font-size:50px; font-weight:bold;""
                            >calm</p>
                            <div style=""width:240px; margin: auto;"">
                                <img src=""images/B_L_U_41_darkshift.png"" style= ""width:200px""alt=""img"">
                            </div>
                        </div>","111","","0","images/B_L_U_41_darkshift.png","","","","calm","2","B","L","U","darkshift","",""
"","","","","","html-slider-response","158","472302","0.0-154.0","qpbf9vrqcb","5","NaN","<div style=""width:500px;"">
                            <p style=""font-size:50px; font-weight:bold;""
                            >calm</p>
                            <div style=""width:240px; margin: auto;"">
                                <img src=""images/B_L_S_37_darkshift.png"" style= ""width:200px""alt=""img"">
                            </div>
                        </div>","160","","0","images/B_L_S_37_darkshift.png","","","","calm","2","B","L","S","darkshift","",""
"","","","","","html-slider-response","159","474546","0.0-155.0","qpbf9vrqcb","5","NaN","<div style=""width:500px;"">
                            <p style=""font-size:50px; font-weight:bold;""
                            >calm</p>
                            <div style=""width:240px; margin: auto;"">
                                <img src=""images/G_D_S_30_darkshift.png"" style= ""width:200px""alt=""img"">
                            </div>
                        </div>","-59","","0","images/G_D_S_30_darkshift.png","","","","calm","1","G","D","S","darkshift","",""
"","","","","","html-slider-response","160","476739","0.0-156.0","qpbf9vrqcb","5","NaN","<div style=""width:500px;"">
                            <p style=""font-size:50px; font-weight:bold;""
                            >calm</p>
                            <div style=""width:240px; margin: auto;"">
                                <img src=""images/R_D_U_26_lightshift.png"" style= ""width:200px""alt=""img"">
                            </div>
                        </div>","-95","","0","images/R_D_U_26_lightshift.png","","","","calm","1","R","D","U","lightshift","",""
"","","","","","html-slider-response","161","478221","0.0-157.0","qpbf9vrqcb","5","NaN","<div style=""width:500px;"">
                            <p style=""font-size:50px; font-weight:bold;""
                            >calm</p>
                            <div style=""width:240px; margin: auto;"">
                                <img src=""images/R_L_S_13_lightshift.png"" style= ""width:200px""alt=""img"">
                            </div>
                        </div>","-32","","0","images/R_L_S_13_lightshift.png","","","","calm","2","R","L","S","lightshift","",""
"","","","","","html-slider-response","162","479581","0.0-158.0","qpbf9vrqcb","5","NaN","<div style=""width:500px;"">
                            <p style=""font-size:50px; font-weight:bold;""
                            >calm</p>
                            <div style=""width:240px; margin: auto;"">
                                <img src=""images/R_L_U_15_darkshift.png"" style= ""width:200px""alt=""img"">
                            </div>
                        </div>","-7","","0","images/R_L_U_15_darkshift.png","","","","calm","2","R","L","U","darkshift","",""
"","","","","","html-slider-response","163","481524","0.0-159.0","qpbf9vrqcb","5","NaN","<div style=""width:500px;"">
                            <p style=""font-size:50px; font-weight:bold;""
                            >calm</p>
                            <div style=""width:240px; margin: auto;"">
                                <img src=""images/B_D_U_2_darkshift.png"" style= ""width:200px""alt=""img"">
                            </div>
                        </div>","55","","0","images/B_D_U_2_darkshift.png","","","","calm","2","B","D","U","darkshift","",""
"","","","","","html-slider-response","164","483404","0.0-160.0","qpbf9vrqcb","5","NaN","<div style=""width:500px;"">
                            <p style=""font-size:50px; font-weight:bold;""
                            >calm</p>
                            <div style=""width:240px; margin: auto;"">
                                <img src=""images/Y_L_U_7_lightshift.png"" style= ""width:200px""alt=""img"">
                            </div>
                        </div>","-190","","0","images/Y_L_U_7_lightshift.png","","","","calm","1","Y","L","U","lightshift","",""
"","","","","","html-slider-response","165","485435","0.0-161.0","qpbf9vrqcb","5","NaN","<div style=""width:500px;"">
                            <p style=""font-size:50px; font-weight:bold;""
                            >calm</p>
                            <div style=""width:240px; margin: auto;"">
                                <img src=""images/B_L_S_37_lightshift.png"" style= ""width:200px""alt=""img"">
                            </div>
                        </div>","57","","0","images/B_L_S_37_lightshift.png","","","","calm","2","B","L","S","lightshift","",""
"","","","","","html-slider-response","166","487331","0.0-162.0","qpbf9vrqcb","5","NaN","<div style=""width:500px;"">
                            <p style=""font-size:50px; font-weight:bold;""
                            >calm</p>
                            <div style=""width:240px; margin: auto;"">
                                <img src=""images/G_D_U_33_lightshift.png"" style= ""width:200px""alt=""img"">
                            </div>
                        </div>","-54","","0","images/G_D_U_33_lightshift.png","","","","calm","1","G","D","U","lightshift","",""
"","","","","","html-slider-response","167","489144","0.0-163.0","qpbf9vrqcb","5","NaN","<div style=""width:500px;"">
                            <p style=""font-size:50px; font-weight:bold;""
                            >calm</p>
                            <div style=""width:240px; margin: auto;"">
                                <img src=""images/Y_L_S_5_darkshift.png"" style= ""width:200px""alt=""img"">
                            </div>
                        </div>","-166","","0","images/Y_L_S_5_darkshift.png","","","","calm","2","Y","L","S","darkshift","",""
"","","","","","html-slider-response","168","491048","0.0-164.0","qpbf9vrqcb","5","NaN","<div style=""width:500px;"">
                            <p style=""font-size:50px; font-weight:bold;""
                            >calm</p>
                            <div style=""width:240px; margin: auto;"">
                                <img src=""images/B_D_S_44_darkshift.png"" style= ""width:200px""alt=""img"">
                            </div>
                        </div>","75","","0","images/B_D_S_44_darkshift.png","","","","calm","2","B","D","S","darkshift","",""
"","","","","","html-slider-response","169","492925","0.0-165.0","qpbf9vrqcb","5","NaN","<div style=""width:500px;"">
                            <p style=""font-size:50px; font-weight:bold;""
                            >calm</p>
                            <div style=""width:240px; margin: auto;"">
                                <img src=""images/G_D_U_33_darkshift.png"" style= ""width:200px""alt=""img"">
                            </div>
                        </div>","29","","0","images/G_D_U_33_darkshift.png","","","","calm","2","G","D","U","darkshift","",""
"","","","","","html-slider-response","170","494765","0.0-166.0","qpbf9vrqcb","5","NaN","<div style=""width:500px;"">
                            <p style=""font-size:50px; font-weight:bold;""
                            >calm</p>
                            <div style=""width:240px; margin: auto;"">
                                <img src=""images/Y_D_S_10_lightshift.png"" style= ""width:200px""alt=""img"">
                            </div>
                        </div>","-190","","0","images/Y_D_S_10_lightshift.png","","","","calm","1","Y","D","S","lightshift","",""
"","","","","","html-slider-response","171","496456","0.0-167.0","qpbf9vrqcb","5","NaN","<div style=""width:500px;"">
                            <p style=""font-size:50px; font-weight:bold;""
                            >calm</p>
                            <div style=""width:240px; margin: auto;"">
                                <img src=""images/B_D_S_44_darkshift.png"" style= ""width:200px""alt=""img"">
                            </div>
                        </div>","83","","0","images/B_D_S_44_darkshift.png","","","","calm","1","B","D","S","darkshift","",""
"","","","","","html-slider-response","172","503283","0.0-168.0","qpbf9vrqcb","5","NaN","<div style=""width:500px;"">
                            <p style=""font-size:50px; font-weight:bold;""
                            >calm</p>
                            <div style=""width:240px; margin: auto;"">
                                <img src=""images/R_D_U_26_darkshift.png"" style= ""width:200px""alt=""img"">
                            </div>
                        </div>","-28","","0","images/R_D_U_26_darkshift.png","","","","calm","2","R","D","U","darkshift","",""
"","","","","","html-slider-response","173","504822","0.0-169.0","qpbf9vrqcb","5","NaN","<div style=""width:500px;"">
                            <p style=""font-size:50px; font-weight:bold;""
                            >calm</p>
