"success","timeout","failed_images","failed_audio","failed_video","trial_type","trial_index","time_elapsed","internal_node_id","subject_id","condition_num","rt","stimulus","response","question_order","slider_start","image_path","practiceTrial","practiceTrialNum","correct","concept","repetition","hue","lightness","saturation","shift","ishihara_plate","correct_response"
"true","false","[]","[]","[]","preload","0","407","0.0-0.0","r1kjcyjs69","10","","","","","","","","","","","","","","","","",""
"","","","","","html-button-response","1","14848","0.0-1.0","r1kjcyjs69","10","14439","Welcome to our experiment!<p>At the bottom of this screen, you will see a button that says ""Begin Experiment"".<br>Please only click that button when you are ready to complete the 25 minute experiment in one sitting.</p><p> Once you click that button, it will not be possible to restart the experiment.","0","","","","","","","","","","","","","",""
"true","","","","","fullscreen","2","20093","0.0-2.0","r1kjcyjs69","10","4231","","","","","","","","","","","","","","","",""
"","","","","","survey-multi-select","3","140486","0.0-3.0","r1kjcyjs69","10","120389","","{""Consent"":[""<strong>I consent</strong>""]}","[0]","","","","","","","","","","","","",""
"","","","","","html-button-response","4","148429","0.0-4.0","r1kjcyjs69","10","7942","Welcome! <p> This experiment involves two parts: demographic information, followed by the experimental task.<p> It will take about 25 minutes to complete both parts.","0","","","","","","","","","","","","","",""
"","","","","","survey-text","5","176574","0.0-5.0","r1kjcyjs69","10","28140","","{""Age"":""19"",""Gender"":""female"",""Race/ethnicity"":""asian/hispanic"",""Languages"":""English, Spanish""}","","","","","","","","","","","","","",""
"","","","","","html-slider-response","6","300204","0.0-6.0","r1kjcyjs69","10","123628","
                            <div style='text-align:left; font-size:20px; line-height:25px; width: 1400px;'>
                                During this experiment you will be asked to rate how much you associate maps with                    different concepts.<br> Below, you can see some examples of the maps you will be asked to rate. Next to the maps
                    is the list of concepts.<br>You will be asked                    to rate how much you associate each map with each concept on a scale from 'not at all' to 'very much' like the
                    one below. <br><br>
                    Now, please look at the list of concepts and maps. For each concept, think about the map you associate 'very
                    much' with the concept.<br>                     When you see that map during the experiment, please rate it near the 'very much' endpoint of the
                    scale.<br>Now, please think about which map you associate 'not at all'                     with each concept. When you see that map during the experiment, please rate it near the 'not at all' endpoint
                    of the scale.<br>
                    Please use the full range of the scale. That is, if a map is somewhat associated with the concept, you would
                    click partway between the middle point and right side of the scale.                    You will be asked to rate each map for a given concept before moving on to the next concept.<br><br>Press the
                    'Continue' button for instructions on how to use the slider.                    <br><br>
                </div>

                <div style=""width: 500px; margin: 0 auto;"">
                    <!-- Centered text paragraphs -->
                    <div style=""text-align: center; width: 500px;"">
                        <p style=""font-size:25px; line-height:18px;"">calm</p>
                        <p style=""font-size:25px; line-height:18px;"">positive</p>
                        <p style=""font-size:25px;line-height:18px;"">negative</p>
                        <p style=""font-size:25px;line-height:18px;"">startling</p>
                    </div>

                    <!-- Grid section -->
                   <div style=""display: flex; justify-content: center; padding-top: 15px;"">
                    <div style=""display: grid; grid-template-columns: repeat(8, 80px); grid-gap: 5px; width: auto;"">
                        <img src=""images/B_L_S_7_darkshift.png"" alt=""map"" style=""width: 100%;""><img src=""images/G_D_U_5_lightshift.png"" alt=""map"" style=""width: 100%;""><img src=""images/R_L_S_28_lightshift.png"" alt=""map"" style=""width: 100%;""><img src=""images/Y_D_S_26_darkshift.png"" alt=""map"" style=""width: 100%;""><img src=""images/Y_L_U_23_darkshift.png"" alt=""map"" style=""width: 100%;""><img src=""images/B_L_U_10_lightshift.png"" alt=""map"" style=""width: 100%;""><img src=""images/R_L_S_28_darkshift.png"" alt=""map"" style=""width: 100%;""><img src=""images/G_D_S_2_darkshift.png"" alt=""map"" style=""width: 100%;""><img src=""images/Y_D_S_26_lightshift.png"" alt=""map"" style=""width: 100%;""><img src=""images/R_L_U_30_darkshift.png"" alt=""map"" style=""width: 100%;""><img src=""images/R_D_S_33_lightshift.png"" alt=""map"" style=""width: 100%;""><img src=""images/Y_L_U_23_lightshift.png"" alt=""map"" style=""width: 100%;""><img src=""images/G_L_U_44_lightshift.png"" alt=""map"" style=""width: 100%;""><img src=""images/Y_D_U_27_lightshift.png"" alt=""map"" style=""width: 100%;""><img src=""images/R_L_U_30_lightshift.png"" alt=""map"" style=""width: 100%;""><img src=""images/B_D_S_12_lightshift.png"" alt=""map"" style=""width: 100%;""><img src=""images/B_L_S_7_lightshift.png"" alt=""map"" style=""width: 100%;""><img src=""images/B_D_S_12_darkshift.png"" alt=""map"" style=""width: 100%;""><img src=""images/Y_L_S_15_darkshift.png"" alt=""map"" style=""width: 100%;""><img src=""images/B_L_U_10_darkshift.png"" alt=""map"" style=""width: 100%;""><img src=""images/B_D_U_13_darkshift.png"" alt=""map"" style=""width: 100%;""><img src=""images/Y_D_U_27_darkshift.png"" alt=""map"" style=""width: 100%;""><img src=""images/G_D_S_2_lightshift.png"" alt=""map"" style=""width: 100%;""><img src=""images/B_D_U_13_lightshift.png"" alt=""map"" style=""width: 100%;""><img src=""images/G_L_S_41_darkshift.png"" alt=""map"" style=""width: 100%;""><img src=""images/G_D_U_5_darkshift.png"" alt=""map"" style=""width: 100%;""><img src=""images/G_L_U_44_darkshift.png"" alt=""map"" style=""width: 100%;""><img src=""images/R_D_U_37_darkshift.png"" alt=""map"" style=""width: 100%;""><img src=""images/R_D_U_37_lightshift.png"" alt=""map"" style=""width: 100%;""><img src=""images/G_L_S_41_lightshift.png"" alt=""map"" style=""width: 100%;""><img src=""images/Y_L_S_15_lightshift.png"" alt=""map"" style=""width: 100%;""><img src=""images/R_D_S_33_darkshift.png"" alt=""map"" style=""width: 100%;"">
                    </div>
                </div>

                    <!-- Clear floats -->
                    <div style=""clear: both;""></div>
                </div>
                            ","2","","0","maps_anchoring.png","true","","","","","","","","","",""
"","","","","","html-button-response","7","314768","0.0-7.0","r1kjcyjs69","10","14563","<div style=""width:800px;""><p style=""text-align:left"">To move the slider, click and drag your cursor to the location of the scale where you would like to make your rating and then let go. When you let go of the slider, your response will be recorded and the next trial will begin. <br>
                    We are interested in your initial impressions of each map for the given concept, so please go with your first intuition. <br>
                    Before you begin the experiment, there will be four training trials for you to practice using the scale. <br>
                     When you are ready to start the training trials, please click ""Continue"".</p><br></div>","0","","","","","","","","","","","","","",""
"","","","","","html-slider-response","8","319113","0.0-8.0-0.0","r1kjcyjs69","10","NaN","<div style=""width:500px;"">
                                    <p style=""font-size:25px;"">Please move the slider all the way to the <br> right endpoint of the scale</p>

                                    </div>
                                </div>","200","","0","","true","0","true","","","","","","","",""
"","","","","","html-button-response","9","321485","0.0-8.0-1.0","r1kjcyjs69","10","1857","<p align='center'><b>Good job!</b> Click on 'Continue' to proceed.</p>","0","","","","","","","","","","","","","",""
"","","","","","html-slider-response","10","325356","0.0-9.0-0.0","r1kjcyjs69","10","NaN","<div style=""width:500px;"">
                                    <p style=""font-size:25px;"">Please move the slider all the way to the <br> left endpoint of the scale</p>

                                    </div>
                                </div>","-200","","0","","true","1","true","","","","","","","",""
"","","","","","html-button-response","11","326626","0.0-9.0-1.0","r1kjcyjs69","10","766","<p align='center'><b>Good job!</b> Click on 'Continue' to proceed.</p>","0","","","","","","","","","","","","","",""
"","","","","","html-slider-response","12","332274","0.0-10.0-0.0","r1kjcyjs69","10","NaN","<div style=""width:500px;"">
                                    <p style=""font-size:25px;"">Please move the slider halfway between the center and right endpoint of the scale</p>

                                    </div>
                                </div>","109","","0","","true","2","true","","","","","","","",""
"","","","","","html-button-response","13","334162","0.0-10.0-1.0","r1kjcyjs69","10","1378","<p align='center'><b>Good job!</b> Click on 'Continue' to proceed.</p>","0","","","","","","","","","","","","","",""
"","","","","","html-slider-response","14","338342","0.0-11.0-0.0","r1kjcyjs69","10","NaN","<div style=""width:500px;"">
                                    <p style=""font-size:25px;"">Please move the slider halfway between the center and left endpoint of the scale</p>

                                    </div>
                                </div>","-109","","0","","true","3","true","","","","","","","",""
"","","","","","html-button-response","15","339814","0.0-11.0-1.0","r1kjcyjs69","10","959","<p align='center'><b>Good job!</b> Click on 'Continue' to proceed.</p>","0","","","","","","","","","","","","","",""
"","","","","","html-button-response","16","341261","0.0-12.0","r1kjcyjs69","10","1446","<p>Great job! You've completed the practice trials. Now you will begin the main task.</p>","0","","","","","","","","","","","","","",""
"","","","","","html-button-response","17","345301","0.0-13.0","r1kjcyjs69","10","4039","<p>In this block of trials, you will be asked to rate how much you associate each map with:</p > <p style = 'font-size:150%; font-weight: bold'>calm</p><br></br>","0","","","","","","","","","","","","","",""
"","","","","","html-slider-response","18","354162","0.0-14.0","r1kjcyjs69","10","NaN","<div style=""width:500px;"">
                            <p style=""font-size:50px; font-weight:bold;""
                            >calm</p>
                            <div style=""width:240px; margin: auto;"">
                                <img src=""images/Y_L_U_23_darkshift.png"" style= ""width:200px""alt=""img"">
                            </div>
                        </div>","99","","0","images/Y_L_U_23_darkshift.png","","","","calm","1","Y","L","U","darkshift","",""
"","","","","","html-slider-response","19","365455","0.0-15.0","r1kjcyjs69","10","NaN","<div style=""width:500px;"">
                            <p style=""font-size:50px; font-weight:bold;""
                            >calm</p>
                            <div style=""width:240px; margin: auto;"">
                                <img src=""images/G_L_U_44_darkshift.png"" style= ""width:200px""alt=""img"">
                            </div>
                        </div>","107","","0","images/G_L_U_44_darkshift.png","","","","calm","2","G","L","U","darkshift","",""
"","","","","","html-slider-response","20","369536","0.0-16.0","r1kjcyjs69","10","NaN","<div style=""width:500px;"">
                            <p style=""font-size:50px; font-weight:bold;""
                            >calm</p>
                            <div style=""width:240px; margin: auto;"">
                                <img src=""images/G_D_U_5_lightshift.png"" style= ""width:200px""alt=""img"">
                            </div>
                        </div>","-200","","0","images/G_D_U_5_lightshift.png","","","","calm","1","G","D","U","lightshift","",""
"","","","","","html-slider-response","21","375353","0.0-17.0","r1kjcyjs69","10","NaN","<div style=""width:500px;"">
                            <p style=""font-size:50px; font-weight:bold;""
                            >calm</p>
                            <div style=""width:240px; margin: auto;"">
                                <img src=""images/B_L_S_7_darkshift.png"" style= ""width:200px""alt=""img"">
                            </div>
                        </div>","-29","","0","images/B_L_S_7_darkshift.png","","","","calm","2","B","L","S","darkshift","",""
"","","","","","html-slider-response","22","384677","0.0-18.0","r1kjcyjs69","10","NaN","<div style=""width:500px;"">
                            <p style=""font-size:50px; font-weight:bold;""
                            >calm</p>
                            <div style=""width:240px; margin: auto;"">
                                <img src=""images/G_L_S_41_darkshift.png"" style= ""width:200px""alt=""img"">
                            </div>
                        </div>","44","","0","images/G_L_S_41_darkshift.png","","","","calm","1","G","L","S","darkshift","",""
"","","","","","html-slider-response","23","388346","0.0-19.0","r1kjcyjs69","10","NaN","<div style=""width:500px;"">
                            <p style=""font-size:50px; font-weight:bold;""
                            >calm</p>
                            <div style=""width:240px; margin: auto;"">
                                <img src=""images/R_D_U_37_darkshift.png"" style= ""width:200px""alt=""img"">
                            </div>
                        </div>","-172","","0","images/R_D_U_37_darkshift.png","","","","calm","1","R","D","U","darkshift","",""
"","","","","","html-slider-response","24","391632","0.0-20.0","r1kjcyjs69","10","NaN","<div style=""width:500px;"">
                            <p style=""font-size:50px; font-weight:bold;""
                            >calm</p>
                            <div style=""width:240px; margin: auto;"">
                                <img src=""images/G_L_U_44_lightshift.png"" style= ""width:200px""alt=""img"">
                            </div>
                        </div>","-148","","0","images/G_L_U_44_lightshift.png","","","","calm","2","G","L","U","lightshift","",""
"","","","","","html-slider-response","25","397134","0.0-21.0","r1kjcyjs69","10","NaN","<div style=""width:500px;"">
                            <p style=""font-size:50px; font-weight:bold;""
                            >calm</p>
                            <div style=""width:240px; margin: auto;"">
                                <img src=""images/G_D_S_2_darkshift.png"" style= ""width:200px""alt=""img"">
                            </div>
                        </div>","30","","0","images/G_D_S_2_darkshift.png","","","","calm","1","G","D","S","darkshift","",""
"","","","","","html-slider-response","26","404622","0.0-22.0","r1kjcyjs69","10","NaN","<div style=""width:500px;"">
                            <p style=""font-size:50px; font-weight:bold;""
                            >calm</p>
                            <div style=""width:240px; margin: auto;"">
                                <img src=""images/B_D_S_12_darkshift.png"" style= ""width:200px""alt=""img"">
                            </div>
                        </div>","114","","0","images/B_D_S_12_darkshift.png","","","","calm","2","B","D","S","darkshift","",""
"","","","","","html-slider-response","27","406868","0.0-23.0","r1kjcyjs69","10","NaN","<div style=""width:500px;"">
                            <p style=""font-size:50px; font-weight:bold;""
                            >calm</p>
                            <div style=""width:240px; margin: auto;"">
                                <img src=""images/Y_L_U_23_lightshift.png"" style= ""width:200px""alt=""img"">
                            </div>
                        </div>","-200","","0","images/Y_L_U_23_lightshift.png","","","","calm","2","Y","L","U","lightshift","",""
"","","","","","html-slider-response","28","410328","0.0-24.0","r1kjcyjs69","10","NaN","<div style=""width:500px;"">
                            <p style=""font-size:50px; font-weight:bold;""
                            >calm</p>
                            <div style=""width:240px; margin: auto;"">
                                <img src=""images/Y_L_U_23_lightshift.png"" style= ""width:200px""alt=""img"">
                            </div>
                        </div>","-200","","0","images/Y_L_U_23_lightshift.png","","","","calm","1","Y","L","U","lightshift","",""
"","","","","","html-slider-response","29","414459","0.0-25.0","r1kjcyjs69","10","NaN","<div style=""width:500px;"">
                            <p style=""font-size:50px; font-weight:bold;""
                            >calm</p>
                            <div style=""width:240px; margin: auto;"">
                                <img src=""images/Y_D_S_26_lightshift.png"" style= ""width:200px""alt=""img"">
                            </div>
                        </div>","-64","","0","images/Y_D_S_26_lightshift.png","","","","calm","2","Y","D","S","lightshift","",""
"","","","","","html-slider-response","30","417427","0.0-26.0","r1kjcyjs69","10","NaN","<div style=""width:500px;"">
                            <p style=""font-size:50px; font-weight:bold;""
                            >calm</p>
                            <div style=""width:240px; margin: auto;"">
                                <img src=""images/G_D_U_5_lightshift.png"" style= ""width:200px""alt=""img"">
                            </div>
                        </div>","-200","","0","images/G_D_U_5_lightshift.png","","","","calm","2","G","D","U","lightshift","",""
"","","","","","html-slider-response","31","420995","0.0-27.0","r1kjcyjs69","10","NaN","<div style=""width:500px;"">
                            <p style=""font-size:50px; font-weight:bold;""
                            >calm</p>
                            <div style=""width:240px; margin: auto;"">
                                <img src=""images/G_D_S_2_lightshift.png"" style= ""width:200px""alt=""img"">
                            </div>
                        </div>","-179","","0","images/G_D_S_2_lightshift.png","","","","calm","1","G","D","S","lightshift","",""
"","","","","","html-slider-response","32","423985","0.0-28.0","r1kjcyjs69","10","NaN","<div style=""width:500px;"">
                            <p style=""font-size:50px; font-weight:bold;""
                            >calm</p>
                            <div style=""width:240px; margin: auto;"">
                                <img src=""images/G_L_S_41_lightshift.png"" style= ""width:200px""alt=""img"">
                            </div>
                        </div>","-200","","0","images/G_L_S_41_lightshift.png","","","","calm","1","G","L","S","lightshift","",""
"","","","","","html-slider-response","33","428321","0.0-29.0","r1kjcyjs69","10","NaN","<div style=""width:500px;"">
                            <p style=""font-size:50px; font-weight:bold;""
                            >calm</p>
                            <div style=""width:240px; margin: auto;"">
                                <img src=""images/G_D_S_2_darkshift.png"" style= ""width:200px""alt=""img"">
                            </div>
                        </div>","-72","","0","images/G_D_S_2_darkshift.png","","","","calm","2","G","D","S","darkshift","",""
"","","","","","html-slider-response","34","436110","0.0-30.0","r1kjcyjs69","10","NaN","<div style=""width:500px;"">
                            <p style=""font-size:50px; font-weight:bold;""
                            >calm</p>
                            <div style=""width:240px; margin: auto;"">
                                <img src=""images/R_L_S_28_darkshift.png"" style= ""width:200px""alt=""img"">
                            </div>
                        </div>","-42","","0","images/R_L_S_28_darkshift.png","","","","calm","1","R","L","S","darkshift","",""
"","","","","","html-slider-response","35","441891","0.0-31.0","r1kjcyjs69","10","NaN","<div style=""width:500px;"">
                            <p style=""font-size:50px; font-weight:bold;""
                            >calm</p>
                            <div style=""width:240px; margin: auto;"">
                                <img src=""images/B_L_U_10_darkshift.png"" style= ""width:200px""alt=""img"">
                            </div>
                        </div>","35","","0","images/B_L_U_10_darkshift.png","","","","calm","2","B","L","U","darkshift","",""
"","","","","","html-slider-response","36","444886","0.0-32.0","r1kjcyjs69","10","NaN","<div style=""width:500px;"">
                            <p style=""font-size:50px; font-weight:bold;""
                            >calm</p>
                            <div style=""width:240px; margin: auto;"">
                                <img src=""images/R_D_S_33_darkshift.png"" style= ""width:200px""alt=""img"">
                            </div>
                        </div>","-58","","0","images/R_D_S_33_darkshift.png","","","","calm","1","R","D","S","darkshift","",""
"","","","","","html-slider-response","37","449704","0.0-33.0","r1kjcyjs69","10","NaN","<div style=""width:500px;"">
                            <p style=""font-size:50px; font-weight:bold;""
                            >calm</p>
                            <div style=""width:240px; margin: auto;"">
                                <img src=""images/B_D_S_12_lightshift.png"" style= ""width:200px""alt=""img"">
                            </div>
                        </div>","-68","","0","images/B_D_S_12_lightshift.png","","","","calm","2","B","D","S","lightshift","",""
"","","","","","html-slider-response","38","454484","0.0-34.0","r1kjcyjs69","10","NaN","<div style=""width:500px;"">
                            <p style=""font-size:50px; font-weight:bold;""
                            >calm</p>
                            <div style=""width:240px; margin: auto;"">
                                <img src=""images/B_L_S_7_darkshift.png"" style= ""width:200px""alt=""img"">
                            </div>
                        </div>","88","","0","images/B_L_S_7_darkshift.png","","","","calm","1","B","L","S","darkshift","",""
"","","","","","html-slider-response","39","457914","0.0-35.0","r1kjcyjs69","10","NaN","<div style=""width:500px;"">
                            <p style=""font-size:50px; font-weight:bold;""
                            >calm</p>
                            <div style=""width:240px; margin: auto;"">
                                <img src=""images/B_L_S_7_lightshift.png"" style= ""width:200px""alt=""img"">
                            </div>
                        </div>","-174","","0","images/B_L_S_7_lightshift.png","","","","calm","1","B","L","S","lightshift","",""
"","","","","","html-slider-response","40","462876","0.0-36.0","r1kjcyjs69","10","NaN","<div style=""width:500px;"">
                            <p style=""font-size:50px; font-weight:bold;""
                            >calm</p>
                            <div style=""width:240px; margin: auto;"">
                                <img src=""images/B_L_U_10_lightshift.png"" style= ""width:200px""alt=""img"">
                            </div>
                        </div>","-78","","0","images/B_L_U_10_lightshift.png","","","","calm","1","B","L","U","lightshift","",""
"","","","","","html-slider-response","41","467651","0.0-37.0","r1kjcyjs69","10","NaN","<div style=""width:500px;"">
                            <p style=""font-size:50px; font-weight:bold;""
                            >calm</p>
                            <div style=""width:240px; margin: auto;"">
                                <img src=""images/Y_D_S_26_darkshift.png"" style= ""width:200px""alt=""img"">
                            </div>
                        </div>","-58","","0","images/Y_D_S_26_darkshift.png","","","","calm","2","Y","D","S","darkshift","",""
"","","","","","html-slider-response","42","472895","0.0-38.0","r1kjcyjs69","10","NaN","<div style=""width:500px;"">
                            <p style=""font-size:50px; font-weight:bold;""
                            >calm</p>
                            <div style=""width:240px; margin: auto;"">
                                <img src=""images/B_L_U_10_darkshift.png"" style= ""width:200px""alt=""img"">
                            </div>
                        </div>","172","","0","images/B_L_U_10_darkshift.png","","","","calm","1","B","L","U","darkshift","",""
"","","","","","html-slider-response","43","477858","0.0-39.0","r1kjcyjs69","10","NaN","<div style=""width:500px;"">
                            <p style=""font-size:50px; font-weight:bold;""
                            >calm</p>
                            <div style=""width:240px; margin: auto;"">
                                <img src=""images/Y_L_U_23_darkshift.png"" style= ""width:200px""alt=""img"">
                            </div>
                        </div>","65","","0","images/Y_L_U_23_darkshift.png","","","","calm","2","Y","L","U","darkshift","",""
"","","","","","html-slider-response","44","484459","0.0-40.0","r1kjcyjs69","10","NaN","<div style=""width:500px;"">
                            <p style=""font-size:50px; font-weight:bold;""
                            >calm</p>
                            <div style=""width:240px; margin: auto;"">
                                <img src=""images/R_L_U_30_darkshift.png"" style= ""width:200px""alt=""img"">
                            </div>
                        </div>","-20","","0","images/R_L_U_30_darkshift.png","","","","calm","1","R","L","U","darkshift","",""
"","","","","","html-slider-response","45","487705","0.0-41.0","r1kjcyjs69","10","NaN","<div style=""width:500px;"">
                            <p style=""font-size:50px; font-weight:bold;""
                            >calm</p>
                            <div style=""width:240px; margin: auto;"">
                                <img src=""images/Y_D_S_26_lightshift.png"" style= ""width:200px""alt=""img"">
                            </div>
                        </div>","-35","","0","images/Y_D_S_26_lightshift.png","","","","calm","1","Y","D","S","lightshift","",""
"","","","","","html-slider-response","46","491555","0.0-42.0","r1kjcyjs69","10","NaN","<div style=""width:500px;"">
                            <p style=""font-size:50px; font-weight:bold;""
                            >calm</p>
                            <div style=""width:240px; margin: auto;"">
                                <img src=""images/G_D_U_5_darkshift.png"" style= ""width:200px""alt=""img"">
                            </div>
                        </div>","19","","0","images/G_D_U_5_darkshift.png","","","","calm","2","G","D","U","darkshift","",""
"","","","","","html-slider-response","47","494687","0.0-43.0","r1kjcyjs69","10","NaN","<div style=""width:500px;"">
                            <p style=""font-size:50px; font-weight:bold;""
                            >calm</p>
                            <div style=""width:240px; margin: auto;"">
                                <img src=""images/B_L_S_7_lightshift.png"" style= ""width:200px""alt=""img"">
                            </div>
                        </div>","-196","","0","images/B_L_S_7_lightshift.png","","","","calm","2","B","L","S","lightshift","",""
"","","","","","html-slider-response","48","497515","0.0-44.0","r1kjcyjs69","10","NaN","<div style=""width:500px;"">
                            <p style=""font-size:50px; font-weight:bold;""
                            >calm</p>
                            <div style=""width:240px; margin: auto;"">
                                <img src=""images/R_L_S_28_lightshift.png"" style= ""width:200px""alt=""img"">
                            </div>
                        </div>","-84","","0","images/R_L_S_28_lightshift.png","","","","calm","2","R","L","S","lightshift","",""
"","","","","","html-slider-response","49","500456","0.0-45.0","r1kjcyjs69","10","NaN","<div style=""width:500px;"">
                            <p style=""font-size:50px; font-weight:bold;""
                            >calm</p>
                            <div style=""width:240px; margin: auto;"">
                                <img src=""images/R_D_U_37_lightshift.png"" style= ""width:200px""alt=""img"">
                            </div>
                        </div>","-86","","0","images/R_D_U_37_lightshift.png","","","","calm","1","R","D","U","lightshift","",""
"","","","","","html-slider-response","50","503906","0.0-46.0","r1kjcyjs69","10","NaN","<div style=""width:500px;"">
                            <p style=""font-size:50px; font-weight:bold;""
                            >calm</p>
                            <div style=""width:240px; margin: auto;"">
                                <img src=""images/B_D_S_12_lightshift.png"" style= ""width:200px""alt=""img"">
                            </div>
                        </div>","16","","0","images/B_D_S_12_lightshift.png","","","","calm","1","B","D","S","lightshift","",""
"","","","","","html-slider-response","51","506430","0.0-47.0","r1kjcyjs69","10","NaN","<div style=""width:500px;"">
                            <p style=""font-size:50px; font-weight:bold;""
                            >calm</p>
                            <div style=""width:240px; margin: auto;"">
                                <img src=""images/B_L_U_10_lightshift.png"" style= ""width:200px""alt=""img"">
                            </div>
                        </div>","-200","","0","images/B_L_U_10_lightshift.png","","","","calm","2","B","L","U","lightshift","",""
"","","","","","html-slider-response","52","510797","0.0-48.0","r1kjcyjs69","10","NaN","<div style=""width:500px;"">
                            <p style=""font-size:50px; font-weight:bold;""
                            >calm</p>
                            <div style=""width:240px; margin: auto;"">
                                <img src=""images/R_L_U_30_lightshift.png"" style= ""width:200px""alt=""img"">
                            </div>
                        </div>","-200","","0","images/R_L_U_30_lightshift.png","","","","calm","2","R","L","U","lightshift","",""
"","","","","","html-slider-response","53","514433","0.0-49.0","r1kjcyjs69","10","NaN","<div style=""width:500px;"">
                            <p style=""font-size:50px; font-weight:bold;""
                            >calm</p>
                            <div style=""width:240px; margin: auto;"">
                                <img src=""images/G_L_S_41_darkshift.png"" style= ""width:200px""alt=""img"">
                            </div>
                        </div>","65","","0","images/G_L_S_41_darkshift.png","","","","calm","2","G","L","S","darkshift","",""
"","","","","","html-slider-response","54","517172","0.0-50.0","r1kjcyjs69","10","NaN","<div style=""width:500px;"">
                            <p style=""font-size:50px; font-weight:bold;""
                            >calm</p>
                            <div style=""width:240px; margin: auto;"">
                                <img src=""images/R_L_S_28_darkshift.png"" style= ""width:200px""alt=""img"">
                            </div>
                        </div>","-36","","0","images/R_L_S_28_darkshift.png","","","","calm","2","R","L","S","darkshift","",""
"","","","","","html-slider-response","55","521514","0.0-51.0","r1kjcyjs69","10","NaN","<div style=""width:500px;"">
                            <p style=""font-size:50px; font-weight:bold;""
                            >calm</p>
                            <div style=""width:240px; margin: auto;"">
                                <img src=""images/B_D_U_13_darkshift.png"" style= ""width:200px""alt=""img"">
                            </div>
                        </div>","-112","","0","images/B_D_U_13_darkshift.png","","","","calm","1","B","D","U","darkshift","",""
"","","","","","html-slider-response","56","526753","0.0-52.0","r1kjcyjs69","10","NaN","<div style=""width:500px;"">
                            <p style=""font-size:50px; font-weight:bold;""
                            >calm</p>
                            <div style=""width:240px; margin: auto;"">
                                <img src=""images/B_D_S_12_darkshift.png"" style= ""width:200px""alt=""img"">
                            </div>
                        </div>","62","","0","images/B_D_S_12_darkshift.png","","","","calm","1","B","D","S","darkshift","",""
"","","","","","html-slider-response","57","529966","0.0-53.0","r1kjcyjs69","10","NaN","<div style=""width:500px;"">
                            <p style=""font-size:50px; font-weight:bold;""
                            >calm</p>
                            <div style=""width:240px; margin: auto;"">
                                <img src=""images/R_D_S_33_lightshift.png"" style= ""width:200px""alt=""img"">
                            </div>
                        </div>","-134","","0","images/R_D_S_33_lightshift.png","","","","calm","1","R","D","S","lightshift","",""
"","","","","","html-slider-response","58","534077","0.0-54.0","r1kjcyjs69","10","NaN","<div style=""width:500px;"">
                            <p style=""font-size:50px; font-weight:bold;""
                            >calm</p>
                            <div style=""width:240px; margin: auto;"">
                                <img src=""images/Y_L_S_15_lightshift.png"" style= ""width:200px""alt=""img"">
                            </div>
                        </div>","-170","","0","images/Y_L_S_15_lightshift.png","","","","calm","1","Y","L","S","lightshift","",""
"","","","","","html-slider-response","59","542270","0.0-55.0","r1kjcyjs69","10","NaN","<div style=""width:500px;"">
                            <p style=""font-size:50px; font-weight:bold;""
                            >calm</p>
                            <div style=""width:240px; margin: auto;"">
                                <img src=""images/G_D_U_5_darkshift.png"" style= ""width:200px""alt=""img"">
                            </div>
                        </div>","-26","","0","images/G_D_U_5_darkshift.png","","","","calm","1","G","D","U","darkshift","",""
"","","","","","html-slider-response","60","546019","0.0-56.0","r1kjcyjs69","10","NaN","<div style=""width:500px;"">
                            <p style=""font-size:50px; font-weight:bold;""
                            >calm</p>
                            <div style=""width:240px; margin: auto;"">
                                <img src=""images/Y_D_U_27_darkshift.png"" style= ""width:200px""alt=""img"">
                            </div>
                        </div>","-42","","0","images/Y_D_U_27_darkshift.png","","","","calm","1","Y","D","U","darkshift","",""
"","","","","","html-slider-response","61","549113","0.0-57.0","r1kjcyjs69","10","NaN","<div style=""width:500px;"">
                            <p style=""font-size:50px; font-weight:bold;""
                            >calm</p>
                            <div style=""width:240px; margin: auto;"">
                                <img src=""images/Y_L_S_15_lightshift.png"" style= ""width:200px""alt=""img"">
                            </div>
                        </div>","-190","","0","images/Y_L_S_15_lightshift.png","","","","calm","2","Y","L","S","lightshift","",""
"","","","","","html-slider-response","62","554519","0.0-58.0","r1kjcyjs69","10","NaN","<div style=""width:500px;"">
                            <p style=""font-size:50px; font-weight:bold;""
                            >calm</p>
                            <div style=""width:240px; margin: auto;"">
                                <img src=""images/Y_L_S_15_darkshift.png"" style= ""width:200px""alt=""img"">
                            </div>
                        </div>","-26","","0","images/Y_L_S_15_darkshift.png","","","","calm","2","Y","L","S","darkshift","",""
"","","","","","html-slider-response","63","556685","0.0-59.0","r1kjcyjs69","10","NaN","<div style=""width:500px;"">
                            <p style=""font-size:50px; font-weight:bold;""
                            >calm</p>
                            <div style=""width:240px; margin: auto;"">
                                <img src=""images/Y_D_S_26_darkshift.png"" style= ""width:200px""alt=""img"">
                            </div>
                        </div>","-50","","0","images/Y_D_S_26_darkshift.png","","","","calm","1","Y","D","S","darkshift","",""
"","","","","","html-slider-response","64","559460","0.0-60.0","r1kjcyjs69","10","NaN","<div style=""width:500px;"">
                            <p style=""font-size:50px; font-weight:bold;""
                            >calm</p>
                            <div style=""width:240px; margin: auto;"">
                                <img src=""images/B_D_U_13_darkshift.png"" style= ""width:200px""alt=""img"">
                            </div>
                        </div>","53","","0","images/B_D_U_13_darkshift.png","","","","calm","2","B","D","U","darkshift","",""
"","","","","","html-slider-response","65","568038","0.0-61.0","r1kjcyjs69","10","NaN","<div style=""width:500px;"">
                            <p style=""font-size:50px; font-weight:bold;""
                            >calm</p>
                            <div style=""width:240px; margin: auto;"">
                                <img src=""images/Y_D_U_27_lightshift.png"" style= ""width:200px""alt=""img"">
                            </div>
                        </div>","-86","","0","images/Y_D_U_27_lightshift.png","","","","calm","2","Y","D","U","lightshift","",""
"","","","","","html-slider-response","66","570715","0.0-62.0","r1kjcyjs69","10","NaN","<div style=""width:500px;"">
                            <p style=""font-size:50px; font-weight:bold;""
                            >calm</p>
                            <div style=""width:240px; margin: auto;"">
                                <img src=""images/R_D_S_33_lightshift.png"" style= ""width:200px""alt=""img"">
                            </div>
                        </div>","-166","","0","images/R_D_S_33_lightshift.png","","","","calm","2","R","D","S","lightshift","",""
"","","","","","html-slider-response","67","573117","0.0-63.0","r1kjcyjs69","10","NaN","<div style=""width:500px;"">
                            <p style=""font-size:50px; font-weight:bold;""
                            >calm</p>
                            <div style=""width:240px; margin: auto;"">
                                <img src=""images/B_D_U_13_lightshift.png"" style= ""width:200px""alt=""img"">
                            </div>
                        </div>","-200","","0","images/B_D_U_13_lightshift.png","","","","calm","1","B","D","U","lightshift","",""
"","","","","","html-slider-response","68","575665","0.0-64.0","r1kjcyjs69","10","NaN","<div style=""width:500px;"">
                            <p style=""font-size:50px; font-weight:bold;""
                            >calm</p>
                            <div style=""width:240px; margin: auto;"">
                                <img src=""images/R_L_U_30_lightshift.png"" style= ""width:200px""alt=""img"">
                            </div>
                        </div>","-200","","0","images/R_L_U_30_lightshift.png","","","","calm","1","R","L","U","lightshift","",""
"","","","","","html-slider-response","69","580990","0.0-65.0","r1kjcyjs69","10","NaN","<div style=""width:500px;"">
                            <p style=""font-size:50px; font-weight:bold;""
                            >calm</p>
                            <div style=""width:240px; margin: auto;"">
                                <img src=""images/G_D_S_2_lightshift.png"" style= ""width:200px""alt=""img"">
                            </div>
                        </div>","-25","","0","images/G_D_S_2_lightshift.png","","","","calm","2","G","D","S","lightshift","",""
"","","","","","html-slider-response","70","591193","0.0-66.0","r1kjcyjs69","10","NaN","<div style=""width:500px;"">
                            <p style=""font-size:50px; font-weight:bold;""
                            >calm</p>
                            <div style=""width:240px; margin: auto;"">
                                <img src=""images/G_L_S_41_lightshift.png"" style= ""width:200px""alt=""img"">
                            </div>
                        </div>","-27","","0","images/G_L_S_41_lightshift.png","","","","calm","2","G","L","S","lightshift","",""
"","","","","","html-slider-response","71","595027","0.0-67.0","r1kjcyjs69","10","NaN","<div style=""width:500px;"">
                            <p style=""font-size:50px; font-weight:bold;""
                            >calm</p>
                            <div style=""width:240px; margin: auto;"">
                                <img src=""images/R_D_U_37_lightshift.png"" style= ""width:200px""alt=""img"">
                            </div>
                        </div>","-98","","0","images/R_D_U_37_lightshift.png","","","","calm","2","R","D","U","lightshift","",""
"","","","","","html-slider-response","72","597402","0.0-68.0","r1kjcyjs69","10","NaN","<div style=""width:500px;"">
                            <p style=""font-size:50px; font-weight:bold;""
                            >calm</p>
                            <div style=""width:240px; margin: auto;"">
                                <img src=""images/R_L_U_30_darkshift.png"" style= ""width:200px""alt=""img"">
                            </div>
                        </div>","-122","","0","images/R_L_U_30_darkshift.png","","","","calm","2","R","L","U","darkshift","",""
"","","","","","html-slider-response","73","600348","0.0-69.0","r1kjcyjs69","10","NaN","<div style=""width:500px;"">
                            <p style=""font-size:50px; font-weight:bold;""
                            >calm</p>
                            <div style=""width:240px; margin: auto;"">
                                <img src=""images/Y_L_S_15_darkshift.png"" style= ""width:200px""alt=""img"">
                            </div>
                        </div>","-26","","0","images/Y_L_S_15_darkshift.png","","","","calm","1","Y","L","S","darkshift","",""
"","","","","","html-slider-response","74","603035","0.0-70.0","r1kjcyjs69","10","NaN","<div style=""width:500px;"">
                            <p style=""font-size:50px; font-weight:bold;""
                            >calm</p>
                            <div style=""width:240px; margin: auto;"">
                                <img src=""images/Y_D_U_27_darkshift.png"" style= ""width:200px""alt=""img"">
                            </div>
                        </div>","-65","","0","images/Y_D_U_27_darkshift.png","","","","calm","2","Y","D","U","darkshift","",""
"","","","","","html-slider-response","75","608122","0.0-71.0","r1kjcyjs69","10","NaN","<div style=""width:500px;"">
                            <p style=""font-size:50px; font-weight:bold;""
                            >calm</p>
                            <div style=""width:240px; margin: auto;"">
                                <img src=""images/R_D_U_37_darkshift.png"" style= ""width:200px""alt=""img"">
                            </div>
                        </div>","-78","","0","images/R_D_U_37_darkshift.png","","","","calm","2","R","D","U","darkshift","",""
"","","","","","html-slider-response","76","610389","0.0-72.0","r1kjcyjs69","10","NaN","<div style=""width:500px;"">
                            <p style=""font-size:50px; font-weight:bold;""
                            >calm</p>
                            <div style=""width:240px; margin: auto;"">
                                <img src=""images/G_L_U_44_lightshift.png"" style= ""width:200px""alt=""img"">
                            </div>
                        </div>","-200","","0","images/G_L_U_44_lightshift.png","","","","calm","1","G","L","U","lightshift","",""
"","","","","","html-slider-response","77","614175","0.0-73.0","r1kjcyjs69","10","NaN","<div style=""width:500px;"">
                            <p style=""font-size:50px; font-weight:bold;""
                            >calm</p>
                            <div style=""width:240px; margin: auto;"">
                                <img src=""images/G_L_U_44_darkshift.png"" style= ""width:200px""alt=""img"">
                            </div>
                        </div>","106","","0","images/G_L_U_44_darkshift.png","","","","calm","1","G","L","U","darkshift","",""
"","","","","","html-slider-response","78","617343","0.0-74.0","r1kjcyjs69","10","NaN","<div style=""width:500px;"">
                            <p style=""font-size:50px; font-weight:bold;""
                            >calm</p>
                            <div style=""width:240px; margin: auto;"">
                                <img src=""images/B_D_U_13_lightshift.png"" style= ""width:200px""alt=""img"">
                            </div>
                        </div>","-200","","0","images/B_D_U_13_lightshift.png","","","","calm","2","B","D","U","lightshift","",""
"","","","","","html-slider-response","79","619775","0.0-75.0","r1kjcyjs69","10","NaN","<div style=""width:500px;"">
                            <p style=""font-size:50px; font-weight:bold;""
                            >calm</p>
                            <div style=""width:240px; margin: auto;"">
                                <img src=""images/R_L_S_28_lightshift.png"" style= ""width:200px""alt=""img"">
                            </div>
                        </div>","-74","","0","images/R_L_S_28_lightshift.png","","","","calm","1","R","L","S","lightshift","",""
"","","","","","html-slider-response","80","622330","0.0-76.0","r1kjcyjs69","10","NaN","<div style=""width:500px;"">
                            <p style=""font-size:50px; font-weight:bold;""
                            >calm</p>
                            <div style=""width:240px; margin: auto;"">
                                <img src=""images/R_D_S_33_darkshift.png"" style= ""width:200px""alt=""img"">
                            </div>
                        </div>","-86","","0","images/R_D_S_33_darkshift.png","","","","calm","2","R","D","S","darkshift","",""
"","","","","","html-slider-response","81","624689","0.0-77.0","r1kjcyjs69","10","NaN","<div style=""width:500px;"">
                            <p style=""font-size:50px; font-weight:bold;""
                            >calm</p>
                            <div style=""width:240px; margin: auto;"">
                                <img src=""images/Y_D_U_27_lightshift.png"" style= ""width:200px""alt=""img"">
                            </div>
                        </div>","-26","","0","images/Y_D_U_27_lightshift.png","","","","calm","1","Y","D","U","lightshift","",""
"","","","","","html-button-response","82","645500","0.0-78.0","r1kjcyjs69","10","20309","<p>Great Job! You've finished block 1.<br></br> You have 3 block(s) left to go.<br></br></p>","0","","","","","","","","","","","","","",""
"","","","","","html-button-response","83","657653","0.0-79.0","r1kjcyjs69","10","12152","<p>In this block of trials, you will be asked to rate how much you associate each map with:</p > <p style = 'font-size:150%; font-weight: bold'>startling</p><br></br>","0","","","","","","","","","","","","","",""
"","","","","","html-slider-response","84","693733","0.0-80.0","r1kjcyjs69","10","NaN","<div style=""width:500px;"">
                            <p style=""font-size:50px; font-weight:bold;""
                            >startling</p>
                            <div style=""width:240px; margin: auto;"">
                                <img src=""images/R_D_U_37_darkshift.png"" style= ""width:200px""alt=""img"">
                            </div>
                        </div>","-29","","0","images/R_D_U_37_darkshift.png","","","","startling","1","R","D","U","darkshift","",""
"","","","","","html-slider-response","85","696885","0.0-81.0","r1kjcyjs69","10","NaN","<div style=""width:500px;"">
                            <p style=""font-size:50px; font-weight:bold;""
                            >startling</p>
                            <div style=""width:240px; margin: auto;"">
                                <img src=""images/Y_L_U_23_lightshift.png"" style= ""width:200px""alt=""img"">
                            </div>
                        </div>","172","","0","images/Y_L_U_23_lightshift.png","","","","startling","1","Y","L","U","lightshift","",""
"","","","","","html-slider-response","86","701568","0.0-82.0","r1kjcyjs69","10","NaN","<div style=""width:500px;"">
                            <p style=""font-size:50px; font-weight:bold;""
                            >startling</p>
                            <div style=""width:240px; margin: auto;"">
                                <img src=""images/G_L_S_41_darkshift.png"" style= ""width:200px""alt=""img"">
                            </div>
                        </div>","-170","","0","images/G_L_S_41_darkshift.png","","","","startling","2","G","L","S","darkshift","",""
"","","","","","html-slider-response","87","705218","0.0-83.0","r1kjcyjs69","10","NaN","<div style=""width:500px;"">
                            <p style=""font-size:50px; font-weight:bold;""
                            >startling</p>
                            <div style=""width:240px; margin: auto;"">
                                <img src=""images/Y_D_U_27_darkshift.png"" style= ""width:200px""alt=""img"">
                            </div>
                        </div>","-115","","0","images/Y_D_U_27_darkshift.png","","","","startling","2","Y","D","U","darkshift","",""
"","","","","","html-slider-response","88","708792","0.0-84.0","r1kjcyjs69","10","NaN","<div style=""width:500px;"">
                            <p style=""font-size:50px; font-weight:bold;""
                            >startling</p>
                            <div style=""width:240px; margin: auto;"">
                                <img src=""images/Y_L_U_23_lightshift.png"" style= ""width:200px""alt=""img"">
                            </div>
                        </div>","133","","0","images/Y_L_U_23_lightshift.png","","","","startling","2","Y","L","U","lightshift","",""
"","","","","","html-slider-response","89","715167","0.0-85.0","r1kjcyjs69","10","NaN","<div style=""width:500px;"">
                            <p style=""font-size:50px; font-weight:bold;""
                            >startling</p>
                            <div style=""width:240px; margin: auto;"">
                                <img src=""images/Y_D_S_26_darkshift.png"" style= ""width:200px""alt=""img"">
                            </div>
                        </div>","-50","","0","images/Y_D_S_26_darkshift.png","","","","startling","1","Y","D","S","darkshift","",""
"","","","","","html-slider-response","90","721076","0.0-86.0","r1kjcyjs69","10","NaN","<div style=""width:500px;"">
                            <p style=""font-size:50px; font-weight:bold;""
                            >startling</p>
                            <div style=""width:240px; margin: auto;"">
                                <img src=""images/Y_D_S_26_lightshift.png"" style= ""width:200px""alt=""img"">
                            </div>
                        </div>","-66","","0","images/Y_D_S_26_lightshift.png","","","","startling","2","Y","D","S","lightshift","",""
"","","","","","html-slider-response","91","725551","0.0-87.0","r1kjcyjs69","10","NaN","<div style=""width:500px;"">
                            <p style=""font-size:50px; font-weight:bold;""
                            >startling</p>
                            <div style=""width:240px; margin: auto;"">
                                <img src=""images/Y_D_U_27_lightshift.png"" style= ""width:200px""alt=""img"">
                            </div>
                        </div>","42","","0","images/Y_D_U_27_lightshift.png","","","","startling","2","Y","D","U","lightshift","",""
"","","","","","html-slider-response","92","731077","0.0-88.0","r1kjcyjs69","10","NaN","<div style=""width:500px;"">
                            <p style=""font-size:50px; font-weight:bold;""
                            >startling</p>
                            <div style=""width:240px; margin: auto;"">
                                <img src=""images/G_D_U_5_lightshift.png"" style= ""width:200px""alt=""img"">
                            </div>
                        </div>","175","","0","images/G_D_U_5_lightshift.png","","","","startling","2","G","D","U","lightshift","",""
"","","","","","html-slider-response","93","735711","0.0-89.0","r1kjcyjs69","10","NaN","<div style=""width:500px;"">
                            <p style=""font-size:50px; font-weight:bold;""
                            >startling</p>
                            <div style=""width:240px; margin: auto;"">
                                <img src=""images/G_D_U_5_darkshift.png"" style= ""width:200px""alt=""img"">
                            </div>
                        </div>","52","","0","images/G_D_U_5_darkshift.png","","","","startling","2","G","D","U","darkshift","",""
"","","","","","html-slider-response","94","741124","0.0-90.0","r1kjcyjs69","10","NaN","<div style=""width:500px;"">
                            <p style=""font-size:50px; font-weight:bold;""
                            >startling</p>
                            <div style=""width:240px; margin: auto;"">
                                <img src=""images/Y_L_S_15_darkshift.png"" style= ""width:200px""alt=""img"">
                            </div>
                        </div>","-113","","0","images/Y_L_S_15_darkshift.png","","","","startling","1","Y","L","S","darkshift","",""
"","","","","","html-slider-response","95","744848","0.0-91.0","r1kjcyjs69","10","NaN","<div style=""width:500px;"">
                            <p style=""font-size:50px; font-weight:bold;""
                            >startling</p>
                            <div style=""width:240px; margin: auto;"">
                                <img src=""images/G_D_U_5_darkshift.png"" style= ""width:200px""alt=""img"">
                            </div>
                        </div>","50","","0","images/G_D_U_5_darkshift.png","","","","startling","1","G","D","U","darkshift","",""
"","","","","","html-slider-response","96","747623","0.0-92.0","r1kjcyjs69","10","NaN","<div style=""width:500px;"">
                            <p style=""font-size:50px; font-weight:bold;""
                            >startling</p>
                            <div style=""width:240px; margin: auto;"">
                                <img src=""images/B_L_S_7_darkshift.png"" style= ""width:200px""alt=""img"">
                            </div>
                        </div>","-134","","0","images/B_L_S_7_darkshift.png","","","","startling","1","B","L","S","darkshift","",""
"","","","","","html-slider-response","97","750261","0.0-93.0","r1kjcyjs69","10","NaN","<div style=""width:500px;"">
                            <p style=""font-size:50px; font-weight:bold;""
                            >startling</p>
                            <div style=""width:240px; margin: auto;"">
                                <img src=""images/G_D_U_5_lightshift.png"" style= ""width:200px""alt=""img"">
                            </div>
                        </div>","176","","0","images/G_D_U_5_lightshift.png","","","","startling","1","G","D","U","lightshift","",""
"","","","","","html-slider-response","98","754706","0.0-94.0","r1kjcyjs69","10","NaN","<div style=""width:500px;"">
                            <p style=""font-size:50px; font-weight:bold;""
                            >startling</p>
                            <div style=""width:240px; margin: auto;"">
                                <img src=""images/B_L_U_10_darkshift.png"" style= ""width:200px""alt=""img"">
                            </div>
                        </div>","-195","","0","images/B_L_U_10_darkshift.png","","","","startling","1","B","L","U","darkshift","",""
"","","","","","html-slider-response","99","759924","0.0-95.0","r1kjcyjs69","10","NaN","<div style=""width:500px;"">
                            <p style=""font-size:50px; font-weight:bold;""
                            >startling</p>
                            <div style=""width:240px; margin: auto;"">
                                <img src=""images/B_D_U_13_lightshift.png"" style= ""width:200px""alt=""img"">
                            </div>
                        </div>","185","","0","images/B_D_U_13_lightshift.png","","","","startling","1","B","D","U","lightshift","",""
"","","","","","html-slider-response","100","762903","0.0-96.0","r1kjcyjs69","10","NaN","<div style=""width:500px;"">
                            <p style=""font-size:50px; font-weight:bold;""
                            >startling</p>
                            <div style=""width:240px; margin: auto;"">
                                <img src=""images/Y_L_S_15_lightshift.png"" style= ""width:200px""alt=""img"">
                            </div>
                        </div>","71","","0","images/Y_L_S_15_lightshift.png","","","","startling","1","Y","L","S","lightshift","",""
"","","","","","html-slider-response","101","765542","0.0-97.0","r1kjcyjs69","10","NaN","<div style=""width:500px;"">
                            <p style=""font-size:50px; font-weight:bold;""
                            >startling</p>
                            <div style=""width:240px; margin: auto;"">
                                <img src=""images/G_D_S_2_darkshift.png"" style= ""width:200px""alt=""img"">
                            </div>
                        </div>","19","","0","images/G_D_S_2_darkshift.png","","","","startling","1","G","D","S","darkshift","",""
"","","","","","html-slider-response","102","769133","0.0-98.0","r1kjcyjs69","10","NaN","<div style=""width:500px;"">
                            <p style=""font-size:50px; font-weight:bold;""
                            >startling</p>
                            <div style=""width:240px; margin: auto;"">
                                <img src=""images/B_D_U_13_darkshift.png"" style= ""width:200px""alt=""img"">
                            </div>
                        </div>","30","","0","images/B_D_U_13_darkshift.png","","","","startling","2","B","D","U","darkshift","",""
"","","","","","html-slider-response","103","773900","0.0-99.0","r1kjcyjs69","10","NaN","<div style=""width:500px;"">
                            <p style=""font-size:50px; font-weight:bold;""
                            >startling</p>
                            <div style=""width:240px; margin: auto;"">
                                <img src=""images/Y_L_S_15_lightshift.png"" style= ""width:200px""alt=""img"">
                            </div>
                        </div>","106","","0","images/Y_L_S_15_lightshift.png","","","","startling","2","Y","L","S","lightshift","",""
"","","","","","html-slider-response","104","776896","0.0-100.0","r1kjcyjs69","10","NaN","<div style=""width:500px;"">
                            <p style=""font-size:50px; font-weight:bold;""
                            >startling</p>
                            <div style=""width:240px; margin: auto;"">
                                <img src=""images/Y_D_S_26_lightshift.png"" style= ""width:200px""alt=""img"">
                            </div>
                        </div>","-59","","0","images/Y_D_S_26_lightshift.png","","","","startling","1","Y","D","S","lightshift","",""
"","","","","","html-slider-response","105","779456","0.0-101.0","r1kjcyjs69","10","NaN","<div style=""width:500px;"">
                            <p style=""font-size:50px; font-weight:bold;""
                            >startling</p>
                            <div style=""width:240px; margin: auto;"">
                                <img src=""images/B_L_U_10_darkshift.png"" style= ""width:200px""alt=""img"">
                            </div>
                        </div>","-125","","0","images/B_L_U_10_darkshift.png","","","","startling","2","B","L","U","darkshift","",""
"","","","","","html-slider-response","106","788497","0.0-102.0","r1kjcyjs69","10","NaN","<div style=""width:500px;"">
                            <p style=""font-size:50px; font-weight:bold;""
                            >startling</p>
                            <div style=""width:240px; margin: auto;"">
                                <img src=""images/R_L_S_28_lightshift.png"" style= ""width:200px""alt=""img"">
                            </div>
                        </div>","69","","0","images/R_L_S_28_lightshift.png","","","","startling","1","R","L","S","lightshift","",""
"","","","","","html-slider-response","107","792311","0.0-103.0","r1kjcyjs69","10","NaN","<div style=""width:500px;"">
                            <p style=""font-size:50px; font-weight:bold;""
                            >startling</p>
                            <div style=""width:240px; margin: auto;"">
                                <img src=""images/R_D_U_37_lightshift.png"" style= ""width:200px""alt=""img"">
                            </div>
                        </div>","69","","0","images/R_D_U_37_lightshift.png","","","","startling","1","R","D","U","lightshift","",""
"","","","","","html-slider-response","108","795283","0.0-104.0","r1kjcyjs69","10","NaN","<div style=""width:500px;"">
                            <p style=""font-size:50px; font-weight:bold;""
                            >startling</p>
                            <div style=""width:240px; margin: auto;"">
                                <img src=""images/Y_D_S_26_darkshift.png"" style= ""width:200px""alt=""img"">
                            </div>
                        </div>","110","","0","images/Y_D_S_26_darkshift.png","","","","startling","2","Y","D","S","darkshift","",""
"","","","","","html-slider-response","109","798284","0.0-105.0","r1kjcyjs69","10","NaN","<div style=""width:500px;"">
                            <p style=""font-size:50px; font-weight:bold;""
                            >startling</p>
                            <div style=""width:240px; margin: auto;"">
                                <img src=""images/R_D_S_33_darkshift.png"" style= ""width:200px""alt=""img"">
                            </div>
                        </div>","77","","0","images/R_D_S_33_darkshift.png","","","","startling","1","R","D","S","darkshift","",""
"","","","","","html-slider-response","110","801068","0.0-106.0","r1kjcyjs69","10","NaN","<div style=""width:500px;"">
                            <p style=""font-size:50px; font-weight:bold;""
                            >startling</p>
                            <div style=""width:240px; margin: auto;"">
                                <img src=""images/G_L_U_44_lightshift.png"" style= ""width:200px""alt=""img"">
                            </div>
                        </div>","186","","0","images/G_L_U_44_lightshift.png","","","","startling","2","G","L","U","lightshift","",""
"","","","","","html-slider-response","111","804495","0.0-107.0","r1kjcyjs69","10","NaN","<div style=""width:500px;"">
                            <p style=""font-size:50px; font-weight:bold;""
                            >startling</p>
                            <div style=""width:240px; margin: auto;"">
                                <img src=""images/R_L_S_28_darkshift.png"" style= ""width:200px""alt=""img"">
                            </div>
                        </div>","-79","","0","images/R_L_S_28_darkshift.png","","","","startling","2","R","L","S","darkshift","",""
"","","","","","html-slider-response","112","807363","0.0-108.0","r1kjcyjs69","10","NaN","<div style=""width:500px;"">
                            <p style=""font-size:50px; font-weight:bold;""
                            >startling</p>
                            <div style=""width:240px; margin: auto;"">
                                <img src=""images/G_L_S_41_darkshift.png"" style= ""width:200px""alt=""img"">
                            </div>
                        </div>","-129","","0","images/G_L_S_41_darkshift.png","","","","startling","1","G","L","S","darkshift","",""
"","","","","","html-slider-response","113","810187","0.0-109.0","r1kjcyjs69","10","NaN","<div style=""width:500px;"">
                            <p style=""font-size:50px; font-weight:bold;""
                            >startling</p>
                            <div style=""width:240px; margin: auto;"">
                                <img src=""images/G_L_U_44_lightshift.png"" style= ""width:200px""alt=""img"">
                            </div>
                        </div>","96","","0","images/G_L_U_44_lightshift.png","","","","startling","1","G","L","U","lightshift","",""
"","","","","","html-slider-response","114","813338","0.0-110.0","r1kjcyjs69","10","NaN","<div style=""width:500px;"">
                            <p style=""font-size:50px; font-weight:bold;""
                            >startling</p>
                            <div style=""width:240px; margin: auto;"">
                                <img src=""images/B_D_U_13_darkshift.png"" style= ""width:200px""alt=""img"">
                            </div>
                        </div>","20","","0","images/B_D_U_13_darkshift.png","","","","startling","1","B","D","U","darkshift","",""
"","","","","","html-slider-response","115","816832","0.0-111.0","r1kjcyjs69","10","NaN","<div style=""width:500px;"">
                            <p style=""font-size:50px; font-weight:bold;""
                            >startling</p>
                            <div style=""width:240px; margin: auto;"">
                                <img src=""images/R_D_S_33_darkshift.png"" style= ""width:200px""alt=""img"">
                            </div>
                        </div>","62","","0","images/R_D_S_33_darkshift.png","","","","startling","2","R","D","S","darkshift","",""
"","","","","","html-slider-response","116","821911","0.0-112.0","r1kjcyjs69","10","NaN","<div style=""width:500px;"">
                            <p style=""font-size:50px; font-weight:bold;""
                            >startling</p>
                            <div style=""width:240px; margin: auto;"">
                                <img src=""images/G_D_S_2_darkshift.png"" style= ""width:200px""alt=""img"">
                            </div>
                        </div>","42","","0","images/G_D_S_2_darkshift.png","","","","startling","2","G","D","S","darkshift","",""
"","","","","","html-slider-response","117","826309","0.0-113.0","r1kjcyjs69","10","NaN","<div style=""width:500px;"">
                            <p style=""font-size:50px; font-weight:bold;""
                            >startling</p>
                            <div style=""width:240px; margin: auto;"">
                                <img src=""images/Y_L_U_23_darkshift.png"" style= ""width:200px""alt=""img"">
                            </div>
                        </div>","-58","","0","images/Y_L_U_23_darkshift.png","","","","startling","2","Y","L","U","darkshift","",""
"","","","","","html-slider-response","118","828967","0.0-114.0","r1kjcyjs69","10","NaN","<div style=""width:500px;"">
                            <p style=""font-size:50px; font-weight:bold;""
                            >startling</p>
                            <div style=""width:240px; margin: auto;"">
                                <img src=""images/R_L_U_30_lightshift.png"" style= ""width:200px""alt=""img"">
                            </div>
                        </div>","154","","0","images/R_L_U_30_lightshift.png","","","","startling","1","R","L","U","lightshift","",""
"","","","","","html-slider-response","119","831362","0.0-115.0","r1kjcyjs69","10","NaN","<div style=""width:500px;"">
                            <p style=""font-size:50px; font-weight:bold;""
                            >startling</p>
                            <div style=""width:240px; margin: auto;"">
                                <img src=""images/R_L_U_30_lightshift.png"" style= ""width:200px""alt=""img"">
                            </div>
                        </div>","157","","0","images/R_L_U_30_lightshift.png","","","","startling","2","R","L","U","lightshift","",""
"","","","","","html-slider-response","120","833802","0.0-116.0","r1kjcyjs69","10","NaN","<div style=""width:500px;"">
                            <p style=""font-size:50px; font-weight:bold;""
                            >startling</p>
                            <div style=""width:240px; margin: auto;"">
                                <img src=""images/Y_D_U_27_lightshift.png"" style= ""width:200px""alt=""img"">
                            </div>
                        </div>","34","","0","images/Y_D_U_27_lightshift.png","","","","startling","1","Y","D","U","lightshift","",""
"","","","","","html-slider-response","121","836054","0.0-117.0","r1kjcyjs69","10","NaN","<div style=""width:500px;"">
                            <p style=""font-size:50px; font-weight:bold;""
                            >startling</p>
                            <div style=""width:240px; margin: auto;"">
                                <img src=""images/B_D_S_12_darkshift.png"" style= ""width:200px""alt=""img"">
                            </div>
                        </div>","48","","0","images/B_D_S_12_darkshift.png","","","","startling","1","B","D","S","darkshift","",""
"","","","","","html-slider-response","122","839105","0.0-118.0","r1kjcyjs69","10","NaN","<div style=""width:500px;"">
                            <p style=""font-size:50px; font-weight:bold;""
                            >startling</p>
                            <div style=""width:240px; margin: auto;"">
                                <img src=""images/G_D_S_2_lightshift.png"" style= ""width:200px""alt=""img"">
                            </div>
                        </div>","42","","0","images/G_D_S_2_lightshift.png","","","","startling","1","G","D","S","lightshift","",""
"","","","","","html-slider-response","123","841097","0.0-119.0","r1kjcyjs69","10","NaN","<div style=""width:500px;"">
                            <p style=""font-size:50px; font-weight:bold;""
                            >startling</p>
                            <div style=""width:240px; margin: auto;"">
                                <img src=""images/B_L_S_7_darkshift.png"" style= ""width:200px""alt=""img"">
                            </div>
                        </div>","-162","","0","images/B_L_S_7_darkshift.png","","","","startling","2","B","L","S","darkshift","",""
"","","","","","html-slider-response","124","843366","0.0-120.0","r1kjcyjs69","10","NaN","<div style=""width:500px;"">
                            <p style=""font-size:50px; font-weight:bold;""
                            >startling</p>
                            <div style=""width:240px; margin: auto;"">
                                <img src=""images/G_D_S_2_lightshift.png"" style= ""width:200px""alt=""img"">
                            </div>
                        </div>","57","","0","images/G_D_S_2_lightshift.png","","","","startling","2","G","D","S","lightshift","",""
"","","","","","html-slider-response","125","847681","0.0-121.0","r1kjcyjs69","10","NaN","<div style=""width:500px;"">
                            <p style=""font-size:50px; font-weight:bold;""
                            >startling</p>
                            <div style=""width:240px; margin: auto;"">
                                <img src=""images/R_L_S_28_darkshift.png"" style= ""width:200px""alt=""img"">
                            </div>
                        </div>","-50","","0","images/R_L_S_28_darkshift.png","","","","startling","1","R","L","S","darkshift","",""
"","","","","","html-slider-response","126","850758","0.0-122.0","r1kjcyjs69","10","NaN","<div style=""width:500px;"">
                            <p style=""font-size:50px; font-weight:bold;""
                            >startling</p>
                            <div style=""width:240px; margin: auto;"">
                                <img src=""images/G_L_S_41_lightshift.png"" style= ""width:200px""alt=""img"">
                            </div>
                        </div>","42","","0","images/G_L_S_41_lightshift.png","","","","startling","1","G","L","S","lightshift","",""
"","","","","","html-slider-response","127","853311","0.0-123.0","r1kjcyjs69","10","NaN","<div style=""width:500px;"">
                            <p style=""font-size:50px; font-weight:bold;""
                            >startling</p>
                            <div style=""width:240px; margin: auto;"">
                                <img src=""images/G_L_U_44_darkshift.png"" style= ""width:200px""alt=""img"">
                            </div>
                        </div>","-82","","0","images/G_L_U_44_darkshift.png","","","","startling","2","G","L","U","darkshift","",""
"","","","","","html-slider-response","128","856098","0.0-124.0","r1kjcyjs69","10","NaN","<div style=""width:500px;"">
                            <p style=""font-size:50px; font-weight:bold;""
                            >startling</p>
                            <div style=""width:240px; margin: auto;"">
                                <img src=""images/B_D_S_12_lightshift.png"" style= ""width:200px""alt=""img"">
                            </div>
                        </div>","-179","","0","images/B_D_S_12_lightshift.png","","","","startling","2","B","D","S","lightshift","",""
"","","","","","html-slider-response","129","858260","0.0-125.0","r1kjcyjs69","10","NaN","<div style=""width:500px;"">
                            <p style=""font-size:50px; font-weight:bold;""
                            >startling</p>
                            <div style=""width:240px; margin: auto;"">
                                <img src=""images/G_L_S_41_lightshift.png"" style= ""width:200px""alt=""img"">
                            </div>
                        </div>","48","","0","images/G_L_S_41_lightshift.png","","","","startling","2","G","L","S","lightshift","",""
"","","","","","html-slider-response","130","862290","0.0-126.0","r1kjcyjs69","10","NaN","<div style=""width:500px;"">
                            <p style=""font-size:50px; font-weight:bold;""
                            >startling</p>
                            <div style=""width:240px; margin: auto;"">
                                <img src=""images/R_D_S_33_lightshift.png"" style= ""width:200px""alt=""img"">
                            </div>
                        </div>","107","","0","images/R_D_S_33_lightshift.png","","","","startling","1","R","D","S","lightshift","",""
"","","","","","html-slider-response","131","865661","0.0-127.0","r1kjcyjs69","10","NaN","<div style=""width:500px;"">
                            <p style=""font-size:50px; font-weight:bold;""
                            >startling</p>
                            <div style=""width:240px; margin: auto;"">
                                <img src=""images/B_L_S_7_lightshift.png"" style= ""width:200px""alt=""img"">
                            </div>
                        </div>","58","","0","images/B_L_S_7_lightshift.png","","","","startling","2","B","L","S","lightshift","",""
"","","","","","html-slider-response","132","868178","0.0-128.0","r1kjcyjs69","10","NaN","<div style=""width:500px;"">
                            <p style=""font-size:50px; font-weight:bold;""
                            >startling</p>
                            <div style=""width:240px; margin: auto;"">
                                <img src=""images/B_D_S_12_darkshift.png"" style= ""width:200px""alt=""img"">
                            </div>
                        </div>","-106","","0","images/B_D_S_12_darkshift.png","","","","startling","2","B","D","S","darkshift","",""
"","","","","","html-slider-response","133","871189","0.0-129.0","r1kjcyjs69","10","NaN","<div style=""width:500px;"">
                            <p style=""font-size:50px; font-weight:bold;""
                            >startling</p>
                            <div style=""width:240px; margin: auto;"">
                                <img src=""images/R_L_S_28_lightshift.png"" style= ""width:200px""alt=""img"">
                            </div>
                        </div>","66","","0","images/R_L_S_28_lightshift.png","","","","startling","2","R","L","S","lightshift","",""
"","","","","","html-slider-response","134","873426","0.0-130.0","r1kjcyjs69","10","NaN","<div style=""width:500px;"">
                            <p style=""font-size:50px; font-weight:bold;""
                            >startling</p>
                            <div style=""width:240px; margin: auto;"">
                                <img src=""images/R_D_S_33_lightshift.png"" style= ""width:200px""alt=""img"">
                            </div>
                        </div>","136","","0","images/R_D_S_33_lightshift.png","","","","startling","2","R","D","S","lightshift","",""
"","","","","","html-slider-response","135","876416","0.0-131.0","r1kjcyjs69","10","NaN","<div style=""width:500px;"">
                            <p style=""font-size:50px; font-weight:bold;""
                            >startling</p>
                            <div style=""width:240px; margin: auto;"">
                                <img src=""images/B_L_U_10_lightshift.png"" style= ""width:200px""alt=""img"">
                            </div>
                        </div>","186","","0","images/B_L_U_10_lightshift.png","","","","startling","2","B","L","U","lightshift","",""
"","","","","","html-slider-response","136","878710","0.0-132.0","r1kjcyjs69","10","NaN","<div style=""width:500px;"">
                            <p style=""font-size:50px; font-weight:bold;""
                            >startling</p>
                            <div style=""width:240px; margin: auto;"">
                                <img src=""images/B_D_U_13_lightshift.png"" style= ""width:200px""alt=""img"">
                            </div>
                        </div>","148","","0","images/B_D_U_13_lightshift.png","","","","startling","2","B","D","U","lightshift","",""
"","","","","","html-slider-response","137","881439","0.0-133.0","r1kjcyjs69","10","NaN","<div style=""width:500px;"">
                            <p style=""font-size:50px; font-weight:bold;""
                            >startling</p>
                            <div style=""width:240px; margin: auto;"">
                                <img src=""images/R_D_U_37_darkshift.png"" style= ""width:200px""alt=""img"">
                            </div>
                        </div>","66","","0","images/R_D_U_37_darkshift.png","","","","startling","2","R","D","U","darkshift","",""
"","","","","","html-slider-response","138","883659","0.0-134.0","r1kjcyjs69","10","NaN","<div style=""width:500px;"">
                            <p style=""font-size:50px; font-weight:bold;""
                            >startling</p>
                            <div style=""width:240px; margin: auto;"">
                                <img src=""images/Y_L_S_15_darkshift.png"" style= ""width:200px""alt=""img"">
                            </div>
                        </div>","-93","","0","images/Y_L_S_15_darkshift.png","","","","startling","2","Y","L","S","darkshift","",""
"","","","","","html-slider-response","139","886301","0.0-135.0","r1kjcyjs69","10","NaN","<div style=""width:500px;"">
                            <p style=""font-size:50px; font-weight:bold;""
                            >startling</p>
                            <div style=""width:240px; margin: auto;"">
                                <img src=""images/B_D_S_12_lightshift.png"" style= ""width:200px""alt=""img"">
                            </div>
                        </div>","-132","","0","images/B_D_S_12_lightshift.png","","","","startling","1","B","D","S","lightshift","",""
"","","","","","html-slider-response","140","889143","0.0-136.0","r1kjcyjs69","10","NaN","<div style=""width:500px;"">
                            <p style=""font-size:50px; font-weight:bold;""
                            >startling</p>
                            <div style=""width:240px; margin: auto;"">
                                <img src=""images/R_L_U_30_darkshift.png"" style= ""width:200px""alt=""img"">
                            </div>
                        </div>","118","","0","images/R_L_U_30_darkshift.png","","","","startling","1","R","L","U","darkshift","",""
"","","","","","html-slider-response","141","891944","0.0-137.0","r1kjcyjs69","10","NaN","<div style=""width:500px;"">
                            <p style=""font-size:50px; font-weight:bold;""
                            >startling</p>
                            <div style=""width:240px; margin: auto;"">
                                <img src=""images/R_D_U_37_lightshift.png"" style= ""width:200px""alt=""img"">
                            </div>
                        </div>","41","","0","images/R_D_U_37_lightshift.png","","","","startling","2","R","D","U","lightshift","",""
"","","","","","html-slider-response","142","894970","0.0-138.0","r1kjcyjs69","10","NaN","<div style=""width:500px;"">
                            <p style=""font-size:50px; font-weight:bold;""
                            >startling</p>
                            <div style=""width:240px; margin: auto;"">
                                <img src=""images/Y_D_U_27_darkshift.png"" style= ""width:200px""alt=""img"">
                            </div>
                        </div>","-48","","0","images/Y_D_U_27_darkshift.png","","","","startling","1","Y","D","U","darkshift","",""
"","","","","","html-slider-response","143","899547","0.0-139.0","r1kjcyjs69","10","NaN","<div style=""width:500px;"">
                            <p style=""font-size:50px; font-weight:bold;""
                            >startling</p>
                            <div style=""width:240px; margin: auto;"">
                                <img src=""images/B_L_U_10_lightshift.png"" style= ""width:200px""alt=""img"">
                            </div>
                        </div>","161","","0","images/B_L_U_10_lightshift.png","","","","startling","1","B","L","U","lightshift","",""
"","","","","","html-slider-response","144","902569","0.0-140.0","r1kjcyjs69","10","NaN","<div style=""width:500px;"">
                            <p style=""font-size:50px; font-weight:bold;""
                            >startling</p>
                            <div style=""width:240px; margin: auto;"">
                                <img src=""images/R_L_U_30_darkshift.png"" style= ""width:200px""alt=""img"">
                            </div>
                        </div>","93","","0","images/R_L_U_30_darkshift.png","","","","startling","2","R","L","U","darkshift","",""
"","","","","","html-slider-response","145","905131","0.0-141.0","r1kjcyjs69","10","NaN","<div style=""width:500px;"">
                            <p style=""font-size:50px; font-weight:bold;""
                            >startling</p>
                            <div style=""width:240px; margin: auto;"">
                                <img src=""images/B_L_S_7_lightshift.png"" style= ""width:200px""alt=""img"">
                            </div>
                        </div>","37","","0","images/B_L_S_7_lightshift.png","","","","startling","1","B","L","S","lightshift","",""
"","","","","","html-slider-response","146","908676","0.0-142.0","r1kjcyjs69","10","NaN","<div style=""width:500px;"">
                            <p style=""font-size:50px; font-weight:bold;""
                            >startling</p>
                            <div style=""width:240px; margin: auto;"">
                                <img src=""images/G_L_U_44_darkshift.png"" style= ""width:200px""alt=""img"">
                            </div>
                        </div>","-111","","0","images/G_L_U_44_darkshift.png","","","","startling","1","G","L","U","darkshift","",""
"","","","","","html-slider-response","147","911131","0.0-143.0","r1kjcyjs69","10","NaN","<div style=""width:500px;"">
                            <p style=""font-size:50px; font-weight:bold;""
                            >startling</p>
                            <div style=""width:240px; margin: auto;"">
                                <img src=""images/Y_L_U_23_darkshift.png"" style= ""width:200px""alt=""img"">
                            </div>
                        </div>","-77","","0","images/Y_L_U_23_darkshift.png","","","","startling","1","Y","L","U","darkshift","",""
"","","","","","html-button-response","148","919852","0.0-144.0","r1kjcyjs69","10","8219","<p>Great Job! You've finished block 2.<br></br> You have 2 block(s) left to go.<br></br></p>","0","","","","","","","","","","","","","",""
"","","","","","html-button-response","149","975674","0.0-145.0","r1kjcyjs69","10","55821","<p>In this block of trials, you will be asked to rate how much you associate each map with:</p > <p style = 'font-size:150%; font-weight: bold'>negative</p><br></br>","0","","","","","","","","","","","","","",""
"","","","","","html-slider-response","150","987577","0.0-146.0","r1kjcyjs69","10","NaN","<div style=""width:500px;"">
                            <p style=""font-size:50px; font-weight:bold;""
                            >negative</p>
                            <div style=""width:240px; margin: auto;"">
                                <img src=""images/G_L_U_44_darkshift.png"" style= ""width:200px""alt=""img"">
                            </div>
                        </div>","-86","","0","images/G_L_U_44_darkshift.png","","","","negative","2","G","L","U","darkshift","",""
"","","","","","html-slider-response","151","991508","0.0-147.0","r1kjcyjs69","10","NaN","<div style=""width:500px;"">
                            <p style=""font-size:50px; font-weight:bold;""
                            >negative</p>
                            <div style=""width:240px; margin: auto;"">
                                <img src=""images/R_D_U_37_lightshift.png"" style= ""width:200px""alt=""img"">
                            </div>
                        </div>","102","","0","images/R_D_U_37_lightshift.png","","","","negative","1","R","D","U","lightshift","",""
"","","","","","html-slider-response","152","995035","0.0-148.0","r1kjcyjs69","10","NaN","<div style=""width:500px;"">
                            <p style=""font-size:50px; font-weight:bold;""
                            >negative</p>
                            <div style=""width:240px; margin: auto;"">
                                <img src=""images/Y_L_U_23_darkshift.png"" style= ""width:200px""alt=""img"">
                            </div>
                        </div>","-166","","0","images/Y_L_U_23_darkshift.png","","","","negative","1","Y","L","U","darkshift","",""
"","","","","","html-slider-response","153","998142","0.0-149.0","r1kjcyjs69","10","NaN","<div style=""width:500px;"">
                            <p style=""font-size:50px; font-weight:bold;""
                            >negative</p>
                            <div style=""width:240px; margin: auto;"">
                                <img src=""images/R_D_U_37_darkshift.png"" style= ""width:200px""alt=""img"">
                            </div>
                        </div>","114","","0","images/R_D_U_37_darkshift.png","","","","negative","1","R","D","U","darkshift","",""
"","","","","","html-slider-response","154","1000975","0.0-150.0","r1kjcyjs69","10","NaN","<div style=""width:500px;"">
                            <p style=""font-size:50px; font-weight:bold;""
                            >negative</p>
                            <div style=""width:240px; margin: auto;"">
                                <img src=""images/R_L_U_30_darkshift.png"" style= ""width:200px""alt=""img"">
                            </div>
                        </div>","35","","0","images/R_L_U_30_darkshift.png","","","","negative","2","R","L","U","darkshift","",""
"","","","","","html-slider-response","155","1134043","0.0-151.0","r1kjcyjs69","10","NaN","<div style=""width:500px;"">
                            <p style=""font-size:50px; font-weight:bold;""
                            >negative</p>
                            <div style=""width:240px; margin: auto;"">
                                <img src=""images/R_L_S_28_darkshift.png"" style= ""width:200px""alt=""img"">
                            </div>
                        </div>","26","","0","images/R_L_S_28_darkshift.png","","","","negative","2","R","L","S","darkshift","",""
"","","","","","html-slider-response","156","1137727","0.0-152.0","r1kjcyjs69","10","NaN","<div style=""width:500px;"">
                            <p style=""font-size:50px; font-weight:bold;""
                            >negative</p>
                            <div style=""width:240px; margin: auto;"">
                                <img src=""images/Y_L_S_15_darkshift.png"" style= ""width:200px""alt=""img"">
                            </div>
                        </div>","-56","","0","images/Y_L_S_15_darkshift.png","","","","negative","2","Y","L","S","darkshift","",""
"","","","","","html-slider-response","157","1140426","0.0-153.0","r1kjcyjs69","10","NaN","<div style=""width:500px;"">
                            <p style=""font-size:50px; font-weight:bold;""
                            >negative</p>
                            <div style=""width:240px; margin: auto;"">
                                <img src=""images/G_D_U_5_darkshift.png"" style= ""width:200px""alt=""img"">
                            </div>
                        </div>","180","","0","images/G_D_U_5_darkshift.png","","","","negative","1","G","D","U","darkshift","",""
"","","","","","html-slider-response","158","1144378","0.0-154.0","r1kjcyjs69","10","NaN","<div style=""width:500px;"">
                            <p style=""font-size:50px; font-weight:bold;""
                            >negative</p>
                            <div style=""width:240px; margin: auto;"">
                                <img src=""images/B_D_S_12_lightshift.png"" style= ""width:200px""alt=""img"">
                            </div>
                        </div>","26","","0","images/B_D_S_12_lightshift.png","","","","negative","2","B","D","S","lightshift","",""
"","","","","","html-slider-response","159","1148897","0.0-155.0","r1kjcyjs69","10","NaN","<div style=""width:500px;"">
                            <p style=""font-size:50px; font-weight:bold;""
                            >negative</p>
                            <div style=""width:240px; margin: auto;"">
                                <img src=""images/B_L_S_7_lightshift.png"" style= ""width:200px""alt=""img"">
                            </div>
                        </div>","151","","0","images/B_L_S_7_lightshift.png","","","","negative","1","B","L","S","lightshift","",""
"","","","","","html-slider-response","160","1151305","0.0-156.0","r1kjcyjs69","10","NaN","<div style=""width:500px;"">
                            <p style=""font-size:50px; font-weight:bold;""
                            >negative</p>
                            <div style=""width:240px; margin: auto;"">
                                <img src=""images/R_L_S_28_lightshift.png"" style= ""width:200px""alt=""img"">
                            </div>
                        </div>","26","","0","images/R_L_S_28_lightshift.png","","","","negative","2","R","L","S","lightshift","",""
"","","","","","html-slider-response","161","1153478","0.0-157.0","r1kjcyjs69","10","NaN","<div style=""width:500px;"">
                            <p style=""font-size:50px; font-weight:bold;""
                            >negative</p>
                            <div style=""width:240px; margin: auto;"">
                                <img src=""images/Y_L_S_15_lightshift.png"" style= ""width:200px""alt=""img"">
                            </div>
                        </div>","-97","","0","images/Y_L_S_15_lightshift.png","","","","negative","2","Y","L","S","lightshift","",""
"","","","","","html-slider-response","162","1158306","0.0-158.0","r1kjcyjs69","10","NaN","<div style=""width:500px;"">
                            <p style=""font-size:50px; font-weight:bold;""
                            >negative</p>
                            <div style=""width:240px; margin: auto;"">
                                <img src=""images/G_D_U_5_lightshift.png"" style= ""width:200px""alt=""img"">
                            </div>
                        </div>","78","","0","images/G_D_U_5_lightshift.png","","","","negative","2","G","D","U","lightshift","",""
"","","","","","html-slider-response","163","1163328","0.0-159.0","r1kjcyjs69","10","NaN","<div style=""width:500px;"">
                            <p style=""font-size:50px; font-weight:bold;""
                            >negative</p>
                            <div style=""width:240px; margin: auto;"">
                                <img src=""images/B_L_U_10_lightshift.png"" style= ""width:200px""alt=""img"">
                            </div>
                        </div>","-38","","0","images/B_L_U_10_lightshift.png","","","","negative","2","B","L","U","lightshift","",""
"","","","","","html-slider-response","164","1171397","0.0-160.0","r1kjcyjs69","10","NaN","<div style=""width:500px;"">
                            <p style=""font-size:50px; font-weight:bold;""
                            >negative</p>
                            <div style=""width:240px; margin: auto;"">
                                <img src=""images/G_D_U_5_darkshift.png"" style= ""width:200px""alt=""img"">
                            </div>
                        </div>","-47","","0","images/G_D_U_5_darkshift.png","","","","negative","2","G","D","U","darkshift","",""
"","","","","","html-slider-response","165","1275179","0.0-161.0","r1kjcyjs69","10","NaN","<div style=""width:500px;"">
                            <p style=""font-size:50px; font-weight:bold;""
                            >negative</p>
                            <div style=""width:240px; margin: auto;"">
                                <img src=""images/R_L_S_28_lightshift.png"" style= ""width:200px""alt=""img"">
                            </div>
                        </div>","-78","","0","images/R_L_S_28_lightshift.png","","","","negative","1","R","L","S","lightshift","",""
"","","","","","html-slider-response","166","1279294","0.0-162.0","r1kjcyjs69","10","NaN","<div style=""width:500px;"">
                            <p style=""font-size:50px; font-weight:bold;""
                            >negative</p>
                            <div style=""width:240px; margin: auto;"">
                                <img src=""images/R_L_U_30_lightshift.png"" style= ""width:200px""alt=""img"">
                            </div>
                        </div>","114","","0","images/R_L_U_30_lightshift.png","","","","negative","1","R","L","U","lightshift","",""
"","","","","","html-slider-response","167","1282413","0.0-163.0","r1kjcyjs69","10","NaN","<div style=""width:500px;"">
                            <p style=""font-size:50px; font-weight:bold;""
                            >negative</p>
                            <div style=""width:240px; margin: auto;"">
                                <img src=""images/G_L_S_41_darkshift.png"" style= ""width:200px""alt=""img"">
                            </div>
                        </div>","-185","","0","images/G_L_S_41_darkshift.png","","","","negative","1","G","L","S","darkshift","",""
"","","","","","html-slider-response","168","1284793","0.0-164.0","r1kjcyjs69","10","NaN","<div style=""width:500px;"">
                            <p style=""font-size:50px; font-weight:bold;""
                            >negative</p>
                            <div style=""width:240px; margin: auto;"">
                                <img src=""images/R_L_U_30_lightshift.png"" style= ""width:200px""alt=""img"">
                            </div>
                        </div>","113","","0","images/R_L_U_30_lightshift.png","","","","negative","2","R","L","U","lightshift","",""
"","","","","","html-slider-response","169","1289946","0.0-165.0","r1kjcyjs69","10","NaN","<div style=""width:500px;"">
                            <p style=""font-size:50px; font-weight:bold;""
                            >negative</p>
                            <div style=""width:240px; margin: auto;"">
                                <img src=""images/G_L_U_44_darkshift.png"" style= ""width:200px""alt=""img"">
                            </div>
                        </div>","-112","","0","images/G_L_U_44_darkshift.png","","","","negative","1","G","L","U","darkshift","",""
"","","","","","html-slider-response","170","1294029","0.0-166.0","r1kjcyjs69","10","NaN","<div style=""width:500px;"">
                            <p style=""font-size:50px; font-weight:bold;""
                            >negative</p>
                            <div style=""width:240px; margin: auto;"">
                                <img src=""images/G_L_U_44_lightshift.png"" style= ""width:200px""alt=""img"">
                            </div>
                        </div>","70","","0","images/G_L_U_44_lightshift.png","","","","negative","2","G","L","U","lightshift","",""
"","","","","","html-slider-response","171","1298879","0.0-167.0","r1kjcyjs69","10","NaN","<div style=""width:500px;"">
                            <p style=""font-size:50px; font-weight:bold;""
                            >negative</p>
                            <div style=""width:240px; margin: auto;"">
                                <img src=""images/R_D_S_33_lightshift.png"" style= ""width:200px""alt=""img"">
                            </div>
                        </div>","170","","0","images/R_D_S_33_lightshift.png","","","","negative","2","R","D","S","lightshift","",""
"","","","","","html-slider-response","172","1302155","0.0-168.0","r1kjcyjs69","10","NaN","<div style=""width:500px;"">
                            <p style=""font-size:50px; font-weight:bold;""
                            >negative</p>
                            <div style=""width:240px; margin: auto;"">
                                <img src=""images/Y_L_U_23_darkshift.png"" style= ""width:200px""alt=""img"">
                            </div>
                        </div>","-174","","0","images/Y_L_U_23_darkshift.png","","","","negative","2","Y","L","U","darkshift","",""
"","","","","","html-slider-response","173","1304847","0.0-169.0","r1kjcyjs69","10","NaN","<div style=""width:500px;"">
                            <p style=""font-size:50px; font-weight:bold;""
                            >negative</p>
                            <div style=""width:240px; margin: auto;"">
