"success","timeout","failed_images","failed_audio","failed_video","trial_type","trial_index","time_elapsed","internal_node_id","subject_id","condition_num","rt","stimulus","response","question_order","slider_start","image_path","practiceTrial","practiceTrialNum","correct","concept","repetition","hue","lightness","saturation","shift","ishihara_plate","correct_response"
"true","false","[]","[]","[]","preload","0","491","0.0-0.0","t68la0ht6c","3","","","","","","","","","","","","","","","","",""
"","","","","","html-button-response","1","1042190","0.0-1.0","t68la0ht6c","3","407519","Welcome to our experiment!<p>At the bottom of this screen, you will see a button that says ""Begin Experiment"".<br>Please only click that button when you are ready to complete the 25 minute experiment in one sitting.</p><p> Once you click that button, it will not be possible to restart the experiment.","0","","","","","","","","","","","","","",""
"true","","","","","fullscreen","2","1046069","0.0-2.0","t68la0ht6c","3","2871","","","","","","","","","","","","","","","",""
"","","","","","survey-multi-select","3","1208476","0.0-3.0","t68la0ht6c","3","162399","","{""Consent"":[""<strong>I consent</strong>""]}","[0]","","","","","","","","","","","","",""
"","","","","","html-button-response","4","1232211","0.0-4.0","t68la0ht6c","3","23727","Welcome! <p> This experiment involves two parts: demographic information, followed by the experimental task.<p> It will take about 25 minutes to complete both parts.","0","","","","","","","","","","","","","",""
"","","","","","survey-text","5","1246465","0.0-5.0","t68la0ht6c","3","14231","","{""Age"":""18"",""Gender"":""Female"",""Race/ethnicity"":""White"",""Languages"":""English""}","","","","","","","","","","","","","",""
"","","","","","html-slider-response","6","1295789","0.0-6.0","t68la0ht6c","3","49319","
                            <div style='text-align:left; font-size:20px; line-height:25px; width: 1400px;'>
                                During this experiment you will be asked to rate how much you associate maps with                    different concepts.<br> Below, you can see some examples of the maps you will be asked to rate. Next to the maps
                    is the list of concepts.<br>You will be asked                    to rate how much you associate each map with each concept on a scale from 'not at all' to 'very much' like the
                    one below. <br><br>
                    Now, please look at the list of concepts and maps. For each concept, think about the map you associate 'very
                    much' with the concept.<br>                     When you see that map during the experiment, please rate it near the 'very much' endpoint of the
                    scale.<br>Now, please think about which map you associate 'not at all'                     with each concept. When you see that map during the experiment, please rate it near the 'not at all' endpoint
                    of the scale.<br>
                    Please use the full range of the scale. That is, if a map is somewhat associated with the concept, you would
                    click partway between the middle point and right side of the scale.                    You will be asked to rate each map for a given concept before moving on to the next concept.<br><br>Press the
                    'Continue' button for instructions on how to use the slider.                    <br><br>
                </div>

                <div style=""width: 500px; margin: 0 auto;"">
                    <!-- Centered text paragraphs -->
                    <div style=""text-align: center; width: 500px;"">
                        <p style=""font-size:25px; line-height:18px;"">calm</p>
                        <p style=""font-size:25px; line-height:18px;"">positive</p>
                        <p style=""font-size:25px;line-height:18px;"">negative</p>
                        <p style=""font-size:25px;line-height:18px;"">startling</p>
                    </div>

                    <!-- Grid section -->
                   <div style=""display: flex; justify-content: center; padding-top: 15px;"">
                    <div style=""display: grid; grid-template-columns: repeat(8, 80px); grid-gap: 5px; width: auto;"">
                        <img src=""images/B_D_S_37_darkshift.png"" alt=""map"" style=""width: 100%;""><img src=""images/R_L_S_10_lightshift.png"" alt=""map"" style=""width: 100%;""><img src=""images/R_D_U_15_darkshift.png"" alt=""map"" style=""width: 100%;""><img src=""images/Y_D_S_5_darkshift.png"" alt=""map"" style=""width: 100%;""><img src=""images/Y_L_S_44_lightshift.png"" alt=""map"" style=""width: 100%;""><img src=""images/B_L_U_33_lightshift.png"" alt=""map"" style=""width: 100%;""><img src=""images/B_D_S_37_lightshift.png"" alt=""map"" style=""width: 100%;""><img src=""images/R_L_U_12_lightshift.png"" alt=""map"" style=""width: 100%;""><img src=""images/G_D_S_27_lightshift.png"" alt=""map"" style=""width: 100%;""><img src=""images/R_D_S_13_darkshift.png"" alt=""map"" style=""width: 100%;""><img src=""images/G_L_S_23_darkshift.png"" alt=""map"" style=""width: 100%;""><img src=""images/B_L_U_33_darkshift.png"" alt=""map"" style=""width: 100%;""><img src=""images/Y_D_S_5_lightshift.png"" alt=""map"" style=""width: 100%;""><img src=""images/G_D_S_27_darkshift.png"" alt=""map"" style=""width: 100%;""><img src=""images/B_D_U_41_lightshift.png"" alt=""map"" style=""width: 100%;""><img src=""images/G_D_U_28_lightshift.png"" alt=""map"" style=""width: 100%;""><img src=""images/G_L_U_26_darkshift.png"" alt=""map"" style=""width: 100%;""><img src=""images/Y_L_S_44_darkshift.png"" alt=""map"" style=""width: 100%;""><img src=""images/Y_D_U_7_lightshift.png"" alt=""map"" style=""width: 100%;""><img src=""images/G_L_U_26_lightshift.png"" alt=""map"" style=""width: 100%;""><img src=""images/Y_L_U_2_darkshift.png"" alt=""map"" style=""width: 100%;""><img src=""images/R_L_U_12_darkshift.png"" alt=""map"" style=""width: 100%;""><img src=""images/R_D_U_15_lightshift.png"" alt=""map"" style=""width: 100%;""><img src=""images/Y_L_U_2_lightshift.png"" alt=""map"" style=""width: 100%;""><img src=""images/Y_D_U_7_darkshift.png"" alt=""map"" style=""width: 100%;""><img src=""images/R_L_S_10_darkshift.png"" alt=""map"" style=""width: 100%;""><img src=""images/B_L_S_30_darkshift.png"" alt=""map"" style=""width: 100%;""><img src=""images/B_D_U_41_darkshift.png"" alt=""map"" style=""width: 100%;""><img src=""images/R_D_S_13_lightshift.png"" alt=""map"" style=""width: 100%;""><img src=""images/G_D_U_28_darkshift.png"" alt=""map"" style=""width: 100%;""><img src=""images/G_L_S_23_lightshift.png"" alt=""map"" style=""width: 100%;""><img src=""images/B_L_S_30_lightshift.png"" alt=""map"" style=""width: 100%;"">
                    </div>
                </div>

                    <!-- Clear floats -->
                    <div style=""clear: both;""></div>
                </div>
                            ","-1","","0","maps_anchoring.png","true","","","","","","","","","",""
"","","","","","html-button-response","7","1307732","0.0-7.0","t68la0ht6c","3","11941","<div style=""width:800px;""><p style=""text-align:left"">To move the slider, click and drag your cursor to the location of the scale where you would like to make your rating and then let go. When you let go of the slider, your response will be recorded and the next trial will begin. <br>
                    We are interested in your initial impressions of each map for the given concept, so please go with your first intuition. <br>
                    Before you begin the experiment, there will be four training trials for you to practice using the scale. <br>
                     When you are ready to start the training trials, please click ""Continue"".</p><br></div>","0","","","","","","","","","","","","","",""
"","","","","","html-slider-response","8","1311476","0.0-8.0-0.0","t68la0ht6c","3","NaN","<div style=""width:500px;"">
                                    <p style=""font-size:25px;"">Please move the slider all the way to the <br> right endpoint of the scale</p>

                                    </div>
                                </div>","200","","0","","true","0","true","","","","","","","",""
"","","","","","html-button-response","9","1313171","0.0-8.0-1.0","t68la0ht6c","3","1191","<p align='center'><b>Good job!</b> Click on 'Continue' to proceed.</p>","0","","","","","","","","","","","","","",""
"","","","","","html-slider-response","10","1315916","0.0-9.0-0.0","t68la0ht6c","3","NaN","<div style=""width:500px;"">
                                    <p style=""font-size:25px;"">Please move the slider all the way to the <br> left endpoint of the scale</p>

                                    </div>
                                </div>","-200","","0","","true","1","true","","","","","","","",""
"","","","","","html-button-response","11","1317320","0.0-9.0-1.0","t68la0ht6c","3","901","<p align='center'><b>Good job!</b> Click on 'Continue' to proceed.</p>","0","","","","","","","","","","","","","",""
"","","","","","html-slider-response","12","1320421","0.0-10.0-0.0","t68la0ht6c","3","NaN","<div style=""width:500px;"">
                                    <p style=""font-size:25px;"">Please move the slider halfway between the center and right endpoint of the scale</p>

                                    </div>
                                </div>","1","","0","","true","2","false","","","","","","","",""
"","","","","","html-button-response","13","1324828","0.0-10.0-1.0","t68la0ht6c","3","3903","<p align='center'><b>Not quite!</b> The slider was not placed near the instructed located. Click on 'Continue' to try again. </p>","0","","","","","","","","","","","","","",""
"","","","","","html-slider-response","14","1329308","0.0-10.1-0.1","t68la0ht6c","3","NaN","<div style=""width:500px;"">
                                    <p style=""font-size:25px;"">Please move the slider halfway between the center and right endpoint of the scale</p>

                                    </div>
                                </div>","105","","0","","true","2","true","","","","","","","",""
"","","","","","html-button-response","15","1330354","0.0-10.1-1.1","t68la0ht6c","3","543","<p align='center'><b>Good job!</b> Click on 'Continue' to proceed.</p>","0","","","","","","","","","","","","","",""
"","","","","","html-slider-response","16","1332381","0.0-11.0-0.0","t68la0ht6c","3","NaN","<div style=""width:500px;"">
                                    <p style=""font-size:25px;"">Please move the slider halfway between the center and left endpoint of the scale</p>

                                    </div>
                                </div>","-104","","0","","true","3","true","","","","","","","",""
"","","","","","html-button-response","17","1333873","0.0-11.0-1.0","t68la0ht6c","3","988","<p align='center'><b>Good job!</b> Click on 'Continue' to proceed.</p>","0","","","","","","","","","","","","","",""
"","","","","","html-button-response","18","1335221","0.0-12.0","t68la0ht6c","3","1347","<p>Great job! You've completed the practice trials. Now you will begin the main task.</p>","0","","","","","","","","","","","","","",""
"","","","","","html-button-response","19","1339351","0.0-13.0","t68la0ht6c","3","4128","<p>In this block of trials, you will be asked to rate how much you associate each map with:</p > <p style = 'font-size:150%; font-weight: bold'>startling</p><br></br>","0","","","","","","","","","","","","","",""
"","","","","","html-slider-response","20","1341849","0.0-14.0","t68la0ht6c","3","NaN","<div style=""width:500px;"">
                            <p style=""font-size:50px; font-weight:bold;""
                            >startling</p>
                            <div style=""width:240px; margin: auto;"">
                                <img src=""images/Y_D_S_5_darkshift.png"" style= ""width:200px""alt=""img"">
                            </div>
                        </div>","-200","","0","images/Y_D_S_5_darkshift.png","","","","startling","1","Y","D","S","darkshift","",""
"","","","","","html-slider-response","21","1344281","0.0-15.0","t68la0ht6c","3","NaN","<div style=""width:500px;"">
                            <p style=""font-size:50px; font-weight:bold;""
                            >startling</p>
                            <div style=""width:240px; margin: auto;"">
                                <img src=""images/R_L_U_12_lightshift.png"" style= ""width:200px""alt=""img"">
                            </div>
                        </div>","25","","0","images/R_L_U_12_lightshift.png","","","","startling","2","R","L","U","lightshift","",""
"","","","","","html-slider-response","22","1346294","0.0-16.0","t68la0ht6c","3","NaN","<div style=""width:500px;"">
                            <p style=""font-size:50px; font-weight:bold;""
                            >startling</p>
                            <div style=""width:240px; margin: auto;"">
                                <img src=""images/Y_L_S_44_darkshift.png"" style= ""width:200px""alt=""img"">
                            </div>
                        </div>","54","","0","images/Y_L_S_44_darkshift.png","","","","startling","2","Y","L","S","darkshift","",""
"","","","","","html-slider-response","23","1348396","0.0-17.0","t68la0ht6c","3","NaN","<div style=""width:500px;"">
                            <p style=""font-size:50px; font-weight:bold;""
                            >startling</p>
                            <div style=""width:240px; margin: auto;"">
                                <img src=""images/B_D_S_37_darkshift.png"" style= ""width:200px""alt=""img"">
                            </div>
                        </div>","130","","0","images/B_D_S_37_darkshift.png","","","","startling","2","B","D","S","darkshift","",""
"","","","","","html-slider-response","24","1350490","0.0-18.0","t68la0ht6c","3","NaN","<div style=""width:500px;"">
                            <p style=""font-size:50px; font-weight:bold;""
                            >startling</p>
                            <div style=""width:240px; margin: auto;"">
                                <img src=""images/G_D_S_27_darkshift.png"" style= ""width:200px""alt=""img"">
                            </div>
                        </div>","-81","","0","images/G_D_S_27_darkshift.png","","","","startling","2","G","D","S","darkshift","",""
"","","","","","html-slider-response","25","1352830","0.0-19.0","t68la0ht6c","3","NaN","<div style=""width:500px;"">
                            <p style=""font-size:50px; font-weight:bold;""
                            >startling</p>
                            <div style=""width:240px; margin: auto;"">
                                <img src=""images/B_D_S_37_lightshift.png"" style= ""width:200px""alt=""img"">
                            </div>
                        </div>","30","","0","images/B_D_S_37_lightshift.png","","","","startling","2","B","D","S","lightshift","",""
"","","","","","html-slider-response","26","1354672","0.0-20.0","t68la0ht6c","3","NaN","<div style=""width:500px;"">
                            <p style=""font-size:50px; font-weight:bold;""
                            >startling</p>
                            <div style=""width:240px; margin: auto;"">
                                <img src=""images/G_D_U_28_darkshift.png"" style= ""width:200px""alt=""img"">
                            </div>
                        </div>","-176","","0","images/G_D_U_28_darkshift.png","","","","startling","1","G","D","U","darkshift","",""
"","","","","","html-slider-response","27","1356613","0.0-21.0","t68la0ht6c","3","NaN","<div style=""width:500px;"">
                            <p style=""font-size:50px; font-weight:bold;""
                            >startling</p>
                            <div style=""width:240px; margin: auto;"">
                                <img src=""images/R_L_S_10_darkshift.png"" style= ""width:200px""alt=""img"">
                            </div>
                        </div>","200","","0","images/R_L_S_10_darkshift.png","","","","startling","1","R","L","S","darkshift","",""
"","","","","","html-slider-response","28","1358716","0.0-22.0","t68la0ht6c","3","NaN","<div style=""width:500px;"">
                            <p style=""font-size:50px; font-weight:bold;""
                            >startling</p>
                            <div style=""width:240px; margin: auto;"">
                                <img src=""images/Y_L_U_2_lightshift.png"" style= ""width:200px""alt=""img"">
                            </div>
                        </div>","-112","","0","images/Y_L_U_2_lightshift.png","","","","startling","1","Y","L","U","lightshift","",""
"","","","","","html-slider-response","29","1360829","0.0-23.0","t68la0ht6c","3","NaN","<div style=""width:500px;"">
                            <p style=""font-size:50px; font-weight:bold;""
                            >startling</p>
                            <div style=""width:240px; margin: auto;"">
                                <img src=""images/Y_D_S_5_lightshift.png"" style= ""width:200px""alt=""img"">
                            </div>
                        </div>","-200","","0","images/Y_D_S_5_lightshift.png","","","","startling","2","Y","D","S","lightshift","",""
"","","","","","html-slider-response","30","1362961","0.0-24.0","t68la0ht6c","3","NaN","<div style=""width:500px;"">
                            <p style=""font-size:50px; font-weight:bold;""
                            >startling</p>
                            <div style=""width:240px; margin: auto;"">
                                <img src=""images/Y_L_S_44_darkshift.png"" style= ""width:200px""alt=""img"">
                            </div>
                        </div>","-200","","0","images/Y_L_S_44_darkshift.png","","","","startling","1","Y","L","S","darkshift","",""
"","","","","","html-slider-response","31","1365025","0.0-25.0","t68la0ht6c","3","NaN","<div style=""width:500px;"">
                            <p style=""font-size:50px; font-weight:bold;""
                            >startling</p>
                            <div style=""width:240px; margin: auto;"">
                                <img src=""images/R_L_S_10_lightshift.png"" style= ""width:200px""alt=""img"">
                            </div>
                        </div>","58","","0","images/R_L_S_10_lightshift.png","","","","startling","1","R","L","S","lightshift","",""
"","","","","","html-slider-response","32","1366830","0.0-26.0","t68la0ht6c","3","NaN","<div style=""width:500px;"">
                            <p style=""font-size:50px; font-weight:bold;""
                            >startling</p>
                            <div style=""width:240px; margin: auto;"">
                                <img src=""images/Y_D_U_7_lightshift.png"" style= ""width:200px""alt=""img"">
                            </div>
                        </div>","-200","","0","images/Y_D_U_7_lightshift.png","","","","startling","1","Y","D","U","lightshift","",""
"","","","","","html-slider-response","33","1368933","0.0-27.0","t68la0ht6c","3","NaN","<div style=""width:500px;"">
                            <p style=""font-size:50px; font-weight:bold;""
                            >startling</p>
                            <div style=""width:240px; margin: auto;"">
                                <img src=""images/G_D_S_27_lightshift.png"" style= ""width:200px""alt=""img"">
                            </div>
                        </div>","-26","","0","images/G_D_S_27_lightshift.png","","","","startling","1","G","D","S","lightshift","",""
"","","","","","html-slider-response","34","1370611","0.0-28.0","t68la0ht6c","3","NaN","<div style=""width:500px;"">
                            <p style=""font-size:50px; font-weight:bold;""
                            >startling</p>
                            <div style=""width:240px; margin: auto;"">
                                <img src=""images/B_D_S_37_darkshift.png"" style= ""width:200px""alt=""img"">
                            </div>
                        </div>","74","","0","images/B_D_S_37_darkshift.png","","","","startling","1","B","D","S","darkshift","",""
"","","","","","html-slider-response","35","1372425","0.0-29.0","t68la0ht6c","3","NaN","<div style=""width:500px;"">
                            <p style=""font-size:50px; font-weight:bold;""
                            >startling</p>
                            <div style=""width:240px; margin: auto;"">
                                <img src=""images/R_L_U_12_darkshift.png"" style= ""width:200px""alt=""img"">
                            </div>
                        </div>","26","","0","images/R_L_U_12_darkshift.png","","","","startling","1","R","L","U","darkshift","",""
"","","","","","html-slider-response","36","1374149","0.0-30.0","t68la0ht6c","3","NaN","<div style=""width:500px;"">
                            <p style=""font-size:50px; font-weight:bold;""
                            >startling</p>
                            <div style=""width:240px; margin: auto;"">
                                <img src=""images/R_L_U_12_lightshift.png"" style= ""width:200px""alt=""img"">
                            </div>
                        </div>","-53","","0","images/R_L_U_12_lightshift.png","","","","startling","1","R","L","U","lightshift","",""
"","","","","","html-slider-response","37","1375835","0.0-31.0","t68la0ht6c","3","NaN","<div style=""width:500px;"">
                            <p style=""font-size:50px; font-weight:bold;""
                            >startling</p>
                            <div style=""width:240px; margin: auto;"">
                                <img src=""images/G_D_S_27_darkshift.png"" style= ""width:200px""alt=""img"">
                            </div>
                        </div>","-86","","0","images/G_D_S_27_darkshift.png","","","","startling","1","G","D","S","darkshift","",""
"","","","","","html-slider-response","38","1377750","0.0-32.0","t68la0ht6c","3","NaN","<div style=""width:500px;"">
                            <p style=""font-size:50px; font-weight:bold;""
                            >startling</p>
                            <div style=""width:240px; margin: auto;"">
                                <img src=""images/Y_D_U_7_darkshift.png"" style= ""width:200px""alt=""img"">
                            </div>
                        </div>","-200","","0","images/Y_D_U_7_darkshift.png","","","","startling","2","Y","D","U","darkshift","",""
"","","","","","html-slider-response","39","1379774","0.0-33.0","t68la0ht6c","3","NaN","<div style=""width:500px;"">
                            <p style=""font-size:50px; font-weight:bold;""
                            >startling</p>
                            <div style=""width:240px; margin: auto;"">
                                <img src=""images/R_D_S_13_darkshift.png"" style= ""width:200px""alt=""img"">
                            </div>
                        </div>","28","","0","images/R_D_S_13_darkshift.png","","","","startling","1","R","D","S","darkshift","",""
"","","","","","html-slider-response","40","1381792","0.0-34.0","t68la0ht6c","3","NaN","<div style=""width:500px;"">
                            <p style=""font-size:50px; font-weight:bold;""
                            >startling</p>
                            <div style=""width:240px; margin: auto;"">
                                <img src=""images/R_D_S_13_lightshift.png"" style= ""width:200px""alt=""img"">
                            </div>
                        </div>","44","","0","images/R_D_S_13_lightshift.png","","","","startling","1","R","D","S","lightshift","",""
"","","","","","html-slider-response","41","1383706","0.0-35.0","t68la0ht6c","3","NaN","<div style=""width:500px;"">
                            <p style=""font-size:50px; font-weight:bold;""
                            >startling</p>
                            <div style=""width:240px; margin: auto;"">
                                <img src=""images/B_L_S_30_lightshift.png"" style= ""width:200px""alt=""img"">
                            </div>
                        </div>","78","","0","images/B_L_S_30_lightshift.png","","","","startling","2","B","L","S","lightshift","",""
"","","","","","html-slider-response","42","1385880","0.0-36.0","t68la0ht6c","3","NaN","<div style=""width:500px;"">
                            <p style=""font-size:50px; font-weight:bold;""
                            >startling</p>
                            <div style=""width:240px; margin: auto;"">
                                <img src=""images/G_D_U_28_lightshift.png"" style= ""width:200px""alt=""img"">
                            </div>
                        </div>","-151","","0","images/G_D_U_28_lightshift.png","","","","startling","1","G","D","U","lightshift","",""
"","","","","","html-slider-response","43","1387991","0.0-37.0","t68la0ht6c","3","NaN","<div style=""width:500px;"">
                            <p style=""font-size:50px; font-weight:bold;""
                            >startling</p>
                            <div style=""width:240px; margin: auto;"">
                                <img src=""images/R_L_S_10_darkshift.png"" style= ""width:200px""alt=""img"">
                            </div>
                        </div>","107","","0","images/R_L_S_10_darkshift.png","","","","startling","2","R","L","S","darkshift","",""
"","","","","","html-slider-response","44","1389762","0.0-38.0","t68la0ht6c","3","NaN","<div style=""width:500px;"">
                            <p style=""font-size:50px; font-weight:bold;""
                            >startling</p>
                            <div style=""width:240px; margin: auto;"">
                                <img src=""images/R_D_S_13_lightshift.png"" style= ""width:200px""alt=""img"">
                            </div>
                        </div>","17","","0","images/R_D_S_13_lightshift.png","","","","startling","2","R","D","S","lightshift","",""
"","","","","","html-slider-response","45","1391752","0.0-39.0","t68la0ht6c","3","NaN","<div style=""width:500px;"">
                            <p style=""font-size:50px; font-weight:bold;""
                            >startling</p>
                            <div style=""width:240px; margin: auto;"">
                                <img src=""images/Y_D_S_5_darkshift.png"" style= ""width:200px""alt=""img"">
                            </div>
                        </div>","-200","","0","images/Y_D_S_5_darkshift.png","","","","startling","2","Y","D","S","darkshift","",""
"","","","","","html-slider-response","46","1395991","0.0-40.0","t68la0ht6c","3","NaN","<div style=""width:500px;"">
                            <p style=""font-size:50px; font-weight:bold;""
                            >startling</p>
                            <div style=""width:240px; margin: auto;"">
                                <img src=""images/B_L_U_33_lightshift.png"" style= ""width:200px""alt=""img"">
                            </div>
                        </div>","170","","0","images/B_L_U_33_lightshift.png","","","","startling","1","B","L","U","lightshift","",""
"","","","","","html-slider-response","47","1397814","0.0-41.0","t68la0ht6c","3","NaN","<div style=""width:500px;"">
                            <p style=""font-size:50px; font-weight:bold;""
                            >startling</p>
                            <div style=""width:240px; margin: auto;"">
                                <img src=""images/R_D_U_15_lightshift.png"" style= ""width:200px""alt=""img"">
                            </div>
                        </div>","-153","","0","images/R_D_U_15_lightshift.png","","","","startling","2","R","D","U","lightshift","",""
"","","","","","html-slider-response","48","1399796","0.0-42.0","t68la0ht6c","3","NaN","<div style=""width:500px;"">
                            <p style=""font-size:50px; font-weight:bold;""
                            >startling</p>
                            <div style=""width:240px; margin: auto;"">
                                <img src=""images/G_D_U_28_lightshift.png"" style= ""width:200px""alt=""img"">
                            </div>
                        </div>","-122","","0","images/G_D_U_28_lightshift.png","","","","startling","2","G","D","U","lightshift","",""
"","","","","","html-slider-response","49","1402359","0.0-43.0","t68la0ht6c","3","NaN","<div style=""width:500px;"">
                            <p style=""font-size:50px; font-weight:bold;""
                            >startling</p>
                            <div style=""width:240px; margin: auto;"">
                                <img src=""images/Y_L_S_44_lightshift.png"" style= ""width:200px""alt=""img"">
                            </div>
                        </div>","8","","0","images/Y_L_S_44_lightshift.png","","","","startling","1","Y","L","S","lightshift","",""
"","","","","","html-slider-response","50","1404248","0.0-44.0","t68la0ht6c","3","NaN","<div style=""width:500px;"">
                            <p style=""font-size:50px; font-weight:bold;""
                            >startling</p>
                            <div style=""width:240px; margin: auto;"">
                                <img src=""images/G_L_S_23_lightshift.png"" style= ""width:200px""alt=""img"">
                            </div>
                        </div>","34","","0","images/G_L_S_23_lightshift.png","","","","startling","2","G","L","S","lightshift","",""
"","","","","","html-slider-response","51","1406982","0.0-45.0","t68la0ht6c","3","NaN","<div style=""width:500px;"">
                            <p style=""font-size:50px; font-weight:bold;""
                            >startling</p>
                            <div style=""width:240px; margin: auto;"">
                                <img src=""images/G_L_U_26_lightshift.png"" style= ""width:200px""alt=""img"">
                            </div>
                        </div>","62","","0","images/G_L_U_26_lightshift.png","","","","startling","2","G","L","U","lightshift","",""
"","","","","","html-slider-response","52","1408610","0.0-46.0","t68la0ht6c","3","NaN","<div style=""width:500px;"">
                            <p style=""font-size:50px; font-weight:bold;""
                            >startling</p>
                            <div style=""width:240px; margin: auto;"">
                                <img src=""images/B_D_U_41_lightshift.png"" style= ""width:200px""alt=""img"">
                            </div>
                        </div>","-53","","0","images/B_D_U_41_lightshift.png","","","","startling","1","B","D","U","lightshift","",""
"","","","","","html-slider-response","53","1410415","0.0-47.0","t68la0ht6c","3","NaN","<div style=""width:500px;"">
                            <p style=""font-size:50px; font-weight:bold;""
                            >startling</p>
                            <div style=""width:240px; margin: auto;"">
                                <img src=""images/Y_L_U_2_lightshift.png"" style= ""width:200px""alt=""img"">
                            </div>
                        </div>","29","","0","images/Y_L_U_2_lightshift.png","","","","startling","2","Y","L","U","lightshift","",""
"","","","","","html-slider-response","54","1412907","0.0-48.0","t68la0ht6c","3","NaN","<div style=""width:500px;"">
                            <p style=""font-size:50px; font-weight:bold;""
                            >startling</p>
                            <div style=""width:240px; margin: auto;"">
                                <img src=""images/B_D_U_41_darkshift.png"" style= ""width:200px""alt=""img"">
                            </div>
                        </div>","-158","","0","images/B_D_U_41_darkshift.png","","","","startling","1","B","D","U","darkshift","",""
"","","","","","html-slider-response","55","1414622","0.0-49.0","t68la0ht6c","3","NaN","<div style=""width:500px;"">
                            <p style=""font-size:50px; font-weight:bold;""
                            >startling</p>
                            <div style=""width:240px; margin: auto;"">
                                <img src=""images/R_D_U_15_darkshift.png"" style= ""width:200px""alt=""img"">
                            </div>
                        </div>","-182","","0","images/R_D_U_15_darkshift.png","","","","startling","1","R","D","U","darkshift","",""
"","","","","","html-slider-response","56","1416412","0.0-50.0","t68la0ht6c","3","NaN","<div style=""width:500px;"">
                            <p style=""font-size:50px; font-weight:bold;""
                            >startling</p>
                            <div style=""width:240px; margin: auto;"">
                                <img src=""images/B_L_S_30_darkshift.png"" style= ""width:200px""alt=""img"">
                            </div>
                        </div>","190","","0","images/B_L_S_30_darkshift.png","","","","startling","1","B","L","S","darkshift","",""
"","","","","","html-slider-response","57","1418245","0.0-51.0","t68la0ht6c","3","NaN","<div style=""width:500px;"">
                            <p style=""font-size:50px; font-weight:bold;""
                            >startling</p>
                            <div style=""width:240px; margin: auto;"">
                                <img src=""images/G_D_S_27_lightshift.png"" style= ""width:200px""alt=""img"">
                            </div>
                        </div>","-111","","0","images/G_D_S_27_lightshift.png","","","","startling","2","G","D","S","lightshift","",""
"","","","","","html-slider-response","58","1420224","0.0-52.0","t68la0ht6c","3","NaN","<div style=""width:500px;"">
                            <p style=""font-size:50px; font-weight:bold;""
                            >startling</p>
                            <div style=""width:240px; margin: auto;"">
                                <img src=""images/B_L_S_30_darkshift.png"" style= ""width:200px""alt=""img"">
                            </div>
                        </div>","170","","0","images/B_L_S_30_darkshift.png","","","","startling","2","B","L","S","darkshift","",""
"","","","","","html-slider-response","59","1421925","0.0-53.0","t68la0ht6c","3","NaN","<div style=""width:500px;"">
                            <p style=""font-size:50px; font-weight:bold;""
                            >startling</p>
                            <div style=""width:240px; margin: auto;"">
                                <img src=""images/Y_D_S_5_lightshift.png"" style= ""width:200px""alt=""img"">
                            </div>
                        </div>","-158","","0","images/Y_D_S_5_lightshift.png","","","","startling","1","Y","D","S","lightshift","",""
"","","","","","html-slider-response","60","1423566","0.0-54.0","t68la0ht6c","3","NaN","<div style=""width:500px;"">
                            <p style=""font-size:50px; font-weight:bold;""
                            >startling</p>
                            <div style=""width:240px; margin: auto;"">
                                <img src=""images/Y_L_U_2_darkshift.png"" style= ""width:200px""alt=""img"">
                            </div>
                        </div>","-78","","0","images/Y_L_U_2_darkshift.png","","","","startling","1","Y","L","U","darkshift","",""
"","","","","","html-slider-response","61","1425342","0.0-55.0","t68la0ht6c","3","NaN","<div style=""width:500px;"">
                            <p style=""font-size:50px; font-weight:bold;""
                            >startling</p>
                            <div style=""width:240px; margin: auto;"">
                                <img src=""images/B_L_S_30_lightshift.png"" style= ""width:200px""alt=""img"">
                            </div>
                        </div>","86","","0","images/B_L_S_30_lightshift.png","","","","startling","1","B","L","S","lightshift","",""
"","","","","","html-slider-response","62","1426959","0.0-56.0","t68la0ht6c","3","NaN","<div style=""width:500px;"">
                            <p style=""font-size:50px; font-weight:bold;""
                            >startling</p>
                            <div style=""width:240px; margin: auto;"">
                                <img src=""images/B_L_U_33_darkshift.png"" style= ""width:200px""alt=""img"">
                            </div>
                        </div>","-38","","0","images/B_L_U_33_darkshift.png","","","","startling","2","B","L","U","darkshift","",""
"","","","","","html-slider-response","63","1428592","0.0-57.0","t68la0ht6c","3","NaN","<div style=""width:500px;"">
                            <p style=""font-size:50px; font-weight:bold;""
                            >startling</p>
                            <div style=""width:240px; margin: auto;"">
                                <img src=""images/Y_L_S_44_lightshift.png"" style= ""width:200px""alt=""img"">
                            </div>
                        </div>","21","","0","images/Y_L_S_44_lightshift.png","","","","startling","2","Y","L","S","lightshift","",""
"","","","","","html-slider-response","64","1430146","0.0-58.0","t68la0ht6c","3","NaN","<div style=""width:500px;"">
                            <p style=""font-size:50px; font-weight:bold;""
                            >startling</p>
                            <div style=""width:240px; margin: auto;"">
                                <img src=""images/R_D_U_15_lightshift.png"" style= ""width:200px""alt=""img"">
                            </div>
                        </div>","-99","","0","images/R_D_U_15_lightshift.png","","","","startling","1","R","D","U","lightshift","",""
"","","","","","html-slider-response","65","1432292","0.0-59.0","t68la0ht6c","3","NaN","<div style=""width:500px;"">
                            <p style=""font-size:50px; font-weight:bold;""
                            >startling</p>
                            <div style=""width:240px; margin: auto;"">
                                <img src=""images/G_L_U_26_darkshift.png"" style= ""width:200px""alt=""img"">
                            </div>
                        </div>","-88","","0","images/G_L_U_26_darkshift.png","","","","startling","2","G","L","U","darkshift","",""
"","","","","","html-slider-response","66","1435529","0.0-60.0","t68la0ht6c","3","NaN","<div style=""width:500px;"">
                            <p style=""font-size:50px; font-weight:bold;""
                            >startling</p>
                            <div style=""width:240px; margin: auto;"">
                                <img src=""images/G_L_S_23_lightshift.png"" style= ""width:200px""alt=""img"">
                            </div>
                        </div>","36","","0","images/G_L_S_23_lightshift.png","","","","startling","1","G","L","S","lightshift","",""
"","","","","","html-slider-response","67","1437190","0.0-61.0","t68la0ht6c","3","NaN","<div style=""width:500px;"">
                            <p style=""font-size:50px; font-weight:bold;""
                            >startling</p>
                            <div style=""width:240px; margin: auto;"">
                                <img src=""images/G_L_U_26_darkshift.png"" style= ""width:200px""alt=""img"">
                            </div>
                        </div>","-72","","0","images/G_L_U_26_darkshift.png","","","","startling","1","G","L","U","darkshift","",""
"","","","","","html-slider-response","68","1439020","0.0-62.0","t68la0ht6c","3","NaN","<div style=""width:500px;"">
                            <p style=""font-size:50px; font-weight:bold;""
                            >startling</p>
                            <div style=""width:240px; margin: auto;"">
                                <img src=""images/B_D_S_37_lightshift.png"" style= ""width:200px""alt=""img"">
                            </div>
                        </div>","-46","","0","images/B_D_S_37_lightshift.png","","","","startling","1","B","D","S","lightshift","",""
"","","","","","html-slider-response","69","1440810","0.0-63.0","t68la0ht6c","3","NaN","<div style=""width:500px;"">
                            <p style=""font-size:50px; font-weight:bold;""
                            >startling</p>
                            <div style=""width:240px; margin: auto;"">
                                <img src=""images/G_L_S_23_darkshift.png"" style= ""width:200px""alt=""img"">
                            </div>
                        </div>","-66","","0","images/G_L_S_23_darkshift.png","","","","startling","1","G","L","S","darkshift","",""
"","","","","","html-slider-response","70","1442928","0.0-64.0","t68la0ht6c","3","NaN","<div style=""width:500px;"">
                            <p style=""font-size:50px; font-weight:bold;""
                            >startling</p>
                            <div style=""width:240px; margin: auto;"">
                                <img src=""images/R_L_U_12_darkshift.png"" style= ""width:200px""alt=""img"">
                            </div>
                        </div>","-154","","0","images/R_L_U_12_darkshift.png","","","","startling","2","R","L","U","darkshift","",""
"","","","","","html-slider-response","71","1444596","0.0-65.0","t68la0ht6c","3","NaN","<div style=""width:500px;"">
                            <p style=""font-size:50px; font-weight:bold;""
                            >startling</p>
                            <div style=""width:240px; margin: auto;"">
                                <img src=""images/B_L_U_33_lightshift.png"" style= ""width:200px""alt=""img"">
                            </div>
                        </div>","22","","0","images/B_L_U_33_lightshift.png","","","","startling","2","B","L","U","lightshift","",""
"","","","","","html-slider-response","72","1446207","0.0-66.0","t68la0ht6c","3","NaN","<div style=""width:500px;"">
                            <p style=""font-size:50px; font-weight:bold;""
                            >startling</p>
                            <div style=""width:240px; margin: auto;"">
                                <img src=""images/G_D_U_28_darkshift.png"" style= ""width:200px""alt=""img"">
                            </div>
                        </div>","-200","","0","images/G_D_U_28_darkshift.png","","","","startling","2","G","D","U","darkshift","",""
"","","","","","html-slider-response","73","1448374","0.0-67.0","t68la0ht6c","3","NaN","<div style=""width:500px;"">
                            <p style=""font-size:50px; font-weight:bold;""
                            >startling</p>
                            <div style=""width:240px; margin: auto;"">
                                <img src=""images/Y_D_U_7_lightshift.png"" style= ""width:200px""alt=""img"">
                            </div>
                        </div>","-200","","0","images/Y_D_U_7_lightshift.png","","","","startling","2","Y","D","U","lightshift","",""
"","","","","","html-slider-response","74","1450157","0.0-68.0","t68la0ht6c","3","NaN","<div style=""width:500px;"">
                            <p style=""font-size:50px; font-weight:bold;""
                            >startling</p>
                            <div style=""width:240px; margin: auto;"">
                                <img src=""images/G_L_U_26_lightshift.png"" style= ""width:200px""alt=""img"">
                            </div>
                        </div>","52","","0","images/G_L_U_26_lightshift.png","","","","startling","1","G","L","U","lightshift","",""
"","","","","","html-slider-response","75","1451917","0.0-69.0","t68la0ht6c","3","NaN","<div style=""width:500px;"">
                            <p style=""font-size:50px; font-weight:bold;""
                            >startling</p>
                            <div style=""width:240px; margin: auto;"">
                                <img src=""images/B_L_U_33_darkshift.png"" style= ""width:200px""alt=""img"">
                            </div>
                        </div>","35","","0","images/B_L_U_33_darkshift.png","","","","startling","1","B","L","U","darkshift","",""
"","","","","","html-slider-response","76","1455782","0.0-70.0","t68la0ht6c","3","NaN","<div style=""width:500px;"">
                            <p style=""font-size:50px; font-weight:bold;""
                            >startling</p>
                            <div style=""width:240px; margin: auto;"">
                                <img src=""images/R_D_S_13_darkshift.png"" style= ""width:200px""alt=""img"">
                            </div>
                        </div>","-126","","0","images/R_D_S_13_darkshift.png","","","","startling","2","R","D","S","darkshift","",""
"","","","","","html-slider-response","77","1457312","0.0-71.0","t68la0ht6c","3","NaN","<div style=""width:500px;"">
                            <p style=""font-size:50px; font-weight:bold;""
                            >startling</p>
                            <div style=""width:240px; margin: auto;"">
                                <img src=""images/G_L_S_23_darkshift.png"" style= ""width:200px""alt=""img"">
                            </div>
                        </div>","-51","","0","images/G_L_S_23_darkshift.png","","","","startling","2","G","L","S","darkshift","",""
"","","","","","html-slider-response","78","1458897","0.0-72.0","t68la0ht6c","3","NaN","<div style=""width:500px;"">
                            <p style=""font-size:50px; font-weight:bold;""
                            >startling</p>
                            <div style=""width:240px; margin: auto;"">
                                <img src=""images/Y_D_U_7_darkshift.png"" style= ""width:200px""alt=""img"">
                            </div>
                        </div>","-200","","0","images/Y_D_U_7_darkshift.png","","","","startling","1","Y","D","U","darkshift","",""
"","","","","","html-slider-response","79","1460613","0.0-73.0","t68la0ht6c","3","NaN","<div style=""width:500px;"">
                            <p style=""font-size:50px; font-weight:bold;""
                            >startling</p>
                            <div style=""width:240px; margin: auto;"">
                                <img src=""images/R_D_U_15_darkshift.png"" style= ""width:200px""alt=""img"">
                            </div>
                        </div>","-200","","0","images/R_D_U_15_darkshift.png","","","","startling","2","R","D","U","darkshift","",""
"","","","","","html-slider-response","80","1462672","0.0-74.0","t68la0ht6c","3","NaN","<div style=""width:500px;"">
                            <p style=""font-size:50px; font-weight:bold;""
                            >startling</p>
                            <div style=""width:240px; margin: auto;"">
                                <img src=""images/B_D_U_41_lightshift.png"" style= ""width:200px""alt=""img"">
                            </div>
                        </div>","-84","","0","images/B_D_U_41_lightshift.png","","","","startling","2","B","D","U","lightshift","",""
"","","","","","html-slider-response","81","1464291","0.0-75.0","t68la0ht6c","3","NaN","<div style=""width:500px;"">
                            <p style=""font-size:50px; font-weight:bold;""
                            >startling</p>
                            <div style=""width:240px; margin: auto;"">
                                <img src=""images/B_D_U_41_darkshift.png"" style= ""width:200px""alt=""img"">
                            </div>
                        </div>","-200","","0","images/B_D_U_41_darkshift.png","","","","startling","2","B","D","U","darkshift","",""
"","","","","","html-slider-response","82","1466411","0.0-76.0","t68la0ht6c","3","NaN","<div style=""width:500px;"">
                            <p style=""font-size:50px; font-weight:bold;""
                            >startling</p>
                            <div style=""width:240px; margin: auto;"">
                                <img src=""images/R_L_S_10_lightshift.png"" style= ""width:200px""alt=""img"">
                            </div>
                        </div>","-34","","0","images/R_L_S_10_lightshift.png","","","","startling","2","R","L","S","lightshift","",""
"","","","","","html-slider-response","83","1468106","0.0-77.0","t68la0ht6c","3","NaN","<div style=""width:500px;"">
                            <p style=""font-size:50px; font-weight:bold;""
                            >startling</p>
                            <div style=""width:240px; margin: auto;"">
                                <img src=""images/Y_L_U_2_darkshift.png"" style= ""width:200px""alt=""img"">
                            </div>
                        </div>","-38","","0","images/Y_L_U_2_darkshift.png","","","","startling","2","Y","L","U","darkshift","",""
"","","","","","html-button-response","84","1471675","0.0-78.0","t68la0ht6c","3","3066","<p>Great Job! You've finished block 1.<br></br> You have 3 block(s) left to go.<br></br></p>","0","","","","","","","","","","","","","",""
"","","","","","html-button-response","85","1472999","0.0-79.0","t68la0ht6c","3","1323","<p>In this block of trials, you will be asked to rate how much you associate each map with:</p > <p style = 'font-size:150%; font-weight: bold'>positive</p><br></br>","0","","","","","","","","","","","","","",""
"","","","","","html-slider-response","86","1474703","0.0-80.0","t68la0ht6c","3","NaN","<div style=""width:500px;"">
                            <p style=""font-size:50px; font-weight:bold;""
                            >positive</p>
                            <div style=""width:240px; margin: auto;"">
                                <img src=""images/R_L_U_12_darkshift.png"" style= ""width:200px""alt=""img"">
                            </div>
                        </div>","-102","","0","images/R_L_U_12_darkshift.png","","","","positive","1","R","L","U","darkshift","",""
"","","","","","html-slider-response","87","1476625","0.0-81.0","t68la0ht6c","3","NaN","<div style=""width:500px;"">
                            <p style=""font-size:50px; font-weight:bold;""
                            >positive</p>
                            <div style=""width:240px; margin: auto;"">
                                <img src=""images/G_L_S_23_lightshift.png"" style= ""width:200px""alt=""img"">
                            </div>
                        </div>","113","","0","images/G_L_S_23_lightshift.png","","","","positive","1","G","L","S","lightshift","",""
"","","","","","html-slider-response","88","1478119","0.0-82.0","t68la0ht6c","3","NaN","<div style=""width:500px;"">
                            <p style=""font-size:50px; font-weight:bold;""
                            >positive</p>
                            <div style=""width:240px; margin: auto;"">
                                <img src=""images/R_D_U_15_darkshift.png"" style= ""width:200px""alt=""img"">
                            </div>
                        </div>","-44","","0","images/R_D_U_15_darkshift.png","","","","positive","2","R","D","U","darkshift","",""
"","","","","","html-slider-response","89","1479892","0.0-83.0","t68la0ht6c","3","NaN","<div style=""width:500px;"">
                            <p style=""font-size:50px; font-weight:bold;""
                            >positive</p>
                            <div style=""width:240px; margin: auto;"">
                                <img src=""images/Y_L_S_44_darkshift.png"" style= ""width:200px""alt=""img"">
                            </div>
                        </div>","-93","","0","images/Y_L_S_44_darkshift.png","","","","positive","2","Y","L","S","darkshift","",""
"","","","","","html-slider-response","90","1481921","0.0-84.0","t68la0ht6c","3","NaN","<div style=""width:500px;"">
                            <p style=""font-size:50px; font-weight:bold;""
                            >positive</p>
                            <div style=""width:240px; margin: auto;"">
                                <img src=""images/B_D_S_37_lightshift.png"" style= ""width:200px""alt=""img"">
                            </div>
                        </div>","200","","0","images/B_D_S_37_lightshift.png","","","","positive","2","B","D","S","lightshift","",""
"","","","","","html-slider-response","91","1483678","0.0-85.0","t68la0ht6c","3","NaN","<div style=""width:500px;"">
                            <p style=""font-size:50px; font-weight:bold;""
                            >positive</p>
                            <div style=""width:240px; margin: auto;"">
                                <img src=""images/Y_D_S_5_lightshift.png"" style= ""width:200px""alt=""img"">
                            </div>
                        </div>","-50","","0","images/Y_D_S_5_lightshift.png","","","","positive","2","Y","D","S","lightshift","",""
"","","","","","html-slider-response","92","1486821","0.0-86.0","t68la0ht6c","3","NaN","<div style=""width:500px;"">
                            <p style=""font-size:50px; font-weight:bold;""
                            >positive</p>
                            <div style=""width:240px; margin: auto;"">
                                <img src=""images/B_D_U_41_lightshift.png"" style= ""width:200px""alt=""img"">
                            </div>
                        </div>","67","","0","images/B_D_U_41_lightshift.png","","","","positive","2","B","D","U","lightshift","",""
"","","","","","html-slider-response","93","1488466","0.0-87.0","t68la0ht6c","3","NaN","<div style=""width:500px;"">
                            <p style=""font-size:50px; font-weight:bold;""
                            >positive</p>
                            <div style=""width:240px; margin: auto;"">
                                <img src=""images/G_D_S_27_lightshift.png"" style= ""width:200px""alt=""img"">
                            </div>
                        </div>","46","","0","images/G_D_S_27_lightshift.png","","","","positive","1","G","D","S","lightshift","",""
"","","","","","html-slider-response","94","1490513","0.0-88.0","t68la0ht6c","3","NaN","<div style=""width:500px;"">
                            <p style=""font-size:50px; font-weight:bold;""
                            >positive</p>
                            <div style=""width:240px; margin: auto;"">
                                <img src=""images/G_D_U_28_lightshift.png"" style= ""width:200px""alt=""img"">
                            </div>
                        </div>","32","","0","images/G_D_U_28_lightshift.png","","","","positive","1","G","D","U","lightshift","",""
"","","","","","html-slider-response","95","1492222","0.0-89.0","t68la0ht6c","3","NaN","<div style=""width:500px;"">
                            <p style=""font-size:50px; font-weight:bold;""
                            >positive</p>
                            <div style=""width:240px; margin: auto;"">
                                <img src=""images/B_L_S_30_lightshift.png"" style= ""width:200px""alt=""img"">
                            </div>
                        </div>","200","","0","images/B_L_S_30_lightshift.png","","","","positive","1","B","L","S","lightshift","",""
"","","","","","html-slider-response","96","1494513","0.0-90.0","t68la0ht6c","3","NaN","<div style=""width:500px;"">
                            <p style=""font-size:50px; font-weight:bold;""
                            >positive</p>
                            <div style=""width:240px; margin: auto;"">
                                <img src=""images/Y_L_S_44_darkshift.png"" style= ""width:200px""alt=""img"">
                            </div>
                        </div>","-70","","0","images/Y_L_S_44_darkshift.png","","","","positive","1","Y","L","S","darkshift","",""
"","","","","","html-slider-response","97","1496307","0.0-91.0","t68la0ht6c","3","NaN","<div style=""width:500px;"">
                            <p style=""font-size:50px; font-weight:bold;""
                            >positive</p>
                            <div style=""width:240px; margin: auto;"">
                                <img src=""images/R_L_U_12_lightshift.png"" style= ""width:200px""alt=""img"">
                            </div>
                        </div>","21","","0","images/R_L_U_12_lightshift.png","","","","positive","1","R","L","U","lightshift","",""
"","","","","","html-slider-response","98","1497880","0.0-92.0","t68la0ht6c","3","NaN","<div style=""width:500px;"">
                            <p style=""font-size:50px; font-weight:bold;""
                            >positive</p>
                            <div style=""width:240px; margin: auto;"">
                                <img src=""images/R_L_S_10_darkshift.png"" style= ""width:200px""alt=""img"">
                            </div>
                        </div>","200","","0","images/R_L_S_10_darkshift.png","","","","positive","1","R","L","S","darkshift","",""
"","","","","","html-slider-response","99","1499597","0.0-93.0","t68la0ht6c","3","NaN","<div style=""width:500px;"">
                            <p style=""font-size:50px; font-weight:bold;""
                            >positive</p>
                            <div style=""width:240px; margin: auto;"">
                                <img src=""images/B_D_U_41_lightshift.png"" style= ""width:200px""alt=""img"">
                            </div>
                        </div>","30","","0","images/B_D_U_41_lightshift.png","","","","positive","1","B","D","U","lightshift","",""
"","","","","","html-slider-response","100","1501096","0.0-94.0","t68la0ht6c","3","NaN","<div style=""width:500px;"">
                            <p style=""font-size:50px; font-weight:bold;""
                            >positive</p>
                            <div style=""width:240px; margin: auto;"">
                                <img src=""images/Y_D_U_7_darkshift.png"" style= ""width:200px""alt=""img"">
                            </div>
                        </div>","-200","","0","images/Y_D_U_7_darkshift.png","","","","positive","1","Y","D","U","darkshift","",""
"","","","","","html-slider-response","101","1502923","0.0-95.0","t68la0ht6c","3","NaN","<div style=""width:500px;"">
                            <p style=""font-size:50px; font-weight:bold;""
                            >positive</p>
                            <div style=""width:240px; margin: auto;"">
                                <img src=""images/R_D_S_13_lightshift.png"" style= ""width:200px""alt=""img"">
                            </div>
                        </div>","110","","0","images/R_D_S_13_lightshift.png","","","","positive","2","R","D","S","lightshift","",""
"","","","","","html-slider-response","102","1505983","0.0-96.0","t68la0ht6c","3","NaN","<div style=""width:500px;"">
                            <p style=""font-size:50px; font-weight:bold;""
                            >positive</p>
                            <div style=""width:240px; margin: auto;"">
                                <img src=""images/Y_L_U_2_lightshift.png"" style= ""width:200px""alt=""img"">
                            </div>
                        </div>","183","","0","images/Y_L_U_2_lightshift.png","","","","positive","1","Y","L","U","lightshift","",""
"","","","","","html-slider-response","103","1508127","0.0-97.0","t68la0ht6c","3","NaN","<div style=""width:500px;"">
                            <p style=""font-size:50px; font-weight:bold;""
                            >positive</p>
                            <div style=""width:240px; margin: auto;"">
                                <img src=""images/Y_L_U_2_darkshift.png"" style= ""width:200px""alt=""img"">
                            </div>
                        </div>","-70","","0","images/Y_L_U_2_darkshift.png","","","","positive","1","Y","L","U","darkshift","",""
"","","","","","html-slider-response","104","1511092","0.0-98.0","t68la0ht6c","3","NaN","<div style=""width:500px;"">
                            <p style=""font-size:50px; font-weight:bold;""
                            >positive</p>
                            <div style=""width:240px; margin: auto;"">
                                <img src=""images/R_D_U_15_darkshift.png"" style= ""width:200px""alt=""img"">
                            </div>
                        </div>","-34","","0","images/R_D_U_15_darkshift.png","","","","positive","1","R","D","U","darkshift","",""
"","","","","","html-slider-response","105","1512595","0.0-99.0","t68la0ht6c","3","NaN","<div style=""width:500px;"">
                            <p style=""font-size:50px; font-weight:bold;""
                            >positive</p>
                            <div style=""width:240px; margin: auto;"">
                                <img src=""images/B_D_U_41_darkshift.png"" style= ""width:200px""alt=""img"">
                            </div>
                        </div>","29","","0","images/B_D_U_41_darkshift.png","","","","positive","1","B","D","U","darkshift","",""
"","","","","","html-slider-response","106","1514534","0.0-100.0","t68la0ht6c","3","NaN","<div style=""width:500px;"">
                            <p style=""font-size:50px; font-weight:bold;""
                            >positive</p>
                            <div style=""width:240px; margin: auto;"">
                                <img src=""images/G_L_U_26_lightshift.png"" style= ""width:200px""alt=""img"">
                            </div>
                        </div>","150","","0","images/G_L_U_26_lightshift.png","","","","positive","1","G","L","U","lightshift","",""
"","","","","","html-slider-response","107","1516277","0.0-101.0","t68la0ht6c","3","NaN","<div style=""width:500px;"">
                            <p style=""font-size:50px; font-weight:bold;""
                            >positive</p>
                            <div style=""width:240px; margin: auto;"">
                                <img src=""images/R_L_U_12_darkshift.png"" style= ""width:200px""alt=""img"">
                            </div>
                        </div>","154","","0","images/R_L_U_12_darkshift.png","","","","positive","2","R","L","U","darkshift","",""
"","","","","","html-slider-response","108","1518289","0.0-102.0","t68la0ht6c","3","NaN","<div style=""width:500px;"">
                            <p style=""font-size:50px; font-weight:bold;""
                            >positive</p>
                            <div style=""width:240px; margin: auto;"">
                                <img src=""images/G_L_S_23_lightshift.png"" style= ""width:200px""alt=""img"">
                            </div>
                        </div>","183","","0","images/G_L_S_23_lightshift.png","","","","positive","2","G","L","S","lightshift","",""
"","","","","","html-slider-response","109","1520189","0.0-103.0","t68la0ht6c","3","NaN","<div style=""width:500px;"">
                            <p style=""font-size:50px; font-weight:bold;""
                            >positive</p>
                            <div style=""width:240px; margin: auto;"">
                                <img src=""images/R_L_S_10_darkshift.png"" style= ""width:200px""alt=""img"">
                            </div>
                        </div>","162","","0","images/R_L_S_10_darkshift.png","","","","positive","2","R","L","S","darkshift","",""
"","","","","","html-slider-response","110","1522191","0.0-104.0","t68la0ht6c","3","NaN","<div style=""width:500px;"">
                            <p style=""font-size:50px; font-weight:bold;""
                            >positive</p>
                            <div style=""width:240px; margin: auto;"">
                                <img src=""images/B_D_U_41_darkshift.png"" style= ""width:200px""alt=""img"">
                            </div>
                        </div>","111","","0","images/B_D_U_41_darkshift.png","","","","positive","2","B","D","U","darkshift","",""
"","","","","","html-slider-response","111","1523831","0.0-105.0","t68la0ht6c","3","NaN","<div style=""width:500px;"">
                            <p style=""font-size:50px; font-weight:bold;""
                            >positive</p>
                            <div style=""width:240px; margin: auto;"">
                                <img src=""images/B_L_S_30_darkshift.png"" style= ""width:200px""alt=""img"">
                            </div>
                        </div>","200","","0","images/B_L_S_30_darkshift.png","","","","positive","1","B","L","S","darkshift","",""
"","","","","","html-slider-response","112","1525744","0.0-106.0","t68la0ht6c","3","NaN","<div style=""width:500px;"">
                            <p style=""font-size:50px; font-weight:bold;""
                            >positive</p>
                            <div style=""width:240px; margin: auto;"">
                                <img src=""images/Y_D_U_7_darkshift.png"" style= ""width:200px""alt=""img"">
                            </div>
                        </div>","-190","","0","images/Y_D_U_7_darkshift.png","","","","positive","2","Y","D","U","darkshift","",""
"","","","","","html-slider-response","113","1527755","0.0-107.0","t68la0ht6c","3","NaN","<div style=""width:500px;"">
                            <p style=""font-size:50px; font-weight:bold;""
                            >positive</p>
                            <div style=""width:240px; margin: auto;"">
                                <img src=""images/G_D_U_28_lightshift.png"" style= ""width:200px""alt=""img"">
                            </div>
                        </div>","-139","","0","images/G_D_U_28_lightshift.png","","","","positive","2","G","D","U","lightshift","",""
"","","","","","html-slider-response","114","1529409","0.0-108.0","t68la0ht6c","3","NaN","<div style=""width:500px;"">
                            <p style=""font-size:50px; font-weight:bold;""
                            >positive</p>
                            <div style=""width:240px; margin: auto;"">
                                <img src=""images/B_D_S_37_lightshift.png"" style= ""width:200px""alt=""img"">
                            </div>
                        </div>","200","","0","images/B_D_S_37_lightshift.png","","","","positive","1","B","D","S","lightshift","",""
"","","","","","html-slider-response","115","1531140","0.0-109.0","t68la0ht6c","3","NaN","<div style=""width:500px;"">
                            <p style=""font-size:50px; font-weight:bold;""
                            >positive</p>
                            <div style=""width:240px; margin: auto;"">
                                <img src=""images/B_L_S_30_darkshift.png"" style= ""width:200px""alt=""img"">
                            </div>
                        </div>","200","","0","images/B_L_S_30_darkshift.png","","","","positive","2","B","L","S","darkshift","",""
"","","","","","html-slider-response","116","1533097","0.0-110.0","t68la0ht6c","3","NaN","<div style=""width:500px;"">
                            <p style=""font-size:50px; font-weight:bold;""
                            >positive</p>
                            <div style=""width:240px; margin: auto;"">
                                <img src=""images/Y_L_U_2_darkshift.png"" style= ""width:200px""alt=""img"">
                            </div>
                        </div>","68","","0","images/Y_L_U_2_darkshift.png","","","","positive","2","Y","L","U","darkshift","",""
"","","","","","html-slider-response","117","1534848","0.0-111.0","t68la0ht6c","3","NaN","<div style=""width:500px;"">
                            <p style=""font-size:50px; font-weight:bold;""
                            >positive</p>
                            <div style=""width:240px; margin: auto;"">
                                <img src=""images/G_D_S_27_darkshift.png"" style= ""width:200px""alt=""img"">
                            </div>
                        </div>","-66","","0","images/G_D_S_27_darkshift.png","","","","positive","2","G","D","S","darkshift","",""
"","","","","","html-slider-response","118","1537240","0.0-112.0","t68la0ht6c","3","NaN","<div style=""width:500px;"">
                            <p style=""font-size:50px; font-weight:bold;""
                            >positive</p>
                            <div style=""width:240px; margin: auto;"">
                                <img src=""images/G_D_S_27_lightshift.png"" style= ""width:200px""alt=""img"">
                            </div>
                        </div>","-118","","0","images/G_D_S_27_lightshift.png","","","","positive","2","G","D","S","lightshift","",""
"","","","","","html-slider-response","119","1539156","0.0-113.0","t68la0ht6c","3","NaN","<div style=""width:500px;"">
                            <p style=""font-size:50px; font-weight:bold;""
                            >positive</p>
                            <div style=""width:240px; margin: auto;"">
                                <img src=""images/B_L_U_33_lightshift.png"" style= ""width:200px""alt=""img"">
                            </div>
                        </div>","169","","0","images/B_L_U_33_lightshift.png","","","","positive","1","B","L","U","lightshift","",""
"","","","","","html-slider-response","120","1541101","0.0-114.0","t68la0ht6c","3","NaN","<div style=""width:500px;"">
                            <p style=""font-size:50px; font-weight:bold;""
                            >positive</p>
                            <div style=""width:240px; margin: auto;"">
                                <img src=""images/R_D_S_13_darkshift.png"" style= ""width:200px""alt=""img"">
                            </div>
                        </div>","200","","0","images/R_D_S_13_darkshift.png","","","","positive","1","R","D","S","darkshift","",""
"","","","","","html-slider-response","121","1542808","0.0-115.0","t68la0ht6c","3","NaN","<div style=""width:500px;"">
                            <p style=""font-size:50px; font-weight:bold;""
                            >positive</p>
                            <div style=""width:240px; margin: auto;"">
                                <img src=""images/B_L_U_33_lightshift.png"" style= ""width:200px""alt=""img"">
                            </div>
                        </div>","200","","0","images/B_L_U_33_lightshift.png","","","","positive","2","B","L","U","lightshift","",""
"","","","","","html-slider-response","122","1545058","0.0-116.0","t68la0ht6c","3","NaN","<div style=""width:500px;"">
                            <p style=""font-size:50px; font-weight:bold;""
                            >positive</p>
                            <div style=""width:240px; margin: auto;"">
                                <img src=""images/Y_D_S_5_darkshift.png"" style= ""width:200px""alt=""img"">
                            </div>
                        </div>","-200","","0","images/Y_D_S_5_darkshift.png","","","","positive","1","Y","D","S","darkshift","",""
"","","","","","html-slider-response","123","1546759","0.0-117.0","t68la0ht6c","3","NaN","<div style=""width:500px;"">
                            <p style=""font-size:50px; font-weight:bold;""
                            >positive</p>
                            <div style=""width:240px; margin: auto;"">
                                <img src=""images/Y_L_U_2_lightshift.png"" style= ""width:200px""alt=""img"">
                            </div>
                        </div>","200","","0","images/Y_L_U_2_lightshift.png","","","","positive","2","Y","L","U","lightshift","",""
"","","","","","html-slider-response","124","1548360","0.0-118.0","t68la0ht6c","3","NaN","<div style=""width:500px;"">
                            <p style=""font-size:50px; font-weight:bold;""
                            >positive</p>
                            <div style=""width:240px; margin: auto;"">
                                <img src=""images/Y_D_S_5_darkshift.png"" style= ""width:200px""alt=""img"">
                            </div>
                        </div>","-200","","0","images/Y_D_S_5_darkshift.png","","","","positive","2","Y","D","S","darkshift","",""
"","","","","","html-slider-response","125","1549808","0.0-119.0","t68la0ht6c","3","NaN","<div style=""width:500px;"">
                            <p style=""font-size:50px; font-weight:bold;""
                            >positive</p>
                            <div style=""width:240px; margin: auto;"">
                                <img src=""images/Y_D_S_5_lightshift.png"" style= ""width:200px""alt=""img"">
                            </div>
                        </div>","-128","","0","images/Y_D_S_5_lightshift.png","","","","positive","1","Y","D","S","lightshift","",""
"","","","","","html-slider-response","126","1551614","0.0-120.0","t68la0ht6c","3","NaN","<div style=""width:500px;"">
                            <p style=""font-size:50px; font-weight:bold;""
                            >positive</p>
                            <div style=""width:240px; margin: auto;"">
                                <img src=""images/B_L_U_33_darkshift.png"" style= ""width:200px""alt=""img"">
                            </div>
                        </div>","-41","","0","images/B_L_U_33_darkshift.png","","","","positive","2","B","L","U","darkshift","",""
"","","","","","html-slider-response","127","1553289","0.0-121.0","t68la0ht6c","3","NaN","<div style=""width:500px;"">
                            <p style=""font-size:50px; font-weight:bold;""
                            >positive</p>
                            <div style=""width:240px; margin: auto;"">
                                <img src=""images/Y_D_U_7_lightshift.png"" style= ""width:200px""alt=""img"">
                            </div>
                        </div>","-200","","0","images/Y_D_U_7_lightshift.png","","","","positive","1","Y","D","U","lightshift","",""
"","","","","","html-slider-response","128","1555112","0.0-122.0","t68la0ht6c","3","NaN","<div style=""width:500px;"">
                            <p style=""font-size:50px; font-weight:bold;""
                            >positive</p>
                            <div style=""width:240px; margin: auto;"">
                                <img src=""images/G_L_S_23_darkshift.png"" style= ""width:200px""alt=""img"">
                            </div>
                        </div>","25","","0","images/G_L_S_23_darkshift.png","","","","positive","2","G","L","S","darkshift","",""
"","","","","","html-slider-response","129","1556618","0.0-123.0","t68la0ht6c","3","NaN","<div style=""width:500px;"">
                            <p style=""font-size:50px; font-weight:bold;""
                            >positive</p>
                            <div style=""width:240px; margin: auto;"">
                                <img src=""images/R_L_S_10_lightshift.png"" style= ""width:200px""alt=""img"">
                            </div>
                        </div>","186","","0","images/R_L_S_10_lightshift.png","","","","positive","1","R","L","S","lightshift","",""
"","","","","","html-slider-response","130","1558187","0.0-124.0","t68la0ht6c","3","NaN","<div style=""width:500px;"">
                            <p style=""font-size:50px; font-weight:bold;""
                            >positive</p>
                            <div style=""width:240px; margin: auto;"">
                                <img src=""images/G_L_U_26_darkshift.png"" style= ""width:200px""alt=""img"">
                            </div>
                        </div>","39","","0","images/G_L_U_26_darkshift.png","","","","positive","1","G","L","U","darkshift","",""
"","","","","","html-slider-response","131","1559802","0.0-125.0","t68la0ht6c","3","NaN","<div style=""width:500px;"">
                            <p style=""font-size:50px; font-weight:bold;""
                            >positive</p>
                            <div style=""width:240px; margin: auto;"">
                                <img src=""images/B_D_S_37_darkshift.png"" style= ""width:200px""alt=""img"">
                            </div>
                        </div>","200","","0","images/B_D_S_37_darkshift.png","","","","positive","1","B","D","S","darkshift","",""
"","","","","","html-slider-response","132","1561653","0.0-126.0","t68la0ht6c","3","NaN","<div style=""width:500px;"">
                            <p style=""font-size:50px; font-weight:bold;""
                            >positive</p>
                            <div style=""width:240px; margin: auto;"">
                                <img src=""images/G_D_U_28_darkshift.png"" style= ""width:200px""alt=""img"">
                            </div>
                        </div>","-200","","0","images/G_D_U_28_darkshift.png","","","","positive","2","G","D","U","darkshift","",""
"","","","","","html-slider-response","133","1563212","0.0-127.0","t68la0ht6c","3","NaN","<div style=""width:500px;"">
                            <p style=""font-size:50px; font-weight:bold;""
                            >positive</p>
                            <div style=""width:240px; margin: auto;"">
                                <img src=""images/B_D_S_37_darkshift.png"" style= ""width:200px""alt=""img"">
                            </div>
                        </div>","200","","0","images/B_D_S_37_darkshift.png","","","","positive","2","B","D","S","darkshift","",""
"","","","","","html-slider-response","134","1565159","0.0-128.0","t68la0ht6c","3","NaN","<div style=""width:500px;"">
                            <p style=""font-size:50px; font-weight:bold;""
                            >positive</p>
                            <div style=""width:240px; margin: auto;"">
                                <img src=""images/R_D_U_15_lightshift.png"" style= ""width:200px""alt=""img"">
                            </div>
                        </div>","-86","","0","images/R_D_U_15_lightshift.png","","","","positive","1","R","D","U","lightshift","",""
"","","","","","html-slider-response","135","1566886","0.0-129.0","t68la0ht6c","3","NaN","<div style=""width:500px;"">
                            <p style=""font-size:50px; font-weight:bold;""
                            >positive</p>
                            <div style=""width:240px; margin: auto;"">
                                <img src=""images/Y_L_S_44_lightshift.png"" style= ""width:200px""alt=""img"">
                            </div>
                        </div>","200","","0","images/Y_L_S_44_lightshift.png","","","","positive","1","Y","L","S","lightshift","",""
"","","","","","html-slider-response","136","1568337","0.0-130.0","t68la0ht6c","3","NaN","<div style=""width:500px;"">
                            <p style=""font-size:50px; font-weight:bold;""
                            >positive</p>
                            <div style=""width:240px; margin: auto;"">
                                <img src=""images/B_L_S_30_lightshift.png"" style= ""width:200px""alt=""img"">
                            </div>
                        </div>","200","","0","images/B_L_S_30_lightshift.png","","","","positive","2","B","L","S","lightshift","",""
"","","","","","html-slider-response","137","1569889","0.0-131.0","t68la0ht6c","3","NaN","<div style=""width:500px;"">
                            <p style=""font-size:50px; font-weight:bold;""
                            >positive</p>
                            <div style=""width:240px; margin: auto;"">
                                <img src=""images/Y_L_S_44_lightshift.png"" style= ""width:200px""alt=""img"">
                            </div>
                        </div>","200","","0","images/Y_L_S_44_lightshift.png","","","","positive","2","Y","L","S","lightshift","",""
"","","","","","html-slider-response","138","1571739","0.0-132.0","t68la0ht6c","3","NaN","<div style=""width:500px;"">
                            <p style=""font-size:50px; font-weight:bold;""
                            >positive</p>
                            <div style=""width:240px; margin: auto;"">
                                <img src=""images/B_L_U_33_darkshift.png"" style= ""width:200px""alt=""img"">
                            </div>
                        </div>","200","","0","images/B_L_U_33_darkshift.png","","","","positive","1","B","L","U","darkshift","",""
"","","","","","html-slider-response","139","1574259","0.0-133.0","t68la0ht6c","3","NaN","<div style=""width:500px;"">
                            <p style=""font-size:50px; font-weight:bold;""
                            >positive</p>
                            <div style=""width:240px; margin: auto;"">
                                <img src=""images/R_D_U_15_lightshift.png"" style= ""width:200px""alt=""img"">
                            </div>
                        </div>","-91","","0","images/R_D_U_15_lightshift.png","","","","positive","2","R","D","U","lightshift","",""
"","","","","","html-slider-response","140","1575993","0.0-134.0","t68la0ht6c","3","NaN","<div style=""width:500px;"">
                            <p style=""font-size:50px; font-weight:bold;""
                            >positive</p>
                            <div style=""width:240px; margin: auto;"">
                                <img src=""images/R_D_S_13_darkshift.png"" style= ""width:200px""alt=""img"">
                            </div>
                        </div>","200","","0","images/R_D_S_13_darkshift.png","","","","positive","2","R","D","S","darkshift","",""
"","","","","","html-slider-response","141","1578023","0.0-135.0","t68la0ht6c","3","NaN","<div style=""width:500px;"">
                            <p style=""font-size:50px; font-weight:bold;""
                            >positive</p>
                            <div style=""width:240px; margin: auto;"">
                                <img src=""images/G_L_S_23_darkshift.png"" style= ""width:200px""alt=""img"">
                            </div>
                        </div>","200","","0","images/G_L_S_23_darkshift.png","","","","positive","1","G","L","S","darkshift","",""
"","","","","","html-slider-response","142","1581991","0.0-136.0","t68la0ht6c","3","NaN","<div style=""width:500px;"">
                            <p style=""font-size:50px; font-weight:bold;""
                            >positive</p>
                            <div style=""width:240px; margin: auto;"">
                                <img src=""images/G_D_U_28_darkshift.png"" style= ""width:200px""alt=""img"">
                            </div>
                        </div>","-62","","0","images/G_D_U_28_darkshift.png","","","","positive","1","G","D","U","darkshift","",""
"","","","","","html-slider-response","143","1583724","0.0-137.0","t68la0ht6c","3","NaN","<div style=""width:500px;"">
                            <p style=""font-size:50px; font-weight:bold;""
                            >positive</p>
                            <div style=""width:240px; margin: auto;"">
                                <img src=""images/G_D_S_27_darkshift.png"" style= ""width:200px""alt=""img"">
                            </div>
                        </div>","-70","","0","images/G_D_S_27_darkshift.png","","","","positive","1","G","D","S","darkshift","",""
"","","","","","html-slider-response","144","1586115","0.0-138.0","t68la0ht6c","3","NaN","<div style=""width:500px;"">
                            <p style=""font-size:50px; font-weight:bold;""
                            >positive</p>
                            <div style=""width:240px; margin: auto;"">
                                <img src=""images/R_L_U_12_lightshift.png"" style= ""width:200px""alt=""img"">
                            </div>
                        </div>","79","","0","images/R_L_U_12_lightshift.png","","","","positive","2","R","L","U","lightshift","",""
"","","","","","html-slider-response","145","1587725","0.0-139.0","t68la0ht6c","3","NaN","<div style=""width:500px;"">
                            <p style=""font-size:50px; font-weight:bold;""
                            >positive</p>
                            <div style=""width:240px; margin: auto;"">
                                <img src=""images/Y_D_U_7_lightshift.png"" style= ""width:200px""alt=""img"">
                            </div>
                        </div>","-200","","0","images/Y_D_U_7_lightshift.png","","","","positive","2","Y","D","U","lightshift","",""
"","","","","","html-slider-response","146","1589529","0.0-140.0","t68la0ht6c","3","NaN","<div style=""width:500px;"">
                            <p style=""font-size:50px; font-weight:bold;""
                            >positive</p>
                            <div style=""width:240px; margin: auto;"">
                                <img src=""images/R_D_S_13_lightshift.png"" style= ""width:200px""alt=""img"">
                            </div>
                        </div>","122","","0","images/R_D_S_13_lightshift.png","","","","positive","1","R","D","S","lightshift","",""
"","","","","","html-slider-response","147","1593442","0.0-141.0","t68la0ht6c","3","NaN","<div style=""width:500px;"">
                            <p style=""font-size:50px; font-weight:bold;""
                            >positive</p>
                            <div style=""width:240px; margin: auto;"">
                                <img src=""images/G_L_U_26_darkshift.png"" style= ""width:200px""alt=""img"">
                            </div>
                        </div>","-38","","0","images/G_L_U_26_darkshift.png","","","","positive","2","G","L","U","darkshift","",""
"","","","","","html-slider-response","148","1595110","0.0-142.0","t68la0ht6c","3","NaN","<div style=""width:500px;"">
                            <p style=""font-size:50px; font-weight:bold;""
                            >positive</p>
                            <div style=""width:240px; margin: auto;"">
                                <img src=""images/G_L_U_26_lightshift.png"" style= ""width:200px""alt=""img"">
                            </div>
                        </div>","98","","0","images/G_L_U_26_lightshift.png","","","","positive","2","G","L","U","lightshift","",""
"","","","","","html-slider-response","149","1596660","0.0-143.0","t68la0ht6c","3","NaN","<div style=""width:500px;"">
                            <p style=""font-size:50px; font-weight:bold;""
                            >positive</p>
                            <div style=""width:240px; margin: auto;"">
                                <img src=""images/R_L_S_10_lightshift.png"" style= ""width:200px""alt=""img"">
                            </div>
                        </div>","181","","0","images/R_L_S_10_lightshift.png","","","","positive","2","R","L","S","lightshift","",""
"","","","","","html-button-response","150","2005095","0.0-144.0","t68la0ht6c","3","407938","<p>Great Job! You've finished block 2.<br></br> You have 2 block(s) left to go.<br></br></p>","0","","","","","","","","","","","","","",""
"","","","","","html-button-response","151","2006508","0.0-145.0","t68la0ht6c","3","1411","<p>In this block of trials, you will be asked to rate how much you associate each map with:</p > <p style = 'font-size:150%; font-weight: bold'>calm</p><br></br>","0","","","","","","","","","","","","","",""
"","","","","","html-slider-response","152","2008316","0.0-146.0","t68la0ht6c","3","NaN","<div style=""width:500px;"">
                            <p style=""font-size:50px; font-weight:bold;""
                            >calm</p>
                            <div style=""width:240px; margin: auto;"">
                                <img src=""images/G_L_U_26_darkshift.png"" style= ""width:200px""alt=""img"">
                            </div>
                        </div>","178","","0","images/G_L_U_26_darkshift.png","","","","calm","2","G","L","U","darkshift","",""
"","","","","","html-slider-response","153","2009944","0.0-147.0","t68la0ht6c","3","NaN","<div style=""width:500px;"">
                            <p style=""font-size:50px; font-weight:bold;""
                            >calm</p>
                            <div style=""width:240px; margin: auto;"">
                                <img src=""images/R_D_S_13_darkshift.png"" style= ""width:200px""alt=""img"">
                            </div>
                        </div>","110","","0","images/R_D_S_13_darkshift.png","","","","calm","1","R","D","S","darkshift","",""
"","","","","","html-slider-response","154","2011759","0.0-148.0","t68la0ht6c","3","NaN","<div style=""width:500px;"">
                            <p style=""font-size:50px; font-weight:bold;""
                            >calm</p>
                            <div style=""width:240px; margin: auto;"">
                                <img src=""images/G_D_S_27_darkshift.png"" style= ""width:200px""alt=""img"">
                            </div>
                        </div>","200","","0","images/G_D_S_27_darkshift.png","","","","calm","2","G","D","S","darkshift","",""
"","","","","","html-slider-response","155","2013444","0.0-149.0","t68la0ht6c","3","NaN","<div style=""width:500px;"">
                            <p style=""font-size:50px; font-weight:bold;""
                            >calm</p>
                            <div style=""width:240px; margin: auto;"">
                                <img src=""images/R_D_S_13_lightshift.png"" style= ""width:200px""alt=""img"">
                            </div>
                        </div>","-198","","0","images/R_D_S_13_lightshift.png","","","","calm","1","R","D","S","lightshift","",""
"","","","","","html-slider-response","156","2015503","0.0-150.0","t68la0ht6c","3","NaN","<div style=""width:500px;"">
                            <p style=""font-size:50px; font-weight:bold;""
                            >calm</p>
                            <div style=""width:240px; margin: auto;"">
                                <img src=""images/Y_L_U_2_lightshift.png"" style= ""width:200px""alt=""img"">
                            </div>
                        </div>","-200","","0","images/Y_L_U_2_lightshift.png","","","","calm","2","Y","L","U","lightshift","",""
"","","","","","html-slider-response","157","2017465","0.0-151.0","t68la0ht6c","3","NaN","<div style=""width:500px;"">
                            <p style=""font-size:50px; font-weight:bold;""
                            >calm</p>
                            <div style=""width:240px; margin: auto;"">
                                <img src=""images/B_D_U_41_lightshift.png"" style= ""width:200px""alt=""img"">
                            </div>
                        </div>","39","","0","images/B_D_U_41_lightshift.png","","","","calm","1","B","D","U","lightshift","",""
"","","","","","html-slider-response","158","2018781","0.0-152.0","t68la0ht6c","3","NaN","<div style=""width:500px;"">
                            <p style=""font-size:50px; font-weight:bold;""
                            >calm</p>
                            <div style=""width:240px; margin: auto;"">
                                <img src=""images/B_D_U_41_darkshift.png"" style= ""width:200px""alt=""img"">
                            </div>
                        </div>","200","","0","images/B_D_U_41_darkshift.png","","","","calm","2","B","D","U","darkshift","",""
"","","","","","html-slider-response","159","2021088","0.0-153.0","t68la0ht6c","3","NaN","<div style=""width:500px;"">
                            <p style=""font-size:50px; font-weight:bold;""
                            >calm</p>
                            <div style=""width:240px; margin: auto;"">
                                <img src=""images/B_D_S_37_darkshift.png"" style= ""width:200px""alt=""img"">
                            </div>
                        </div>","-24","","0","images/B_D_S_37_darkshift.png","","","","calm","1","B","D","S","darkshift","",""
"","","","","","html-slider-response","160","2022713","0.0-154.0","t68la0ht6c","3","NaN","<div style=""width:500px;"">
                            <p style=""font-size:50px; font-weight:bold;""
                            >calm</p>
                            <div style=""width:240px; margin: auto;"">
                                <img src=""images/B_L_U_33_lightshift.png"" style= ""width:200px""alt=""img"">
                            </div>
                        </div>","-200","","0","images/B_L_U_33_lightshift.png","","","","calm","2","B","L","U","lightshift","",""
"","","","","","html-slider-response","161","2024961","0.0-155.0","t68la0ht6c","3","NaN","<div style=""width:500px;"">
                            <p style=""font-size:50px; font-weight:bold;""
                            >calm</p>
                            <div style=""width:240px; margin: auto;"">
                                <img src=""images/R_D_S_13_darkshift.png"" style= ""width:200px""alt=""img"">
                            </div>
                        </div>","117","","0","images/R_D_S_13_darkshift.png","","","","calm","2","R","D","S","darkshift","",""
"","","","","","html-slider-response","162","2025824","0.0-156.0","t68la0ht6c","3","NaN","<div style=""width:500px;"">
                            <p style=""font-size:50px; font-weight:bold;""
                            >calm</p>
                            <div style=""width:240px; margin: auto;"">
                                <img src=""images/R_L_U_12_lightshift.png"" style= ""width:200px""alt=""img"">
                            </div>
                        </div>","64","","0","images/R_L_U_12_lightshift.png","","","","calm","1","R","L","U","lightshift","",""
"","","","","","html-slider-response","163","2028651","0.0-157.0","t68la0ht6c","3","NaN","<div style=""width:500px;"">
                            <p style=""font-size:50px; font-weight:bold;""
                            >calm</p>
                            <div style=""width:240px; margin: auto;"">
                                <img src=""images/G_L_S_23_lightshift.png"" style= ""width:200px""alt=""img"">
                            </div>
                        </div>","-61","","0","images/G_L_S_23_lightshift.png","","","","calm","2","G","L","S","lightshift","",""
"","","","","","html-slider-response","164","2030949","0.0-158.0","t68la0ht6c","3","NaN","<div style=""width:500px;"">
                            <p style=""font-size:50px; font-weight:bold;""
                            >calm</p>
                            <div style=""width:240px; margin: auto;"">
                                <img src=""images/Y_D_S_5_darkshift.png"" style= ""width:200px""alt=""img"">
                            </div>
                        </div>","173","","0","images/Y_D_S_5_darkshift.png","","","","calm","1","Y","D","S","darkshift","",""
"","","","","","html-slider-response","165","2032724","0.0-159.0","t68la0ht6c","3","NaN","<div style=""width:500px;"">
                            <p style=""font-size:50px; font-weight:bold;""
                            >calm</p>
                            <div style=""width:240px; margin: auto;"">
                                <img src=""images/Y_L_U_2_lightshift.png"" style= ""width:200px""alt=""img"">
                            </div>
                        </div>","-181","","0","images/Y_L_U_2_lightshift.png","","","","calm","1","Y","L","U","lightshift","",""
"","","","","","html-slider-response","166","2035935","0.0-160.0","t68la0ht6c","3","NaN","<div style=""width:500px;"">
                            <p style=""font-size:50px; font-weight:bold;""
                            >calm</p>
                            <div style=""width:240px; margin: auto;"">
                                <img src=""images/R_D_U_15_lightshift.png"" style= ""width:200px""alt=""img"">
                            </div>
                        </div>","-44","","0","images/R_D_U_15_lightshift.png","","","","calm","2","R","D","U","lightshift","",""
"","","","","","html-slider-response","167","2037801","0.0-161.0","t68la0ht6c","3","NaN","<div style=""width:500px;"">
                            <p style=""font-size:50px; font-weight:bold;""
                            >calm</p>
                            <div style=""width:240px; margin: auto;"">
                                <img src=""images/G_D_S_27_lightshift.png"" style= ""width:200px""alt=""img"">
                            </div>
                        </div>","-59","","0","images/G_D_S_27_lightshift.png","","","","calm","1","G","D","S","lightshift","",""
"","","","","","html-slider-response","168","2039386","0.0-162.0","t68la0ht6c","3","NaN","<div style=""width:500px;"">
                            <p style=""font-size:50px; font-weight:bold;""
                            >calm</p>
                            <div style=""width:240px; margin: auto;"">
                                <img src=""images/B_L_S_30_darkshift.png"" style= ""width:200px""alt=""img"">
                            </div>
                        </div>","-62","","0","images/B_L_S_30_darkshift.png","","","","calm","1","B","L","S","darkshift","",""
"","","","","","html-slider-response","169","2041439","0.0-163.0","t68la0ht6c","3","NaN","<div style=""width:500px;"">
                            <p style=""font-size:50px; font-weight:bold;""
                            >calm</p>
                            <div style=""width:240px; margin: auto;"">
                                <img src=""images/Y_L_S_44_darkshift.png"" style= ""width:200px""alt=""img"">
                            </div>
                        </div>","-137","","0","images/Y_L_S_44_darkshift.png","","","","calm","1","Y","L","S","darkshift","",""
"","","","","","html-slider-response","170","2042975","0.0-164.0","t68la0ht6c","3","NaN","<div style=""width:500px;"">
                            <p style=""font-size:50px; font-weight:bold;""
                            >calm</p>
                            <div style=""width:240px; margin: auto;"">
                                <img src=""images/R_L_S_10_lightshift.png"" style= ""width:200px""alt=""img"">
                            </div>
                        </div>","-160","","0","images/R_L_S_10_lightshift.png","","","","calm","2","R","L","S","lightshift","",""
"","","","","","html-slider-response","171","2045629","0.0-165.0","t68la0ht6c","3","NaN","<div style=""width:500px;"">
                            <p style=""font-size:50px; font-weight:bold;""
                            >calm</p>
                            <div style=""width:240px; margin: auto;"">
                                <img src=""images/Y_D_S_5_lightshift.png"" style= ""width:200px""alt=""img"">
                            </div>
                        </div>","139","","0","images/Y_D_S_5_lightshift.png","","","","calm","1","Y","D","S","lightshift","",""
"","","","","","html-slider-response","172","2047214","0.0-166.0","t68la0ht6c","3","NaN","<div style=""width:500px;"">
                            <p style=""font-size:50px; font-weight:bold;""
                            >calm</p>
                            <div style=""width:240px; margin: auto;"">
                                <img src=""images/G_D_U_28_lightshift.png"" style= ""width:200px""alt=""img"">
                            </div>
                        </div>","118","","0","images/G_D_U_28_lightshift.png","","","","calm","1","G","D","U","lightshift","",""
"","","","","","html-slider-response","173","2048939","0.0-167.0","t68la0ht6c","3","NaN","<div style=""width:500px;"">
                            <p style=""font-size:50px; font-weight:bold;""
                            >calm</p>
                            <div style=""width:240px; margin: auto;"">
                                <img src=""images/R_L_U_12_lightshift.png"" style= ""width:200px""alt=""img"">
                            </div>
