"success","timeout","failed_images","failed_audio","failed_video","trial_type","trial_index","time_elapsed","internal_node_id","subject_id","condition_num","rt","stimulus","response","question_order","slider_start","image_path","practiceTrial","practiceTrialNum","correct","concept","repetition","hue","lightness","saturation","shift","ishihara_plate","correct_response"
"true","false","[]","[]","[]","preload","0","509","0.0-0.0","t7fxkcz3dr","1","","","","","","","","","","","","","","","","",""
"","","","","","html-button-response","1","4315","0.0-1.0","t7fxkcz3dr","1","3805","Welcome to our experiment!<p>At the bottom of this screen, you will see a button that says ""Begin Experiment"".<br>Please only click that button when you are ready to complete the 25 minute experiment in one sitting.</p><p> Once you click that button, it will not be possible to restart the experiment.","0","","","","","","","","","","","","","",""
"true","","","","","fullscreen","2","6833","0.0-2.0","t7fxkcz3dr","1","1514","","","","","","","","","","","","","","","",""
"","","","","","survey-multi-select","3","39323","0.0-3.0","t7fxkcz3dr","1","32484","","{""Consent"":[""<strong>I consent</strong>""]}","[0]","","","","","","","","","","","","",""
"","","","","","html-button-response","4","42046","0.0-4.0","t7fxkcz3dr","1","2722","Welcome! <p> This experiment involves two parts: demographic information, followed by the experimental task.<p> It will take about 25 minutes to complete both parts.","0","","","","","","","","","","","","","",""
"","","","","","survey-text","5","53112","0.0-5.0","t7fxkcz3dr","1","11056","","{""Age"":""19"",""Gender"":""female"",""Race/ethnicity"":""white"",""Languages"":""spanish and English""}","","","","","","","","","","","","","",""
"","","","","","html-slider-response","6","107096","0.0-6.0","t7fxkcz3dr","1","53982","
                            <div style='text-align:left; font-size:20px; line-height:25px; width: 1400px;'>
                                During this experiment you will be asked to rate how much you associate maps with                    different concepts.<br> Below, you can see some examples of the maps you will be asked to rate. Next to the maps
                    is the list of concepts.<br>You will be asked                    to rate how much you associate each map with each concept on a scale from 'not at all' to 'very much' like the
                    one below. <br><br>
                    Now, please look at the list of concepts and maps. For each concept, think about the map you associate 'very
                    much' with the concept.<br>                     When you see that map during the experiment, please rate it near the 'very much' endpoint of the
                    scale.<br>Now, please think about which map you associate 'not at all'                     with each concept. When you see that map during the experiment, please rate it near the 'not at all' endpoint
                    of the scale.<br>
                    Please use the full range of the scale. That is, if a map is somewhat associated with the concept, you would
                    click partway between the middle point and right side of the scale.                    You will be asked to rate each map for a given concept before moving on to the next concept.<br><br>Press the
                    'Continue' button for instructions on how to use the slider.                    <br><br>
                </div>

                <div style=""width: 500px; margin: 0 auto;"">
                    <!-- Centered text paragraphs -->
                    <div style=""text-align: center; width: 500px;"">
                        <p style=""font-size:25px; line-height:18px;"">calm</p>
                        <p style=""font-size:25px; line-height:18px;"">positive</p>
                        <p style=""font-size:25px;line-height:18px;"">negative</p>
                        <p style=""font-size:25px;line-height:18px;"">startling</p>
                    </div>

                    <!-- Grid section -->
                   <div style=""display: flex; justify-content: center; padding-top: 15px;"">
                    <div style=""display: grid; grid-template-columns: repeat(8, 80px); grid-gap: 5px; width: auto;"">
                        <img src=""images/R_L_S_5_lightshift.png"" alt=""map"" style=""width: 100%;""><img src=""images/Y_L_U_41_darkshift.png"" alt=""map"" style=""width: 100%;""><img src=""images/G_D_U_26_darkshift.png"" alt=""map"" style=""width: 100%;""><img src=""images/G_D_U_26_lightshift.png"" alt=""map"" style=""width: 100%;""><img src=""images/B_D_S_30_darkshift.png"" alt=""map"" style=""width: 100%;""><img src=""images/R_L_U_7_darkshift.png"" alt=""map"" style=""width: 100%;""><img src=""images/G_D_S_23_darkshift.png"" alt=""map"" style=""width: 100%;""><img src=""images/Y_D_U_2_lightshift.png"" alt=""map"" style=""width: 100%;""><img src=""images/B_L_U_28_lightshift.png"" alt=""map"" style=""width: 100%;""><img src=""images/Y_D_U_2_darkshift.png"" alt=""map"" style=""width: 100%;""><img src=""images/Y_D_S_44_darkshift.png"" alt=""map"" style=""width: 100%;""><img src=""images/G_L_S_13_darkshift.png"" alt=""map"" style=""width: 100%;""><img src=""images/B_D_U_33_darkshift.png"" alt=""map"" style=""width: 100%;""><img src=""images/Y_L_S_37_lightshift.png"" alt=""map"" style=""width: 100%;""><img src=""images/B_D_U_33_lightshift.png"" alt=""map"" style=""width: 100%;""><img src=""images/R_D_U_12_darkshift.png"" alt=""map"" style=""width: 100%;""><img src=""images/R_L_S_5_darkshift.png"" alt=""map"" style=""width: 100%;""><img src=""images/Y_L_S_37_darkshift.png"" alt=""map"" style=""width: 100%;""><img src=""images/R_D_S_10_darkshift.png"" alt=""map"" style=""width: 100%;""><img src=""images/B_D_S_30_lightshift.png"" alt=""map"" style=""width: 100%;""><img src=""images/G_D_S_23_lightshift.png"" alt=""map"" style=""width: 100%;""><img src=""images/B_L_S_27_darkshift.png"" alt=""map"" style=""width: 100%;""><img src=""images/R_D_U_12_lightshift.png"" alt=""map"" style=""width: 100%;""><img src=""images/B_L_S_27_lightshift.png"" alt=""map"" style=""width: 100%;""><img src=""images/Y_D_S_44_lightshift.png"" alt=""map"" style=""width: 100%;""><img src=""images/G_L_U_15_lightshift.png"" alt=""map"" style=""width: 100%;""><img src=""images/R_L_U_7_lightshift.png"" alt=""map"" style=""width: 100%;""><img src=""images/R_D_S_10_lightshift.png"" alt=""map"" style=""width: 100%;""><img src=""images/Y_L_U_41_lightshift.png"" alt=""map"" style=""width: 100%;""><img src=""images/G_L_S_13_lightshift.png"" alt=""map"" style=""width: 100%;""><img src=""images/G_L_U_15_darkshift.png"" alt=""map"" style=""width: 100%;""><img src=""images/B_L_U_28_darkshift.png"" alt=""map"" style=""width: 100%;"">
                    </div>
                </div>

                    <!-- Clear floats -->
                    <div style=""clear: both;""></div>
                </div>
                            ","-3","","0","maps_anchoring.png","true","","","","","","","","","",""
"","","","","","html-button-response","7","118614","0.0-7.0","t7fxkcz3dr","1","11517","<div style=""width:800px;""><p style=""text-align:left"">To move the slider, click and drag your cursor to the location of the scale where you would like to make your rating and then let go. When you let go of the slider, your response will be recorded and the next trial will begin. <br>
                    We are interested in your initial impressions of each map for the given concept, so please go with your first intuition. <br>
                    Before you begin the experiment, there will be four training trials for you to practice using the scale. <br>
                     When you are ready to start the training trials, please click ""Continue"".</p><br></div>","0","","","","","","","","","","","","","",""
"","","","","","html-slider-response","8","122108","0.0-8.0-0.0","t7fxkcz3dr","1","NaN","<div style=""width:500px;"">
                                    <p style=""font-size:25px;"">Please move the slider all the way to the <br> right endpoint of the scale</p>

                                    </div>
                                </div>","200","","0","","true","0","true","","","","","","","",""
"","","","","","html-button-response","9","123864","0.0-8.0-1.0","t7fxkcz3dr","1","1254","<p align='center'><b>Good job!</b> Click on 'Continue' to proceed.</p>","0","","","","","","","","","","","","","",""
"","","","","","html-slider-response","10","126658","0.0-9.0-0.0","t7fxkcz3dr","1","NaN","<div style=""width:500px;"">
                                    <p style=""font-size:25px;"">Please move the slider all the way to the <br> left endpoint of the scale</p>

                                    </div>
                                </div>","-200","","0","","true","1","true","","","","","","","",""
"","","","","","html-button-response","11","128696","0.0-9.0-1.0","t7fxkcz3dr","1","1536","<p align='center'><b>Good job!</b> Click on 'Continue' to proceed.</p>","0","","","","","","","","","","","","","",""
"","","","","","html-slider-response","12","133476","0.0-10.0-0.0","t7fxkcz3dr","1","NaN","<div style=""width:500px;"">
                                    <p style=""font-size:25px;"">Please move the slider halfway between the center and right endpoint of the scale</p>

                                    </div>
                                </div>","110","","0","","true","2","true","","","","","","","",""
"","","","","","html-button-response","13","134879","0.0-10.0-1.0","t7fxkcz3dr","1","902","<p align='center'><b>Good job!</b> Click on 'Continue' to proceed.</p>","0","","","","","","","","","","","","","",""
"","","","","","html-slider-response","14","137209","0.0-11.0-0.0","t7fxkcz3dr","1","NaN","<div style=""width:500px;"">
                                    <p style=""font-size:25px;"">Please move the slider halfway between the center and left endpoint of the scale</p>

                                    </div>
                                </div>","-108","","0","","true","3","true","","","","","","","",""
"","","","","","html-button-response","15","138646","0.0-11.0-1.0","t7fxkcz3dr","1","936","<p align='center'><b>Good job!</b> Click on 'Continue' to proceed.</p>","0","","","","","","","","","","","","","",""
"","","","","","html-button-response","16","139863","0.0-12.0","t7fxkcz3dr","1","1217","<p>Great job! You've completed the practice trials. Now you will begin the main task.</p>","0","","","","","","","","","","","","","",""
"","","","","","html-button-response","17","143046","0.0-13.0","t7fxkcz3dr","1","3182","<p>In this block of trials, you will be asked to rate how much you associate each map with:</p > <p style = 'font-size:150%; font-weight: bold'>positive</p><br></br>","0","","","","","","","","","","","","","",""
"","","","","","html-slider-response","18","145342","0.0-14.0","t7fxkcz3dr","1","NaN","<div style=""width:500px;"">
                            <p style=""font-size:50px; font-weight:bold;""
                            >positive</p>
                            <div style=""width:240px; margin: auto;"">
                                <img src=""images/R_D_U_12_lightshift.png"" style= ""width:200px""alt=""img"">
                            </div>
                        </div>","46","","0","images/R_D_U_12_lightshift.png","","","","positive","2","R","D","U","lightshift","",""
"","","","","","html-slider-response","19","148058","0.0-15.0","t7fxkcz3dr","1","NaN","<div style=""width:500px;"">
                            <p style=""font-size:50px; font-weight:bold;""
                            >positive</p>
                            <div style=""width:240px; margin: auto;"">
                                <img src=""images/R_D_S_10_darkshift.png"" style= ""width:200px""alt=""img"">
                            </div>
                        </div>","146","","0","images/R_D_S_10_darkshift.png","","","","positive","2","R","D","S","darkshift","",""
"","","","","","html-slider-response","20","150308","0.0-16.0","t7fxkcz3dr","1","NaN","<div style=""width:500px;"">
                            <p style=""font-size:50px; font-weight:bold;""
                            >positive</p>
                            <div style=""width:240px; margin: auto;"">
                                <img src=""images/B_D_U_33_darkshift.png"" style= ""width:200px""alt=""img"">
                            </div>
                        </div>","-96","","0","images/B_D_U_33_darkshift.png","","","","positive","2","B","D","U","darkshift","",""
"","","","","","html-slider-response","21","152306","0.0-17.0","t7fxkcz3dr","1","NaN","<div style=""width:500px;"">
                            <p style=""font-size:50px; font-weight:bold;""
                            >positive</p>
                            <div style=""width:240px; margin: auto;"">
                                <img src=""images/B_L_S_27_darkshift.png"" style= ""width:200px""alt=""img"">
                            </div>
                        </div>","-12","","0","images/B_L_S_27_darkshift.png","","","","positive","1","B","L","S","darkshift","",""
"","","","","","html-slider-response","22","154642","0.0-18.0","t7fxkcz3dr","1","NaN","<div style=""width:500px;"">
                            <p style=""font-size:50px; font-weight:bold;""
                            >positive</p>
                            <div style=""width:240px; margin: auto;"">
                                <img src=""images/Y_D_S_44_lightshift.png"" style= ""width:200px""alt=""img"">
                            </div>
                        </div>","-200","","0","images/Y_D_S_44_lightshift.png","","","","positive","2","Y","D","S","lightshift","",""
"","","","","","html-slider-response","23","156792","0.0-19.0","t7fxkcz3dr","1","NaN","<div style=""width:500px;"">
                            <p style=""font-size:50px; font-weight:bold;""
                            >positive</p>
                            <div style=""width:240px; margin: auto;"">
                                <img src=""images/G_L_U_15_lightshift.png"" style= ""width:200px""alt=""img"">
                            </div>
                        </div>","200","","0","images/G_L_U_15_lightshift.png","","","","positive","2","G","L","U","lightshift","",""
"","","","","","html-slider-response","24","159192","0.0-20.0","t7fxkcz3dr","1","NaN","<div style=""width:500px;"">
                            <p style=""font-size:50px; font-weight:bold;""
                            >positive</p>
                            <div style=""width:240px; margin: auto;"">
                                <img src=""images/B_L_S_27_lightshift.png"" style= ""width:200px""alt=""img"">
                            </div>
                        </div>","163","","0","images/B_L_S_27_lightshift.png","","","","positive","2","B","L","S","lightshift","",""
"","","","","","html-slider-response","25","161758","0.0-21.0","t7fxkcz3dr","1","NaN","<div style=""width:500px;"">
                            <p style=""font-size:50px; font-weight:bold;""
                            >positive</p>
                            <div style=""width:240px; margin: auto;"">
                                <img src=""images/Y_D_S_44_darkshift.png"" style= ""width:200px""alt=""img"">
                            </div>
                        </div>","-179","","0","images/Y_D_S_44_darkshift.png","","","","positive","2","Y","D","S","darkshift","",""
"","","","","","html-slider-response","26","164040","0.0-22.0","t7fxkcz3dr","1","NaN","<div style=""width:500px;"">
                            <p style=""font-size:50px; font-weight:bold;""
                            >positive</p>
                            <div style=""width:240px; margin: auto;"">
                                <img src=""images/G_D_S_23_darkshift.png"" style= ""width:200px""alt=""img"">
                            </div>
                        </div>","-133","","0","images/G_D_S_23_darkshift.png","","","","positive","1","G","D","S","darkshift","",""
"","","","","","html-slider-response","27","166040","0.0-23.0","t7fxkcz3dr","1","NaN","<div style=""width:500px;"">
                            <p style=""font-size:50px; font-weight:bold;""
                            >positive</p>
                            <div style=""width:240px; margin: auto;"">
                                <img src=""images/R_D_S_10_lightshift.png"" style= ""width:200px""alt=""img"">
                            </div>
                        </div>","136","","0","images/R_D_S_10_lightshift.png","","","","positive","2","R","D","S","lightshift","",""
"","","","","","html-slider-response","28","168509","0.0-24.0","t7fxkcz3dr","1","NaN","<div style=""width:500px;"">
                            <p style=""font-size:50px; font-weight:bold;""
                            >positive</p>
                            <div style=""width:240px; margin: auto;"">
                                <img src=""images/Y_D_S_44_darkshift.png"" style= ""width:200px""alt=""img"">
                            </div>
                        </div>","-200","","0","images/Y_D_S_44_darkshift.png","","","","positive","1","Y","D","S","darkshift","",""
"","","","","","html-slider-response","29","170742","0.0-25.0","t7fxkcz3dr","1","NaN","<div style=""width:500px;"">
                            <p style=""font-size:50px; font-weight:bold;""
                            >positive</p>
                            <div style=""width:240px; margin: auto;"">
                                <img src=""images/G_D_U_26_darkshift.png"" style= ""width:200px""alt=""img"">
                            </div>
                        </div>","-151","","0","images/G_D_U_26_darkshift.png","","","","positive","1","G","D","U","darkshift","",""
"","","","","","html-slider-response","30","172591","0.0-26.0","t7fxkcz3dr","1","NaN","<div style=""width:500px;"">
                            <p style=""font-size:50px; font-weight:bold;""
                            >positive</p>
                            <div style=""width:240px; margin: auto;"">
                                <img src=""images/B_D_S_30_lightshift.png"" style= ""width:200px""alt=""img"">
                            </div>
                        </div>","14","","0","images/B_D_S_30_lightshift.png","","","","positive","2","B","D","S","lightshift","",""
"","","","","","html-slider-response","31","174509","0.0-27.0","t7fxkcz3dr","1","NaN","<div style=""width:500px;"">
                            <p style=""font-size:50px; font-weight:bold;""
                            >positive</p>
                            <div style=""width:240px; margin: auto;"">
                                <img src=""images/G_D_S_23_lightshift.png"" style= ""width:200px""alt=""img"">
                            </div>
                        </div>","60","","0","images/G_D_S_23_lightshift.png","","","","positive","2","G","D","S","lightshift","",""
"","","","","","html-slider-response","32","176492","0.0-28.0","t7fxkcz3dr","1","NaN","<div style=""width:500px;"">
                            <p style=""font-size:50px; font-weight:bold;""
                            >positive</p>
                            <div style=""width:240px; margin: auto;"">
                                <img src=""images/G_L_S_13_darkshift.png"" style= ""width:200px""alt=""img"">
                            </div>
                        </div>","126","","0","images/G_L_S_13_darkshift.png","","","","positive","2","G","L","S","darkshift","",""
"","","","","","html-slider-response","33","178759","0.0-29.0","t7fxkcz3dr","1","NaN","<div style=""width:500px;"">
                            <p style=""font-size:50px; font-weight:bold;""
                            >positive</p>
                            <div style=""width:240px; margin: auto;"">
                                <img src=""images/R_D_S_10_darkshift.png"" style= ""width:200px""alt=""img"">
                            </div>
                        </div>","-75","","0","images/R_D_S_10_darkshift.png","","","","positive","1","R","D","S","darkshift","",""
"","","","","","html-slider-response","34","181841","0.0-30.0","t7fxkcz3dr","1","NaN","<div style=""width:500px;"">
                            <p style=""font-size:50px; font-weight:bold;""
                            >positive</p>
                            <div style=""width:240px; margin: auto;"">
                                <img src=""images/Y_L_S_37_lightshift.png"" style= ""width:200px""alt=""img"">
                            </div>
                        </div>","-88","","0","images/Y_L_S_37_lightshift.png","","","","positive","2","Y","L","S","lightshift","",""
"","","","","","html-slider-response","35","183691","0.0-31.0","t7fxkcz3dr","1","NaN","<div style=""width:500px;"">
                            <p style=""font-size:50px; font-weight:bold;""
                            >positive</p>
                            <div style=""width:240px; margin: auto;"">
                                <img src=""images/R_L_U_7_lightshift.png"" style= ""width:200px""alt=""img"">
                            </div>
                        </div>","16","","0","images/R_L_U_7_lightshift.png","","","","positive","2","R","L","U","lightshift","",""
"","","","","","html-slider-response","36","185508","0.0-32.0","t7fxkcz3dr","1","NaN","<div style=""width:500px;"">
                            <p style=""font-size:50px; font-weight:bold;""
                            >positive</p>
                            <div style=""width:240px; margin: auto;"">
                                <img src=""images/B_L_S_27_darkshift.png"" style= ""width:200px""alt=""img"">
                            </div>
                        </div>","-73","","0","images/B_L_S_27_darkshift.png","","","","positive","2","B","L","S","darkshift","",""
"","","","","","html-slider-response","37","186709","0.0-33.0","t7fxkcz3dr","1","NaN","<div style=""width:500px;"">
                            <p style=""font-size:50px; font-weight:bold;""
                            >positive</p>
                            <div style=""width:240px; margin: auto;"">
                                <img src=""images/Y_L_U_41_darkshift.png"" style= ""width:200px""alt=""img"">
                            </div>
                        </div>","4","","0","images/Y_L_U_41_darkshift.png","","","","positive","1","Y","L","U","darkshift","",""
"","","","","","html-slider-response","38","189726","0.0-34.0","t7fxkcz3dr","1","NaN","<div style=""width:500px;"">
                            <p style=""font-size:50px; font-weight:bold;""
                            >positive</p>
                            <div style=""width:240px; margin: auto;"">
                                <img src=""images/R_L_S_5_lightshift.png"" style= ""width:200px""alt=""img"">
                            </div>
                        </div>","130","","0","images/R_L_S_5_lightshift.png","","","","positive","1","R","L","S","lightshift","",""
"","","","","","html-slider-response","39","191858","0.0-35.0","t7fxkcz3dr","1","NaN","<div style=""width:500px;"">
                            <p style=""font-size:50px; font-weight:bold;""
                            >positive</p>
                            <div style=""width:240px; margin: auto;"">
                                <img src=""images/B_D_S_30_darkshift.png"" style= ""width:200px""alt=""img"">
                            </div>
                        </div>","-69","","0","images/B_D_S_30_darkshift.png","","","","positive","2","B","D","S","darkshift","",""
"","","","","","html-slider-response","40","193625","0.0-36.0","t7fxkcz3dr","1","NaN","<div style=""width:500px;"">
                            <p style=""font-size:50px; font-weight:bold;""
                            >positive</p>
                            <div style=""width:240px; margin: auto;"">
                                <img src=""images/B_L_U_28_darkshift.png"" style= ""width:200px""alt=""img"">
                            </div>
                        </div>","-104","","0","images/B_L_U_28_darkshift.png","","","","positive","1","B","L","U","darkshift","",""
"","","","","","html-slider-response","41","195575","0.0-37.0","t7fxkcz3dr","1","NaN","<div style=""width:500px;"">
                            <p style=""font-size:50px; font-weight:bold;""
                            >positive</p>
                            <div style=""width:240px; margin: auto;"">
                                <img src=""images/G_D_U_26_lightshift.png"" style= ""width:200px""alt=""img"">
                            </div>
                        </div>","-34","","0","images/G_D_U_26_lightshift.png","","","","positive","2","G","D","U","lightshift","",""
"","","","","","html-slider-response","42","197476","0.0-38.0","t7fxkcz3dr","1","NaN","<div style=""width:500px;"">
                            <p style=""font-size:50px; font-weight:bold;""
                            >positive</p>
                            <div style=""width:240px; margin: auto;"">
                                <img src=""images/Y_L_S_37_darkshift.png"" style= ""width:200px""alt=""img"">
                            </div>
                        </div>","-200","","0","images/Y_L_S_37_darkshift.png","","","","positive","2","Y","L","S","darkshift","",""
"","","","","","html-slider-response","43","199891","0.0-39.0","t7fxkcz3dr","1","NaN","<div style=""width:500px;"">
                            <p style=""font-size:50px; font-weight:bold;""
                            >positive</p>
                            <div style=""width:240px; margin: auto;"">
                                <img src=""images/R_L_S_5_lightshift.png"" style= ""width:200px""alt=""img"">
                            </div>
                        </div>","178","","0","images/R_L_S_5_lightshift.png","","","","positive","2","R","L","S","lightshift","",""
"","","","","","html-slider-response","44","202175","0.0-40.0","t7fxkcz3dr","1","NaN","<div style=""width:500px;"">
                            <p style=""font-size:50px; font-weight:bold;""
                            >positive</p>
                            <div style=""width:240px; margin: auto;"">
                                <img src=""images/G_D_U_26_darkshift.png"" style= ""width:200px""alt=""img"">
                            </div>
                        </div>","-144","","0","images/G_D_U_26_darkshift.png","","","","positive","2","G","D","U","darkshift","",""
"","","","","","html-slider-response","45","204092","0.0-41.0","t7fxkcz3dr","1","NaN","<div style=""width:500px;"">
                            <p style=""font-size:50px; font-weight:bold;""
                            >positive</p>
                            <div style=""width:240px; margin: auto;"">
                                <img src=""images/G_L_S_13_lightshift.png"" style= ""width:200px""alt=""img"">
                            </div>
                        </div>","154","","0","images/G_L_S_13_lightshift.png","","","","positive","2","G","L","S","lightshift","",""
"","","","","","html-slider-response","46","206024","0.0-42.0","t7fxkcz3dr","1","NaN","<div style=""width:500px;"">
                            <p style=""font-size:50px; font-weight:bold;""
                            >positive</p>
                            <div style=""width:240px; margin: auto;"">
                                <img src=""images/R_D_U_12_darkshift.png"" style= ""width:200px""alt=""img"">
                            </div>
                        </div>","-113","","0","images/R_D_U_12_darkshift.png","","","","positive","2","R","D","U","darkshift","",""
"","","","","","html-slider-response","47","208042","0.0-43.0","t7fxkcz3dr","1","NaN","<div style=""width:500px;"">
                            <p style=""font-size:50px; font-weight:bold;""
                            >positive</p>
                            <div style=""width:240px; margin: auto;"">
                                <img src=""images/Y_L_S_37_darkshift.png"" style= ""width:200px""alt=""img"">
                            </div>
                        </div>","-200","","0","images/Y_L_S_37_darkshift.png","","","","positive","1","Y","L","S","darkshift","",""
"","","","","","html-slider-response","48","209891","0.0-44.0","t7fxkcz3dr","1","NaN","<div style=""width:500px;"">
                            <p style=""font-size:50px; font-weight:bold;""
                            >positive</p>
                            <div style=""width:240px; margin: auto;"">
                                <img src=""images/Y_L_U_41_lightshift.png"" style= ""width:200px""alt=""img"">
                            </div>
                        </div>","-109","","0","images/Y_L_U_41_lightshift.png","","","","positive","1","Y","L","U","lightshift","",""
"","","","","","html-slider-response","49","211642","0.0-45.0","t7fxkcz3dr","1","NaN","<div style=""width:500px;"">
                            <p style=""font-size:50px; font-weight:bold;""
                            >positive</p>
                            <div style=""width:240px; margin: auto;"">
                                <img src=""images/B_D_U_33_darkshift.png"" style= ""width:200px""alt=""img"">
                            </div>
                        </div>","-110","","0","images/B_D_U_33_darkshift.png","","","","positive","1","B","D","U","darkshift","",""
"","","","","","html-slider-response","50","213524","0.0-46.0","t7fxkcz3dr","1","NaN","<div style=""width:500px;"">
                            <p style=""font-size:50px; font-weight:bold;""
                            >positive</p>
                            <div style=""width:240px; margin: auto;"">
                                <img src=""images/R_D_S_10_lightshift.png"" style= ""width:200px""alt=""img"">
                            </div>
                        </div>","109","","0","images/R_D_S_10_lightshift.png","","","","positive","1","R","D","S","lightshift","",""
"","","","","","html-slider-response","51","215508","0.0-47.0","t7fxkcz3dr","1","NaN","<div style=""width:500px;"">
                            <p style=""font-size:50px; font-weight:bold;""
                            >positive</p>
                            <div style=""width:240px; margin: auto;"">
                                <img src=""images/Y_D_U_2_lightshift.png"" style= ""width:200px""alt=""img"">
                            </div>
                        </div>","-200","","0","images/Y_D_U_2_lightshift.png","","","","positive","2","Y","D","U","lightshift","",""
"","","","","","html-slider-response","52","217326","0.0-48.0","t7fxkcz3dr","1","NaN","<div style=""width:500px;"">
                            <p style=""font-size:50px; font-weight:bold;""
                            >positive</p>
                            <div style=""width:240px; margin: auto;"">
                                <img src=""images/Y_D_U_2_darkshift.png"" style= ""width:200px""alt=""img"">
                            </div>
                        </div>","-200","","0","images/Y_D_U_2_darkshift.png","","","","positive","1","Y","D","U","darkshift","",""
"","","","","","html-slider-response","53","219409","0.0-49.0","t7fxkcz3dr","1","NaN","<div style=""width:500px;"">
                            <p style=""font-size:50px; font-weight:bold;""
                            >positive</p>
                            <div style=""width:240px; margin: auto;"">
                                <img src=""images/G_D_S_23_darkshift.png"" style= ""width:200px""alt=""img"">
                            </div>
                        </div>","-155","","0","images/G_D_S_23_darkshift.png","","","","positive","2","G","D","S","darkshift","",""
"","","","","","html-slider-response","54","221158","0.0-50.0","t7fxkcz3dr","1","NaN","<div style=""width:500px;"">
                            <p style=""font-size:50px; font-weight:bold;""
                            >positive</p>
                            <div style=""width:240px; margin: auto;"">
                                <img src=""images/R_L_S_5_darkshift.png"" style= ""width:200px""alt=""img"">
                            </div>
                        </div>","166","","0","images/R_L_S_5_darkshift.png","","","","positive","2","R","L","S","darkshift","",""
"","","","","","html-slider-response","55","223359","0.0-51.0","t7fxkcz3dr","1","NaN","<div style=""width:500px;"">
                            <p style=""font-size:50px; font-weight:bold;""
                            >positive</p>
                            <div style=""width:240px; margin: auto;"">
                                <img src=""images/Y_L_U_41_lightshift.png"" style= ""width:200px""alt=""img"">
                            </div>
                        </div>","-177","","0","images/Y_L_U_41_lightshift.png","","","","positive","2","Y","L","U","lightshift","",""
"","","","","","html-slider-response","56","227172","0.0-52.0","t7fxkcz3dr","1","NaN","<div style=""width:500px;"">
                            <p style=""font-size:50px; font-weight:bold;""
                            >positive</p>
                            <div style=""width:240px; margin: auto;"">
                                <img src=""images/G_D_S_23_lightshift.png"" style= ""width:200px""alt=""img"">
                            </div>
                        </div>","93","","0","images/G_D_S_23_lightshift.png","","","","positive","1","G","D","S","lightshift","",""
"","","","","","html-slider-response","57","229242","0.0-53.0","t7fxkcz3dr","1","NaN","<div style=""width:500px;"">
                            <p style=""font-size:50px; font-weight:bold;""
                            >positive</p>
                            <div style=""width:240px; margin: auto;"">
                                <img src=""images/Y_L_U_41_darkshift.png"" style= ""width:200px""alt=""img"">
                            </div>
                        </div>","-200","","0","images/Y_L_U_41_darkshift.png","","","","positive","2","Y","L","U","darkshift","",""
"","","","","","html-slider-response","58","231192","0.0-54.0","t7fxkcz3dr","1","NaN","<div style=""width:500px;"">
                            <p style=""font-size:50px; font-weight:bold;""
                            >positive</p>
                            <div style=""width:240px; margin: auto;"">
                                <img src=""images/R_D_U_12_lightshift.png"" style= ""width:200px""alt=""img"">
                            </div>
                        </div>","101","","0","images/R_D_U_12_lightshift.png","","","","positive","1","R","D","U","lightshift","",""
"","","","","","html-slider-response","59","233174","0.0-55.0","t7fxkcz3dr","1","NaN","<div style=""width:500px;"">
                            <p style=""font-size:50px; font-weight:bold;""
                            >positive</p>
                            <div style=""width:240px; margin: auto;"">
                                <img src=""images/G_L_U_15_darkshift.png"" style= ""width:200px""alt=""img"">
                            </div>
                        </div>","166","","0","images/G_L_U_15_darkshift.png","","","","positive","1","G","L","U","darkshift","",""
"","","","","","html-slider-response","60","234992","0.0-56.0","t7fxkcz3dr","1","NaN","<div style=""width:500px;"">
                            <p style=""font-size:50px; font-weight:bold;""
                            >positive</p>
                            <div style=""width:240px; margin: auto;"">
                                <img src=""images/B_L_U_28_lightshift.png"" style= ""width:200px""alt=""img"">
                            </div>
                        </div>","-43","","0","images/B_L_U_28_lightshift.png","","","","positive","2","B","L","U","lightshift","",""
"","","","","","html-slider-response","61","236858","0.0-57.0","t7fxkcz3dr","1","NaN","<div style=""width:500px;"">
                            <p style=""font-size:50px; font-weight:bold;""
                            >positive</p>
                            <div style=""width:240px; margin: auto;"">
                                <img src=""images/R_L_U_7_darkshift.png"" style= ""width:200px""alt=""img"">
                            </div>
                        </div>","-200","","0","images/R_L_U_7_darkshift.png","","","","positive","2","R","L","U","darkshift","",""
"","","","","","html-slider-response","62","238775","0.0-58.0","t7fxkcz3dr","1","NaN","<div style=""width:500px;"">
                            <p style=""font-size:50px; font-weight:bold;""
                            >positive</p>
                            <div style=""width:240px; margin: auto;"">
                                <img src=""images/G_L_S_13_lightshift.png"" style= ""width:200px""alt=""img"">
                            </div>
                        </div>","200","","0","images/G_L_S_13_lightshift.png","","","","positive","1","G","L","S","lightshift","",""
"","","","","","html-slider-response","63","240709","0.0-59.0","t7fxkcz3dr","1","NaN","<div style=""width:500px;"">
                            <p style=""font-size:50px; font-weight:bold;""
                            >positive</p>
                            <div style=""width:240px; margin: auto;"">
                                <img src=""images/B_L_U_28_lightshift.png"" style= ""width:200px""alt=""img"">
                            </div>
                        </div>","86","","0","images/B_L_U_28_lightshift.png","","","","positive","1","B","L","U","lightshift","",""
"","","","","","html-slider-response","64","242990","0.0-60.0","t7fxkcz3dr","1","NaN","<div style=""width:500px;"">
                            <p style=""font-size:50px; font-weight:bold;""
                            >positive</p>
                            <div style=""width:240px; margin: auto;"">
                                <img src=""images/B_L_S_27_lightshift.png"" style= ""width:200px""alt=""img"">
                            </div>
                        </div>","156","","0","images/B_L_S_27_lightshift.png","","","","positive","1","B","L","S","lightshift","",""
"","","","","","html-slider-response","65","245224","0.0-61.0","t7fxkcz3dr","1","NaN","<div style=""width:500px;"">
                            <p style=""font-size:50px; font-weight:bold;""
                            >positive</p>
                            <div style=""width:240px; margin: auto;"">
                                <img src=""images/Y_L_S_37_lightshift.png"" style= ""width:200px""alt=""img"">
                            </div>
                        </div>","-114","","0","images/Y_L_S_37_lightshift.png","","","","positive","1","Y","L","S","lightshift","",""
"","","","","","html-slider-response","66","247108","0.0-62.0","t7fxkcz3dr","1","NaN","<div style=""width:500px;"">
                            <p style=""font-size:50px; font-weight:bold;""
                            >positive</p>
                            <div style=""width:240px; margin: auto;"">
                                <img src=""images/G_L_U_15_lightshift.png"" style= ""width:200px""alt=""img"">
                            </div>
                        </div>","131","","0","images/G_L_U_15_lightshift.png","","","","positive","1","G","L","U","lightshift","",""
"","","","","","html-slider-response","67","248910","0.0-63.0","t7fxkcz3dr","1","NaN","<div style=""width:500px;"">
                            <p style=""font-size:50px; font-weight:bold;""
                            >positive</p>
                            <div style=""width:240px; margin: auto;"">
                                <img src=""images/B_D_U_33_lightshift.png"" style= ""width:200px""alt=""img"">
                            </div>
                        </div>","-86","","0","images/B_D_U_33_lightshift.png","","","","positive","2","B","D","U","lightshift","",""
"","","","","","html-slider-response","68","250790","0.0-64.0","t7fxkcz3dr","1","NaN","<div style=""width:500px;"">
                            <p style=""font-size:50px; font-weight:bold;""
                            >positive</p>
                            <div style=""width:240px; margin: auto;"">
                                <img src=""images/R_D_U_12_darkshift.png"" style= ""width:200px""alt=""img"">
                            </div>
                        </div>","-179","","0","images/R_D_U_12_darkshift.png","","","","positive","1","R","D","U","darkshift","",""
"","","","","","html-slider-response","69","252742","0.0-65.0","t7fxkcz3dr","1","NaN","<div style=""width:500px;"">
                            <p style=""font-size:50px; font-weight:bold;""
                            >positive</p>
                            <div style=""width:240px; margin: auto;"">
                                <img src=""images/Y_D_U_2_lightshift.png"" style= ""width:200px""alt=""img"">
                            </div>
                        </div>","-149","","0","images/Y_D_U_2_lightshift.png","","","","positive","1","Y","D","U","lightshift","",""
"","","","","","html-slider-response","70","254626","0.0-66.0","t7fxkcz3dr","1","NaN","<div style=""width:500px;"">
                            <p style=""font-size:50px; font-weight:bold;""
                            >positive</p>
                            <div style=""width:240px; margin: auto;"">
                                <img src=""images/G_L_S_13_darkshift.png"" style= ""width:200px""alt=""img"">
                            </div>
                        </div>","94","","0","images/G_L_S_13_darkshift.png","","","","positive","1","G","L","S","darkshift","",""
"","","","","","html-slider-response","71","256374","0.0-67.0","t7fxkcz3dr","1","NaN","<div style=""width:500px;"">
                            <p style=""font-size:50px; font-weight:bold;""
                            >positive</p>
                            <div style=""width:240px; margin: auto;"">
                                <img src=""images/R_L_U_7_lightshift.png"" style= ""width:200px""alt=""img"">
                            </div>
                        </div>","42","","0","images/R_L_U_7_lightshift.png","","","","positive","1","R","L","U","lightshift","",""
"","","","","","html-slider-response","72","258176","0.0-68.0","t7fxkcz3dr","1","NaN","<div style=""width:500px;"">
                            <p style=""font-size:50px; font-weight:bold;""
                            >positive</p>
                            <div style=""width:240px; margin: auto;"">
                                <img src=""images/R_L_S_5_darkshift.png"" style= ""width:200px""alt=""img"">
                            </div>
                        </div>","139","","0","images/R_L_S_5_darkshift.png","","","","positive","1","R","L","S","darkshift","",""
"","","","","","html-slider-response","73","260176","0.0-69.0","t7fxkcz3dr","1","NaN","<div style=""width:500px;"">
                            <p style=""font-size:50px; font-weight:bold;""
                            >positive</p>
                            <div style=""width:240px; margin: auto;"">
                                <img src=""images/G_D_U_26_lightshift.png"" style= ""width:200px""alt=""img"">
                            </div>
                        </div>","-148","","0","images/G_D_U_26_lightshift.png","","","","positive","1","G","D","U","lightshift","",""
"","","","","","html-slider-response","74","261924","0.0-70.0","t7fxkcz3dr","1","NaN","<div style=""width:500px;"">
                            <p style=""font-size:50px; font-weight:bold;""
                            >positive</p>
                            <div style=""width:240px; margin: auto;"">
                                <img src=""images/B_D_U_33_lightshift.png"" style= ""width:200px""alt=""img"">
                            </div>
                        </div>","-98","","0","images/B_D_U_33_lightshift.png","","","","positive","1","B","D","U","lightshift","",""
"","","","","","html-slider-response","75","263709","0.0-71.0","t7fxkcz3dr","1","NaN","<div style=""width:500px;"">
                            <p style=""font-size:50px; font-weight:bold;""
                            >positive</p>
                            <div style=""width:240px; margin: auto;"">
                                <img src=""images/B_D_S_30_lightshift.png"" style= ""width:200px""alt=""img"">
                            </div>
                        </div>","63","","0","images/B_D_S_30_lightshift.png","","","","positive","1","B","D","S","lightshift","",""
"","","","","","html-slider-response","76","265375","0.0-72.0","t7fxkcz3dr","1","NaN","<div style=""width:500px;"">
                            <p style=""font-size:50px; font-weight:bold;""
                            >positive</p>
                            <div style=""width:240px; margin: auto;"">
                                <img src=""images/G_L_U_15_darkshift.png"" style= ""width:200px""alt=""img"">
                            </div>
                        </div>","104","","0","images/G_L_U_15_darkshift.png","","","","positive","2","G","L","U","darkshift","",""
"","","","","","html-slider-response","77","267009","0.0-73.0","t7fxkcz3dr","1","NaN","<div style=""width:500px;"">
                            <p style=""font-size:50px; font-weight:bold;""
                            >positive</p>
                            <div style=""width:240px; margin: auto;"">
                                <img src=""images/B_L_U_28_darkshift.png"" style= ""width:200px""alt=""img"">
                            </div>
                        </div>","30","","0","images/B_L_U_28_darkshift.png","","","","positive","2","B","L","U","darkshift","",""
"","","","","","html-slider-response","78","268606","0.0-74.0","t7fxkcz3dr","1","NaN","<div style=""width:500px;"">
                            <p style=""font-size:50px; font-weight:bold;""
                            >positive</p>
                            <div style=""width:240px; margin: auto;"">
                                <img src=""images/B_D_S_30_darkshift.png"" style= ""width:200px""alt=""img"">
                            </div>
                        </div>","-23","","0","images/B_D_S_30_darkshift.png","","","","positive","1","B","D","S","darkshift","",""
"","","","","","html-slider-response","79","270358","0.0-75.0","t7fxkcz3dr","1","NaN","<div style=""width:500px;"">
                            <p style=""font-size:50px; font-weight:bold;""
                            >positive</p>
                            <div style=""width:240px; margin: auto;"">
                                <img src=""images/Y_D_S_44_lightshift.png"" style= ""width:200px""alt=""img"">
                            </div>
                        </div>","-200","","0","images/Y_D_S_44_lightshift.png","","","","positive","1","Y","D","S","lightshift","",""
"","","","","","html-slider-response","80","272975","0.0-76.0","t7fxkcz3dr","1","NaN","<div style=""width:500px;"">
                            <p style=""font-size:50px; font-weight:bold;""
                            >positive</p>
                            <div style=""width:240px; margin: auto;"">
                                <img src=""images/Y_D_U_2_darkshift.png"" style= ""width:200px""alt=""img"">
                            </div>
                        </div>","-200","","0","images/Y_D_U_2_darkshift.png","","","","positive","2","Y","D","U","darkshift","",""
"","","","","","html-slider-response","81","275542","0.0-77.0","t7fxkcz3dr","1","NaN","<div style=""width:500px;"">
                            <p style=""font-size:50px; font-weight:bold;""
                            >positive</p>
                            <div style=""width:240px; margin: auto;"">
                                <img src=""images/R_L_U_7_darkshift.png"" style= ""width:200px""alt=""img"">
                            </div>
                        </div>","4","","0","images/R_L_U_7_darkshift.png","","","","positive","1","R","L","U","darkshift","",""
"","","","","","html-button-response","82","278062","0.0-78.0","t7fxkcz3dr","1","2019","<p>Great Job! You've finished block 1.<br></br> You have 3 block(s) left to go.<br></br></p>","0","","","","","","","","","","","","","",""
"","","","","","html-button-response","83","279230","0.0-79.0","t7fxkcz3dr","1","1168","<p>In this block of trials, you will be asked to rate how much you associate each map with:</p > <p style = 'font-size:150%; font-weight: bold'>negative</p><br></br>","0","","","","","","","","","","","","","",""
"","","","","","html-slider-response","84","285459","0.0-80.0","t7fxkcz3dr","1","NaN","<div style=""width:500px;"">
                            <p style=""font-size:50px; font-weight:bold;""
                            >negative</p>
                            <div style=""width:240px; margin: auto;"">
                                <img src=""images/R_D_S_10_lightshift.png"" style= ""width:200px""alt=""img"">
                            </div>
                        </div>","-170","","0","images/R_D_S_10_lightshift.png","","","","negative","2","R","D","S","lightshift","",""
"","","","","","html-slider-response","85","290691","0.0-81.0","t7fxkcz3dr","1","NaN","<div style=""width:500px;"">
                            <p style=""font-size:50px; font-weight:bold;""
                            >negative</p>
                            <div style=""width:240px; margin: auto;"">
                                <img src=""images/G_D_U_26_darkshift.png"" style= ""width:200px""alt=""img"">
                            </div>
                        </div>","122","","0","images/G_D_U_26_darkshift.png","","","","negative","2","G","D","U","darkshift","",""
"","","","","","html-slider-response","86","293024","0.0-82.0","t7fxkcz3dr","1","NaN","<div style=""width:500px;"">
                            <p style=""font-size:50px; font-weight:bold;""
                            >negative</p>
                            <div style=""width:240px; margin: auto;"">
                                <img src=""images/G_L_U_15_lightshift.png"" style= ""width:200px""alt=""img"">
                            </div>
                        </div>","-124","","0","images/G_L_U_15_lightshift.png","","","","negative","1","G","L","U","lightshift","",""
"","","","","","html-slider-response","87","294826","0.0-83.0","t7fxkcz3dr","1","NaN","<div style=""width:500px;"">
                            <p style=""font-size:50px; font-weight:bold;""
                            >negative</p>
                            <div style=""width:240px; margin: auto;"">
                                <img src=""images/B_D_U_33_lightshift.png"" style= ""width:200px""alt=""img"">
                            </div>
                        </div>","20","","0","images/B_D_U_33_lightshift.png","","","","negative","1","B","D","U","lightshift","",""
"","","","","","html-slider-response","88","296674","0.0-84.0","t7fxkcz3dr","1","NaN","<div style=""width:500px;"">
                            <p style=""font-size:50px; font-weight:bold;""
                            >negative</p>
                            <div style=""width:240px; margin: auto;"">
                                <img src=""images/B_L_S_27_lightshift.png"" style= ""width:200px""alt=""img"">
                            </div>
                        </div>","-73","","0","images/B_L_S_27_lightshift.png","","","","negative","1","B","L","S","lightshift","",""
"","","","","","html-slider-response","89","298826","0.0-85.0","t7fxkcz3dr","1","NaN","<div style=""width:500px;"">
                            <p style=""font-size:50px; font-weight:bold;""
                            >negative</p>
                            <div style=""width:240px; margin: auto;"">
                                <img src=""images/B_L_S_27_darkshift.png"" style= ""width:200px""alt=""img"">
                            </div>
                        </div>","-36","","0","images/B_L_S_27_darkshift.png","","","","negative","1","B","L","S","darkshift","",""
"","","","","","html-slider-response","90","300807","0.0-86.0","t7fxkcz3dr","1","NaN","<div style=""width:500px;"">
                            <p style=""font-size:50px; font-weight:bold;""
                            >negative</p>
                            <div style=""width:240px; margin: auto;"">
                                <img src=""images/Y_L_U_41_darkshift.png"" style= ""width:200px""alt=""img"">
                            </div>
                        </div>","200","","0","images/Y_L_U_41_darkshift.png","","","","negative","1","Y","L","U","darkshift","",""
"","","","","","html-slider-response","91","302642","0.0-87.0","t7fxkcz3dr","1","NaN","<div style=""width:500px;"">
                            <p style=""font-size:50px; font-weight:bold;""
                            >negative</p>
                            <div style=""width:240px; margin: auto;"">
                                <img src=""images/G_D_S_23_darkshift.png"" style= ""width:200px""alt=""img"">
                            </div>
                        </div>","73","","0","images/G_D_S_23_darkshift.png","","","","negative","1","G","D","S","darkshift","",""
"","","","","","html-slider-response","92","308023","0.0-88.0","t7fxkcz3dr","1","NaN","<div style=""width:500px;"">
                            <p style=""font-size:50px; font-weight:bold;""
                            >negative</p>
                            <div style=""width:240px; margin: auto;"">
                                <img src=""images/G_L_U_15_lightshift.png"" style= ""width:200px""alt=""img"">
                            </div>
                        </div>","-59","","0","images/G_L_U_15_lightshift.png","","","","negative","2","G","L","U","lightshift","",""
"","","","","","html-slider-response","93","310307","0.0-89.0","t7fxkcz3dr","1","NaN","<div style=""width:500px;"">
                            <p style=""font-size:50px; font-weight:bold;""
                            >negative</p>
                            <div style=""width:240px; margin: auto;"">
                                <img src=""images/R_D_U_12_darkshift.png"" style= ""width:200px""alt=""img"">
                            </div>
                        </div>","158","","0","images/R_D_U_12_darkshift.png","","","","negative","1","R","D","U","darkshift","",""
"","","","","","html-slider-response","94","312324","0.0-90.0","t7fxkcz3dr","1","NaN","<div style=""width:500px;"">
                            <p style=""font-size:50px; font-weight:bold;""
                            >negative</p>
                            <div style=""width:240px; margin: auto;"">
                                <img src=""images/Y_L_U_41_lightshift.png"" style= ""width:200px""alt=""img"">
                            </div>
                        </div>","-56","","0","images/Y_L_U_41_lightshift.png","","","","negative","2","Y","L","U","lightshift","",""
"","","","","","html-slider-response","95","315241","0.0-91.0","t7fxkcz3dr","1","NaN","<div style=""width:500px;"">
                            <p style=""font-size:50px; font-weight:bold;""
                            >negative</p>
                            <div style=""width:240px; margin: auto;"">
                                <img src=""images/Y_L_U_41_darkshift.png"" style= ""width:200px""alt=""img"">
                            </div>
                        </div>","193","","0","images/Y_L_U_41_darkshift.png","","","","negative","2","Y","L","U","darkshift","",""
"","","","","","html-slider-response","96","317259","0.0-92.0","t7fxkcz3dr","1","NaN","<div style=""width:500px;"">
                            <p style=""font-size:50px; font-weight:bold;""
                            >negative</p>
                            <div style=""width:240px; margin: auto;"">
                                <img src=""images/Y_L_S_37_lightshift.png"" style= ""width:200px""alt=""img"">
                            </div>
                        </div>","26","","0","images/Y_L_S_37_lightshift.png","","","","negative","2","Y","L","S","lightshift","",""
"","","","","","html-slider-response","97","319125","0.0-93.0","t7fxkcz3dr","1","NaN","<div style=""width:500px;"">
                            <p style=""font-size:50px; font-weight:bold;""
                            >negative</p>
                            <div style=""width:240px; margin: auto;"">
                                <img src=""images/G_D_U_26_lightshift.png"" style= ""width:200px""alt=""img"">
                            </div>
                        </div>","109","","0","images/G_D_U_26_lightshift.png","","","","negative","2","G","D","U","lightshift","",""
"","","","","","html-slider-response","98","321008","0.0-94.0","t7fxkcz3dr","1","NaN","<div style=""width:500px;"">
                            <p style=""font-size:50px; font-weight:bold;""
                            >negative</p>
                            <div style=""width:240px; margin: auto;"">
                                <img src=""images/G_D_S_23_darkshift.png"" style= ""width:200px""alt=""img"">
                            </div>
                        </div>","34","","0","images/G_D_S_23_darkshift.png","","","","negative","2","G","D","S","darkshift","",""
"","","","","","html-slider-response","99","322775","0.0-95.0","t7fxkcz3dr","1","NaN","<div style=""width:500px;"">
                            <p style=""font-size:50px; font-weight:bold;""
                            >negative</p>
                            <div style=""width:240px; margin: auto;"">
                                <img src=""images/G_L_S_13_lightshift.png"" style= ""width:200px""alt=""img"">
                            </div>
                        </div>","-88","","0","images/G_L_S_13_lightshift.png","","","","negative","2","G","L","S","lightshift","",""
"","","","","","html-slider-response","100","324508","0.0-96.0","t7fxkcz3dr","1","NaN","<div style=""width:500px;"">
                            <p style=""font-size:50px; font-weight:bold;""
                            >negative</p>
                            <div style=""width:240px; margin: auto;"">
                                <img src=""images/Y_D_U_2_darkshift.png"" style= ""width:200px""alt=""img"">
                            </div>
                        </div>","200","","0","images/Y_D_U_2_darkshift.png","","","","negative","2","Y","D","U","darkshift","",""
"","","","","","html-slider-response","101","326508","0.0-97.0","t7fxkcz3dr","1","NaN","<div style=""width:500px;"">
                            <p style=""font-size:50px; font-weight:bold;""
                            >negative</p>
                            <div style=""width:240px; margin: auto;"">
                                <img src=""images/B_D_U_33_lightshift.png"" style= ""width:200px""alt=""img"">
                            </div>
                        </div>","137","","0","images/B_D_U_33_lightshift.png","","","","negative","2","B","D","U","lightshift","",""
"","","","","","html-slider-response","102","328308","0.0-98.0","t7fxkcz3dr","1","NaN","<div style=""width:500px;"">
                            <p style=""font-size:50px; font-weight:bold;""
                            >negative</p>
                            <div style=""width:240px; margin: auto;"">
                                <img src=""images/G_L_S_13_darkshift.png"" style= ""width:200px""alt=""img"">
                            </div>
                        </div>","30","","0","images/G_L_S_13_darkshift.png","","","","negative","2","G","L","S","darkshift","",""
"","","","","","html-slider-response","103","331224","0.0-99.0","t7fxkcz3dr","1","NaN","<div style=""width:500px;"">
                            <p style=""font-size:50px; font-weight:bold;""
                            >negative</p>
                            <div style=""width:240px; margin: auto;"">
                                <img src=""images/Y_L_S_37_darkshift.png"" style= ""width:200px""alt=""img"">
                            </div>
                        </div>","200","","0","images/Y_L_S_37_darkshift.png","","","","negative","1","Y","L","S","darkshift","",""
"","","","","","html-slider-response","104","333374","0.0-100.0","t7fxkcz3dr","1","NaN","<div style=""width:500px;"">
                            <p style=""font-size:50px; font-weight:bold;""
                            >negative</p>
                            <div style=""width:240px; margin: auto;"">
                                <img src=""images/Y_L_S_37_darkshift.png"" style= ""width:200px""alt=""img"">
                            </div>
                        </div>","200","","0","images/Y_L_S_37_darkshift.png","","","","negative","2","Y","L","S","darkshift","",""
"","","","","","html-slider-response","105","335156","0.0-101.0","t7fxkcz3dr","1","NaN","<div style=""width:500px;"">
                            <p style=""font-size:50px; font-weight:bold;""
                            >negative</p>
                            <div style=""width:240px; margin: auto;"">
                                <img src=""images/G_D_S_23_lightshift.png"" style= ""width:200px""alt=""img"">
                            </div>
                        </div>","-101","","0","images/G_D_S_23_lightshift.png","","","","negative","1","G","D","S","lightshift","",""
"","","","","","html-slider-response","106","336892","0.0-102.0","t7fxkcz3dr","1","NaN","<div style=""width:500px;"">
                            <p style=""font-size:50px; font-weight:bold;""
                            >negative</p>
                            <div style=""width:240px; margin: auto;"">
                                <img src=""images/R_L_U_7_darkshift.png"" style= ""width:200px""alt=""img"">
                            </div>
                        </div>","-58","","0","images/R_L_U_7_darkshift.png","","","","negative","2","R","L","U","darkshift","",""
"","","","","","html-slider-response","107","338524","0.0-103.0","t7fxkcz3dr","1","NaN","<div style=""width:500px;"">
                            <p style=""font-size:50px; font-weight:bold;""
                            >negative</p>
                            <div style=""width:240px; margin: auto;"">
                                <img src=""images/Y_D_U_2_lightshift.png"" style= ""width:200px""alt=""img"">
                            </div>
                        </div>","200","","0","images/Y_D_U_2_lightshift.png","","","","negative","1","Y","D","U","lightshift","",""
"","","","","","html-slider-response","108","340209","0.0-104.0","t7fxkcz3dr","1","NaN","<div style=""width:500px;"">
                            <p style=""font-size:50px; font-weight:bold;""
                            >negative</p>
                            <div style=""width:240px; margin: auto;"">
                                <img src=""images/R_L_U_7_lightshift.png"" style= ""width:200px""alt=""img"">
                            </div>
                        </div>","-47","","0","images/R_L_U_7_lightshift.png","","","","negative","2","R","L","U","lightshift","",""
"","","","","","html-slider-response","109","342158","0.0-105.0","t7fxkcz3dr","1","NaN","<div style=""width:500px;"">
                            <p style=""font-size:50px; font-weight:bold;""
                            >negative</p>
                            <div style=""width:240px; margin: auto;"">
                                <img src=""images/B_L_U_28_lightshift.png"" style= ""width:200px""alt=""img"">
                            </div>
                        </div>","-117","","0","images/B_L_U_28_lightshift.png","","","","negative","1","B","L","U","lightshift","",""
"","","","","","html-slider-response","110","343890","0.0-106.0","t7fxkcz3dr","1","NaN","<div style=""width:500px;"">
                            <p style=""font-size:50px; font-weight:bold;""
                            >negative</p>
                            <div style=""width:240px; margin: auto;"">
                                <img src=""images/Y_D_U_2_darkshift.png"" style= ""width:200px""alt=""img"">
                            </div>
                        </div>","200","","0","images/Y_D_U_2_darkshift.png","","","","negative","1","Y","D","U","darkshift","",""
"","","","","","html-slider-response","111","345874","0.0-107.0","t7fxkcz3dr","1","NaN","<div style=""width:500px;"">
                            <p style=""font-size:50px; font-weight:bold;""
                            >negative</p>
                            <div style=""width:240px; margin: auto;"">
                                <img src=""images/Y_D_S_44_darkshift.png"" style= ""width:200px""alt=""img"">
                            </div>
                        </div>","200","","0","images/Y_D_S_44_darkshift.png","","","","negative","1","Y","D","S","darkshift","",""
"","","","","","html-slider-response","112","347825","0.0-108.0","t7fxkcz3dr","1","NaN","<div style=""width:500px;"">
                            <p style=""font-size:50px; font-weight:bold;""
                            >negative</p>
                            <div style=""width:240px; margin: auto;"">
                                <img src=""images/B_D_U_33_darkshift.png"" style= ""width:200px""alt=""img"">
                            </div>
                        </div>","101","","0","images/B_D_U_33_darkshift.png","","","","negative","1","B","D","U","darkshift","",""
"","","","","","html-slider-response","113","349941","0.0-109.0","t7fxkcz3dr","1","NaN","<div style=""width:500px;"">
                            <p style=""font-size:50px; font-weight:bold;""
                            >negative</p>
                            <div style=""width:240px; margin: auto;"">
                                <img src=""images/Y_D_S_44_lightshift.png"" style= ""width:200px""alt=""img"">
                            </div>
                        </div>","200","","0","images/Y_D_S_44_lightshift.png","","","","negative","1","Y","D","S","lightshift","",""
"","","","","","html-slider-response","114","351776","0.0-110.0","t7fxkcz3dr","1","NaN","<div style=""width:500px;"">
                            <p style=""font-size:50px; font-weight:bold;""
                            >negative</p>
                            <div style=""width:240px; margin: auto;"">
                                <img src=""images/B_D_S_30_darkshift.png"" style= ""width:200px""alt=""img"">
                            </div>
                        </div>","45","","0","images/B_D_S_30_darkshift.png","","","","negative","2","B","D","S","darkshift","",""
"","","","","","html-slider-response","115","353509","0.0-111.0","t7fxkcz3dr","1","NaN","<div style=""width:500px;"">
                            <p style=""font-size:50px; font-weight:bold;""
                            >negative</p>
                            <div style=""width:240px; margin: auto;"">
                                <img src=""images/Y_L_U_41_lightshift.png"" style= ""width:200px""alt=""img"">
                            </div>
                        </div>","-53","","0","images/Y_L_U_41_lightshift.png","","","","negative","1","Y","L","U","lightshift","",""
"","","","","","html-slider-response","116","355292","0.0-112.0","t7fxkcz3dr","1","NaN","<div style=""width:500px;"">
                            <p style=""font-size:50px; font-weight:bold;""
                            >negative</p>
                            <div style=""width:240px; margin: auto;"">
                                <img src=""images/B_L_U_28_darkshift.png"" style= ""width:200px""alt=""img"">
                            </div>
                        </div>","-24","","0","images/B_L_U_28_darkshift.png","","","","negative","1","B","L","U","darkshift","",""
"","","","","","html-slider-response","117","357125","0.0-113.0","t7fxkcz3dr","1","NaN","<div style=""width:500px;"">
                            <p style=""font-size:50px; font-weight:bold;""
                            >negative</p>
                            <div style=""width:240px; margin: auto;"">
                                <img src=""images/G_L_S_13_lightshift.png"" style= ""width:200px""alt=""img"">
                            </div>
                        </div>","-158","","0","images/G_L_S_13_lightshift.png","","","","negative","1","G","L","S","lightshift","",""
"","","","","","html-slider-response","118","359272","0.0-114.0","t7fxkcz3dr","1","NaN","<div style=""width:500px;"">
                            <p style=""font-size:50px; font-weight:bold;""
                            >negative</p>
                            <div style=""width:240px; margin: auto;"">
                                <img src=""images/B_L_U_28_darkshift.png"" style= ""width:200px""alt=""img"">
                            </div>
                        </div>","-200","","0","images/B_L_U_28_darkshift.png","","","","negative","2","B","L","U","darkshift","",""
"","","","","","html-slider-response","119","361126","0.0-115.0","t7fxkcz3dr","1","NaN","<div style=""width:500px;"">
                            <p style=""font-size:50px; font-weight:bold;""
                            >negative</p>
                            <div style=""width:240px; margin: auto;"">
                                <img src=""images/B_D_S_30_lightshift.png"" style= ""width:200px""alt=""img"">
                            </div>
                        </div>","-147","","0","images/B_D_S_30_lightshift.png","","","","negative","2","B","D","S","lightshift","",""
"","","","","","html-slider-response","120","363226","0.0-116.0","t7fxkcz3dr","1","NaN","<div style=""width:500px;"">
                            <p style=""font-size:50px; font-weight:bold;""
                            >negative</p>
                            <div style=""width:240px; margin: auto;"">
                                <img src=""images/Y_D_U_2_lightshift.png"" style= ""width:200px""alt=""img"">
                            </div>
                        </div>","175","","0","images/Y_D_U_2_lightshift.png","","","","negative","2","Y","D","U","lightshift","",""
"","","","","","html-slider-response","121","365108","0.0-117.0","t7fxkcz3dr","1","NaN","<div style=""width:500px;"">
                            <p style=""font-size:50px; font-weight:bold;""
                            >negative</p>
                            <div style=""width:240px; margin: auto;"">
                                <img src=""images/Y_D_S_44_lightshift.png"" style= ""width:200px""alt=""img"">
                            </div>
                        </div>","155","","0","images/Y_D_S_44_lightshift.png","","","","negative","2","Y","D","S","lightshift","",""
"","","","","","html-slider-response","122","366758","0.0-118.0","t7fxkcz3dr","1","NaN","<div style=""width:500px;"">
                            <p style=""font-size:50px; font-weight:bold;""
                            >negative</p>
                            <div style=""width:240px; margin: auto;"">
                                <img src=""images/G_L_S_13_darkshift.png"" style= ""width:200px""alt=""img"">
                            </div>
                        </div>","-82","","0","images/G_L_S_13_darkshift.png","","","","negative","1","G","L","S","darkshift","",""
"","","","","","html-slider-response","123","369126","0.0-119.0","t7fxkcz3dr","1","NaN","<div style=""width:500px;"">
                            <p style=""font-size:50px; font-weight:bold;""
                            >negative</p>
                            <div style=""width:240px; margin: auto;"">
                                <img src=""images/G_D_U_26_darkshift.png"" style= ""width:200px""alt=""img"">
                            </div>
                        </div>","-6","","0","images/G_D_U_26_darkshift.png","","","","negative","1","G","D","U","darkshift","",""
"","","","","","html-slider-response","124","371142","0.0-120.0","t7fxkcz3dr","1","NaN","<div style=""width:500px;"">
                            <p style=""font-size:50px; font-weight:bold;""
                            >negative</p>
                            <div style=""width:240px; margin: auto;"">
                                <img src=""images/R_D_S_10_lightshift.png"" style= ""width:200px""alt=""img"">
                            </div>
                        </div>","-200","","0","images/R_D_S_10_lightshift.png","","","","negative","1","R","D","S","lightshift","",""
"","","","","","html-slider-response","125","373125","0.0-121.0","t7fxkcz3dr","1","NaN","<div style=""width:500px;"">
                            <p style=""font-size:50px; font-weight:bold;""
                            >negative</p>
                            <div style=""width:240px; margin: auto;"">
                                <img src=""images/R_L_S_5_lightshift.png"" style= ""width:200px""alt=""img"">
                            </div>
                        </div>","-200","","0","images/R_L_S_5_lightshift.png","","","","negative","2","R","L","S","lightshift","",""
"","","","","","html-slider-response","126","375041","0.0-122.0","t7fxkcz3dr","1","NaN","<div style=""width:500px;"">
                            <p style=""font-size:50px; font-weight:bold;""
                            >negative</p>
                            <div style=""width:240px; margin: auto;"">
                                <img src=""images/Y_L_S_37_lightshift.png"" style= ""width:200px""alt=""img"">
                            </div>
                        </div>","200","","0","images/Y_L_S_37_lightshift.png","","","","negative","1","Y","L","S","lightshift","",""
"","","","","","html-slider-response","127","376825","0.0-123.0","t7fxkcz3dr","1","NaN","<div style=""width:500px;"">
                            <p style=""font-size:50px; font-weight:bold;""
                            >negative</p>
                            <div style=""width:240px; margin: auto;"">
                                <img src=""images/R_L_U_7_darkshift.png"" style= ""width:200px""alt=""img"">
                            </div>
                        </div>","-141","","0","images/R_L_U_7_darkshift.png","","","","negative","1","R","L","U","darkshift","",""
"","","","","","html-slider-response","128","378558","0.0-124.0","t7fxkcz3dr","1","NaN","<div style=""width:500px;"">
                            <p style=""font-size:50px; font-weight:bold;""
                            >negative</p>
                            <div style=""width:240px; margin: auto;"">
                                <img src=""images/B_D_S_30_lightshift.png"" style= ""width:200px""alt=""img"">
                            </div>
                        </div>","-82","","0","images/B_D_S_30_lightshift.png","","","","negative","1","B","D","S","lightshift","",""
"","","","","","html-slider-response","129","380241","0.0-125.0","t7fxkcz3dr","1","NaN","<div style=""width:500px;"">
                            <p style=""font-size:50px; font-weight:bold;""
                            >negative</p>
                            <div style=""width:240px; margin: auto;"">
                                <img src=""images/B_L_S_27_darkshift.png"" style= ""width:200px""alt=""img"">
                            </div>
                        </div>","-35","","0","images/B_L_S_27_darkshift.png","","","","negative","2","B","L","S","darkshift","",""
"","","","","","html-slider-response","130","382058","0.0-126.0","t7fxkcz3dr","1","NaN","<div style=""width:500px;"">
                            <p style=""font-size:50px; font-weight:bold;""
                            >negative</p>
                            <div style=""width:240px; margin: auto;"">
                                <img src=""images/B_D_U_33_darkshift.png"" style= ""width:200px""alt=""img"">
                            </div>
                        </div>","-18","","0","images/B_D_U_33_darkshift.png","","","","negative","2","B","D","U","darkshift","",""
"","","","","","html-slider-response","131","384407","0.0-127.0","t7fxkcz3dr","1","NaN","<div style=""width:500px;"">
                            <p style=""font-size:50px; font-weight:bold;""
                            >negative</p>
                            <div style=""width:240px; margin: auto;"">
                                <img src=""images/R_L_S_5_lightshift.png"" style= ""width:200px""alt=""img"">
                            </div>
                        </div>","-200","","0","images/R_L_S_5_lightshift.png","","","","negative","1","R","L","S","lightshift","",""
"","","","","","html-slider-response","132","386408","0.0-128.0","t7fxkcz3dr","1","NaN","<div style=""width:500px;"">
                            <p style=""font-size:50px; font-weight:bold;""
                            >negative</p>
                            <div style=""width:240px; margin: auto;"">
                                <img src=""images/G_L_U_15_darkshift.png"" style= ""width:200px""alt=""img"">
                            </div>
                        </div>","-200","","0","images/G_L_U_15_darkshift.png","","","","negative","1","G","L","U","darkshift","",""
"","","","","","html-slider-response","133","388124","0.0-129.0","t7fxkcz3dr","1","NaN","<div style=""width:500px;"">
                            <p style=""font-size:50px; font-weight:bold;""
                            >negative</p>
                            <div style=""width:240px; margin: auto;"">
                                <img src=""images/R_D_S_10_darkshift.png"" style= ""width:200px""alt=""img"">
                            </div>
                        </div>","-24","","0","images/R_D_S_10_darkshift.png","","","","negative","2","R","D","S","darkshift","",""
"","","","","","html-slider-response","134","390608","0.0-130.0","t7fxkcz3dr","1","NaN","<div style=""width:500px;"">
                            <p style=""font-size:50px; font-weight:bold;""
                            >negative</p>
                            <div style=""width:240px; margin: auto;"">
                                <img src=""images/R_D_U_12_darkshift.png"" style= ""width:200px""alt=""img"">
                            </div>
                        </div>","146","","0","images/R_D_U_12_darkshift.png","","","","negative","2","R","D","U","darkshift","",""
"","","","","","html-slider-response","135","392508","0.0-131.0","t7fxkcz3dr","1","NaN","<div style=""width:500px;"">
                            <p style=""font-size:50px; font-weight:bold;""
                            >negative</p>
                            <div style=""width:240px; margin: auto;"">
                                <img src=""images/R_L_S_5_darkshift.png"" style= ""width:200px""alt=""img"">
                            </div>
                        </div>","-200","","0","images/R_L_S_5_darkshift.png","","","","negative","1","R","L","S","darkshift","",""
"","","","","","html-slider-response","136","394174","0.0-132.0","t7fxkcz3dr","1","NaN","<div style=""width:500px;"">
                            <p style=""font-size:50px; font-weight:bold;""
                            >negative</p>
                            <div style=""width:240px; margin: auto;"">
                                <img src=""images/R_L_U_7_lightshift.png"" style= ""width:200px""alt=""img"">
                            </div>
                        </div>","-76","","0","images/R_L_U_7_lightshift.png","","","","negative","1","R","L","U","lightshift","",""
"","","","","","html-slider-response","137","395824","0.0-133.0","t7fxkcz3dr","1","NaN","<div style=""width:500px;"">
                            <p style=""font-size:50px; font-weight:bold;""
                            >negative</p>
                            <div style=""width:240px; margin: auto;"">
                                <img src=""images/B_L_U_28_lightshift.png"" style= ""width:200px""alt=""img"">
                            </div>
                        </div>","-34","","0","images/B_L_U_28_lightshift.png","","","","negative","2","B","L","U","lightshift","",""
"","","","","","html-slider-response","138","397390","0.0-134.0","t7fxkcz3dr","1","NaN","<div style=""width:500px;"">
                            <p style=""font-size:50px; font-weight:bold;""
                            >negative</p>
                            <div style=""width:240px; margin: auto;"">
                                <img src=""images/G_D_U_26_lightshift.png"" style= ""width:200px""alt=""img"">
                            </div>
                        </div>","-17","","0","images/G_D_U_26_lightshift.png","","","","negative","1","G","D","U","lightshift","",""
"","","","","","html-slider-response","139","399192","0.0-135.0","t7fxkcz3dr","1","NaN","<div style=""width:500px;"">
                            <p style=""font-size:50px; font-weight:bold;""
                            >negative</p>
                            <div style=""width:240px; margin: auto;"">
                                <img src=""images/R_L_S_5_darkshift.png"" style= ""width:200px""alt=""img"">
                            </div>
                        </div>","-200","","0","images/R_L_S_5_darkshift.png","","","","negative","2","R","L","S","darkshift","",""
"","","","","","html-slider-response","140","401092","0.0-136.0","t7fxkcz3dr","1","NaN","<div style=""width:500px;"">
                            <p style=""font-size:50px; font-weight:bold;""
                            >negative</p>
                            <div style=""width:240px; margin: auto;"">
                                <img src=""images/B_D_S_30_darkshift.png"" style= ""width:200px""alt=""img"">
                            </div>
                        </div>","-8","","0","images/B_D_S_30_darkshift.png","","","","negative","1","B","D","S","darkshift","",""
"","","","","","html-slider-response","141","402640","0.0-137.0","t7fxkcz3dr","1","NaN","<div style=""width:500px;"">
                            <p style=""font-size:50px; font-weight:bold;""
                            >negative</p>
                            <div style=""width:240px; margin: auto;"">
                                <img src=""images/B_L_S_27_lightshift.png"" style= ""width:200px""alt=""img"">
                            </div>
                        </div>","-58","","0","images/B_L_S_27_lightshift.png","","","","negative","2","B","L","S","lightshift","",""
"","","","","","html-slider-response","142","404341","0.0-138.0","t7fxkcz3dr","1","NaN","<div style=""width:500px;"">
                            <p style=""font-size:50px; font-weight:bold;""
                            >negative</p>
                            <div style=""width:240px; margin: auto;"">
                                <img src=""images/Y_D_S_44_darkshift.png"" style= ""width:200px""alt=""img"">
                            </div>
                        </div>","200","","0","images/Y_D_S_44_darkshift.png","","","","negative","2","Y","D","S","darkshift","",""
"","","","","","html-slider-response","143","406173","0.0-139.0","t7fxkcz3dr","1","NaN","<div style=""width:500px;"">
                            <p style=""font-size:50px; font-weight:bold;""
                            >negative</p>
                            <div style=""width:240px; margin: auto;"">
                                <img src=""images/G_L_U_15_darkshift.png"" style= ""width:200px""alt=""img"">
                            </div>
                        </div>","-49","","0","images/G_L_U_15_darkshift.png","","","","negative","2","G","L","U","darkshift","",""
"","","","","","html-slider-response","144","407824","0.0-140.0","t7fxkcz3dr","1","NaN","<div style=""width:500px;"">
                            <p style=""font-size:50px; font-weight:bold;""
                            >negative</p>
                            <div style=""width:240px; margin: auto;"">
                                <img src=""images/R_D_S_10_darkshift.png"" style= ""width:200px""alt=""img"">
                            </div>
                        </div>","-37","","0","images/R_D_S_10_darkshift.png","","","","negative","1","R","D","S","darkshift","",""
"","","","","","html-slider-response","145","409642","0.0-141.0","t7fxkcz3dr","1","NaN","<div style=""width:500px;"">
                            <p style=""font-size:50px; font-weight:bold;""
                            >negative</p>
                            <div style=""width:240px; margin: auto;"">
                                <img src=""images/R_D_U_12_lightshift.png"" style= ""width:200px""alt=""img"">
                            </div>
                        </div>","37","","0","images/R_D_U_12_lightshift.png","","","","negative","1","R","D","U","lightshift","",""
"","","","","","html-slider-response","146","411575","0.0-142.0","t7fxkcz3dr","1","NaN","<div style=""width:500px;"">
                            <p style=""font-size:50px; font-weight:bold;""
                            >negative</p>
                            <div style=""width:240px; margin: auto;"">
                                <img src=""images/R_D_U_12_lightshift.png"" style= ""width:200px""alt=""img"">
                            </div>
                        </div>","160","","0","images/R_D_U_12_lightshift.png","","","","negative","2","R","D","U","lightshift","",""
"","","","","","html-slider-response","147","413441","0.0-143.0","t7fxkcz3dr","1","NaN","<div style=""width:500px;"">
                            <p style=""font-size:50px; font-weight:bold;""
                            >negative</p>
                            <div style=""width:240px; margin: auto;"">
                                <img src=""images/G_D_S_23_lightshift.png"" style= ""width:200px""alt=""img"">
                            </div>
                        </div>","-119","","0","images/G_D_S_23_lightshift.png","","","","negative","2","G","D","S","lightshift","",""
"","","","","","html-button-response","148","454045","0.0-144.0","t7fxkcz3dr","1","40103","<p>Great Job! You've finished block 2.<br></br> You have 2 block(s) left to go.<br></br></p>","0","","","","","","","","","","","","","",""
"","","","","","html-button-response","149","455231","0.0-145.0","t7fxkcz3dr","1","1185","<p>In this block of trials, you will be asked to rate how much you associate each map with:</p > <p style = 'font-size:150%; font-weight: bold'>startling</p><br></br>","0","","","","","","","","","","","","","",""
"","","","","","html-slider-response","150","457125","0.0-146.0","t7fxkcz3dr","1","NaN","<div style=""width:500px;"">
                            <p style=""font-size:50px; font-weight:bold;""
                            >startling</p>
                            <div style=""width:240px; margin: auto;"">
                                <img src=""images/Y_D_S_44_lightshift.png"" style= ""width:200px""alt=""img"">
                            </div>
                        </div>","184","","0","images/Y_D_S_44_lightshift.png","","","","startling","2","Y","D","S","lightshift","",""
"","","","","","html-slider-response","151","458957","0.0-147.0","t7fxkcz3dr","1","NaN","<div style=""width:500px;"">
                            <p style=""font-size:50px; font-weight:bold;""
                            >startling</p>
                            <div style=""width:240px; margin: auto;"">
                                <img src=""images/B_L_S_27_darkshift.png"" style= ""width:200px""alt=""img"">
                            </div>
                        </div>","-92","","0","images/B_L_S_27_darkshift.png","","","","startling","2","B","L","S","darkshift","",""
"","","","","","html-slider-response","152","460842","0.0-148.0","t7fxkcz3dr","1","NaN","<div style=""width:500px;"">
                            <p style=""font-size:50px; font-weight:bold;""
                            >startling</p>
                            <div style=""width:240px; margin: auto;"">
                                <img src=""images/R_L_S_5_darkshift.png"" style= ""width:200px""alt=""img"">
                            </div>
                        </div>","-65","","0","images/R_L_S_5_darkshift.png","","","","startling","2","R","L","S","darkshift","",""
"","","","","","html-slider-response","153","462659","0.0-149.0","t7fxkcz3dr","1","NaN","<div style=""width:500px;"">
                            <p style=""font-size:50px; font-weight:bold;""
                            >startling</p>
                            <div style=""width:240px; margin: auto;"">
                                <img src=""images/Y_D_U_2_darkshift.png"" style= ""width:200px""alt=""img"">
                            </div>
                        </div>","162","","0","images/Y_D_U_2_darkshift.png","","","","startling","1","Y","D","U","darkshift","",""
"","","","","","html-slider-response","154","464357","0.0-150.0","t7fxkcz3dr","1","NaN","<div style=""width:500px;"">
                            <p style=""font-size:50px; font-weight:bold;""
                            >startling</p>
                            <div style=""width:240px; margin: auto;"">
                                <img src=""images/G_D_U_26_lightshift.png"" style= ""width:200px""alt=""img"">
                            </div>
                        </div>","-71","","0","images/G_D_U_26_lightshift.png","","","","startling","2","G","D","U","lightshift","",""
"","","","","","html-slider-response","155","466076","0.0-151.0","t7fxkcz3dr","1","NaN","<div style=""width:500px;"">
                            <p style=""font-size:50px; font-weight:bold;""
                            >startling</p>
                            <div style=""width:240px; margin: auto;"">
                                <img src=""images/G_D_S_23_lightshift.png"" style= ""width:200px""alt=""img"">
                            </div>
                        </div>","-162","","0","images/G_D_S_23_lightshift.png","","","","startling","2","G","D","S","lightshift","",""
"","","","","","html-slider-response","156","467708","0.0-152.0","t7fxkcz3dr","1","NaN","<div style=""width:500px;"">
                            <p style=""font-size:50px; font-weight:bold;""
                            >startling</p>
                            <div style=""width:240px; margin: auto;"">
                                <img src=""images/B_D_S_30_darkshift.png"" style= ""width:200px""alt=""img"">
                            </div>
                        </div>","-160","","0","images/B_D_S_30_darkshift.png","","","","startling","1","B","D","S","darkshift","",""
"","","","","","html-slider-response","157","469525","0.0-153.0","t7fxkcz3dr","1","NaN","<div style=""width:500px;"">
                            <p style=""font-size:50px; font-weight:bold;""
                            >startling</p>
                            <div style=""width:240px; margin: auto;"">
                                <img src=""images/G_D_U_26_darkshift.png"" style= ""width:200px""alt=""img"">
                            </div>
                        </div>","-36","","0","images/G_D_U_26_darkshift.png","","","","startling","2","G","D","U","darkshift","",""
"","","","","","html-slider-response","158","471074","0.0-154.0","t7fxkcz3dr","1","NaN","<div style=""width:500px;"">
                            <p style=""font-size:50px; font-weight:bold;""
                            >startling</p>
                            <div style=""width:240px; margin: auto;"">
                                <img src=""images/G_D_S_23_lightshift.png"" style= ""width:200px""alt=""img"">
                            </div>
                        </div>","-166","","0","images/G_D_S_23_lightshift.png","","","","startling","1","G","D","S","lightshift","",""
"","","","","","html-slider-response","159","472742","0.0-155.0","t7fxkcz3dr","1","NaN","<div style=""width:500px;"">
                            <p style=""font-size:50px; font-weight:bold;""
                            >startling</p>
                            <div style=""width:240px; margin: auto;"">
                                <img src=""images/G_D_S_23_darkshift.png"" style= ""width:200px""alt=""img"">
                            </div>
                        </div>","-106","","0","images/G_D_S_23_darkshift.png","","","","startling","2","G","D","S","darkshift","",""
"","","","","","html-slider-response","160","474508","0.0-156.0","t7fxkcz3dr","1","NaN","<div style=""width:500px;"">
                            <p style=""font-size:50px; font-weight:bold;""
                            >startling</p>
                            <div style=""width:240px; margin: auto;"">
                                <img src=""images/Y_D_U_2_darkshift.png"" style= ""width:200px""alt=""img"">
                            </div>
                        </div>","200","","0","images/Y_D_U_2_darkshift.png","","","","startling","2","Y","D","U","darkshift","",""
"","","","","","html-slider-response","161","476709","0.0-157.0","t7fxkcz3dr","1","NaN","<div style=""width:500px;"">
                            <p style=""font-size:50px; font-weight:bold;""
                            >startling</p>
                            <div style=""width:240px; margin: auto;"">
                                <img src=""images/Y_L_U_41_lightshift.png"" style= ""width:200px""alt=""img"">
                            </div>
                        </div>","11","","0","images/Y_L_U_41_lightshift.png","","","","startling","2","Y","L","U","lightshift","",""
"","","","","","html-slider-response","162","478690","0.0-158.0","t7fxkcz3dr","1","NaN","<div style=""width:500px;"">
                            <p style=""font-size:50px; font-weight:bold;""
                            >startling</p>
                            <div style=""width:240px; margin: auto;"">
                                <img src=""images/G_L_S_13_lightshift.png"" style= ""width:200px""alt=""img"">
                            </div>
                        </div>","-200","","0","images/G_L_S_13_lightshift.png","","","","startling","2","G","L","S","lightshift","",""
"","","","","","html-slider-response","163","480609","0.0-159.0","t7fxkcz3dr","1","NaN","<div style=""width:500px;"">
                            <p style=""font-size:50px; font-weight:bold;""
                            >startling</p>
                            <div style=""width:240px; margin: auto;"">
                                <img src=""images/B_L_S_27_lightshift.png"" style= ""width:200px""alt=""img"">
                            </div>
                        </div>","-200","","0","images/B_L_S_27_lightshift.png","","","","startling","1","B","L","S","lightshift","",""
"","","","","","html-slider-response","164","482459","0.0-160.0","t7fxkcz3dr","1","NaN","<div style=""width:500px;"">
                            <p style=""font-size:50px; font-weight:bold;""
                            >startling</p>
                            <div style=""width:240px; margin: auto;"">
                                <img src=""images/R_D_S_10_lightshift.png"" style= ""width:200px""alt=""img"">
                            </div>
                        </div>","-200","","0","images/R_D_S_10_lightshift.png","","","","startling","2","R","D","S","lightshift","",""
"","","","","","html-slider-response","165","484842","0.0-161.0","t7fxkcz3dr","1","NaN","<div style=""width:500px;"">
                            <p style=""font-size:50px; font-weight:bold;""
                            >startling</p>
                            <div style=""width:240px; margin: auto;"">
                                <img src=""images/R_L_S_5_lightshift.png"" style= ""width:200px""alt=""img"">
                            </div>
                        </div>","-187","","0","images/R_L_S_5_lightshift.png","","","","startling","1","R","L","S","lightshift","",""
"","","","","","html-slider-response","166","487710","0.0-162.0","t7fxkcz3dr","1","NaN","<div style=""width:500px;"">
                            <p style=""font-size:50px; font-weight:bold;""
                            >startling</p>
                            <div style=""width:240px; margin: auto;"">
                                <img src=""images/B_D_U_33_lightshift.png"" style= ""width:200px""alt=""img"">
                            </div>
                        </div>","1","","0","images/B_D_U_33_lightshift.png","","","","startling","1","B","D","U","lightshift","",""
"","","","","","html-slider-response","167","489540","0.0-163.0","t7fxkcz3dr","1","NaN","<div style=""width:500px;"">
                            <p style=""font-size:50px; font-weight:bold;""
                            >startling</p>
                            <div style=""width:240px; margin: auto;"">
                                <img src=""images/Y_D_S_44_lightshift.png"" style= ""width:200px""alt=""img"">
                            </div>
                        </div>","200","","0","images/Y_D_S_44_lightshift.png","","","","startling","1","Y","D","S","lightshift","",""
"","","","","","html-slider-response","168","491806","0.0-164.0","t7fxkcz3dr","1","NaN","<div style=""width:500px;"">
                            <p style=""font-size:50px; font-weight:bold;""
                            >startling</p>
                            <div style=""width:240px; margin: auto;"">
                                <img src=""images/R_L_S_5_darkshift.png"" style= ""width:200px""alt=""img"">
                            </div>
                        </div>","-123","","0","images/R_L_S_5_darkshift.png","","","","startling","1","R","L","S","darkshift","",""
"","","","","","html-slider-response","169","493826","0.0-165.0","t7fxkcz3dr","1","NaN","<div style=""width:500px;"">
                            <p style=""font-size:50px; font-weight:bold;""
                            >startling</p>
                            <div style=""width:240px; margin: auto;"">
                                <img src=""images/R_L_U_7_lightshift.png"" style= ""width:200px""alt=""img"">
                            </div>
                        </div>","116","","0","images/R_L_U_7_lightshift.png","","","","startling","2","R","L","U","lightshift","",""
"","","","","","html-slider-response","170","495507","0.0-166.0","t7fxkcz3dr","1","NaN","<div style=""width:500px;"">
                            <p style=""font-size:50px; font-weight:bold;""
                            >startling</p>
                            <div style=""width:240px; margin: auto;"">
                                <img src=""images/R_D_U_12_darkshift.png"" style= ""width:200px""alt=""img"">
                            </div>
                        </div>","52","","0","images/R_D_U_12_darkshift.png","","","","startling","1","R","D","U","darkshift","",""
"","","","","","html-slider-response","171","497124","0.0-167.0","t7fxkcz3dr","1","NaN","<div style=""width:500px;"">
                            <p style=""font-size:50px; font-weight:bold;""
                            >startling</p>
                            <div style=""width:240px; margin: auto;"">
                                <img src=""images/B_L_U_28_darkshift.png"" style= ""width:200px""alt=""img"">
                            </div>
                        </div>","-61","","0","images/B_L_U_28_darkshift.png","","","","startling","1","B","L","U","darkshift","",""
"","","","","","html-slider-response","172","498859","0.0-168.0","t7fxkcz3dr","1","NaN","<div style=""width:500px;"">
                            <p style=""font-size:50px; font-weight:bold;""
                            >startling</p>
                            <div style=""width:240px; margin: auto;"">
                                <img src=""images/R_D_S_10_lightshift.png"" style= ""width:200px""alt=""img"">
                            </div>
                        </div>","-154","","0","images/R_D_S_10_lightshift.png","","","","startling","1","R","D","S","lightshift","",""
