"success","timeout","failed_images","failed_audio","failed_video","trial_type","trial_index","time_elapsed","internal_node_id","subject_id","condition_num","rt","stimulus","response","question_order","slider_start","image_path","practiceTrial","practiceTrialNum","correct","concept","repetition","hue","lightness","saturation","shift","ishihara_plate","correct_response"
"true","false","[]","[]","[]","preload","0","309","0.0-0.0","t7oywamb20","3","","","","","","","","","","","","","","","","",""
"","","","","","html-button-response","1","11202","0.0-1.0","t7oywamb20","3","10892","Welcome to our experiment!<p>At the bottom of this screen, you will see a button that says ""Begin Experiment"".<br>Please only click that button when you are ready to complete the 25 minute experiment in one sitting.</p><p> Once you click that button, it will not be possible to restart the experiment.","0","","","","","","","","","","","","","",""
"true","","","","","fullscreen","2","15774","0.0-2.0","t7oywamb20","3","3564","","","","","","","","","","","","","","","",""
"","","","","","survey-multi-select","3","44487","0.0-3.0","t7oywamb20","3","28728","","{""Consent"":[""<strong>I consent</strong>""]}","[0]","","","","","","","","","","","","",""
"","","","","","html-button-response","4","45531","0.0-4.0","t7oywamb20","3","1044","Welcome! <p> This experiment involves two parts: demographic information, followed by the experimental task.<p> It will take about 25 minutes to complete both parts.","0","","","","","","","","","","","","","",""
"","","","","","survey-text","5","58219","0.0-5.0","t7oywamb20","3","12685","","{""Age"":""21"",""Gender"":""Female"",""Race/ethnicity"":""Southeast Asian"",""Languages"":""Khmer and English""}","","","","","","","","","","","","","",""
"","","","","","html-slider-response","6","97007","0.0-6.0","t7oywamb20","3","38789","
                            <div style='text-align:left; font-size:20px; line-height:25px; width: 1400px;'>
                                During this experiment you will be asked to rate how much you associate maps with                    different concepts.<br> Below, you can see some examples of the maps you will be asked to rate. Next to the maps
                    is the list of concepts.<br>You will be asked                    to rate how much you associate each map with each concept on a scale from 'not at all' to 'very much' like the
                    one below. <br><br>
                    Now, please look at the list of concepts and maps. For each concept, think about the map you associate 'very
                    much' with the concept.<br>                     When you see that map during the experiment, please rate it near the 'very much' endpoint of the
                    scale.<br>Now, please think about which map you associate 'not at all'                     with each concept. When you see that map during the experiment, please rate it near the 'not at all' endpoint
                    of the scale.<br>
                    Please use the full range of the scale. That is, if a map is somewhat associated with the concept, you would
                    click partway between the middle point and right side of the scale.                    You will be asked to rate each map for a given concept before moving on to the next concept.<br><br>Press the
                    'Continue' button for instructions on how to use the slider.                    <br><br>
                </div>

                <div style=""width: 500px; margin: 0 auto;"">
                    <!-- Centered text paragraphs -->
                    <div style=""text-align: center; width: 500px;"">
                        <p style=""font-size:25px; line-height:18px;"">calm</p>
                        <p style=""font-size:25px; line-height:18px;"">positive</p>
                        <p style=""font-size:25px;line-height:18px;"">negative</p>
                        <p style=""font-size:25px;line-height:18px;"">startling</p>
                    </div>

                    <!-- Grid section -->
                   <div style=""display: flex; justify-content: center; padding-top: 15px;"">
                    <div style=""display: grid; grid-template-columns: repeat(8, 80px); grid-gap: 5px; width: auto;"">
                        <img src=""images/G_D_S_27_lightshift.png"" alt=""map"" style=""width: 100%;""><img src=""images/R_L_S_10_lightshift.png"" alt=""map"" style=""width: 100%;""><img src=""images/R_D_U_15_lightshift.png"" alt=""map"" style=""width: 100%;""><img src=""images/Y_L_U_2_lightshift.png"" alt=""map"" style=""width: 100%;""><img src=""images/Y_D_U_7_darkshift.png"" alt=""map"" style=""width: 100%;""><img src=""images/G_L_S_23_lightshift.png"" alt=""map"" style=""width: 100%;""><img src=""images/R_L_U_12_lightshift.png"" alt=""map"" style=""width: 100%;""><img src=""images/Y_D_U_7_lightshift.png"" alt=""map"" style=""width: 100%;""><img src=""images/B_L_S_30_darkshift.png"" alt=""map"" style=""width: 100%;""><img src=""images/Y_L_S_44_lightshift.png"" alt=""map"" style=""width: 100%;""><img src=""images/G_L_U_26_darkshift.png"" alt=""map"" style=""width: 100%;""><img src=""images/Y_D_S_5_darkshift.png"" alt=""map"" style=""width: 100%;""><img src=""images/G_D_U_28_darkshift.png"" alt=""map"" style=""width: 100%;""><img src=""images/G_D_U_28_lightshift.png"" alt=""map"" style=""width: 100%;""><img src=""images/B_L_U_33_darkshift.png"" alt=""map"" style=""width: 100%;""><img src=""images/R_D_U_15_darkshift.png"" alt=""map"" style=""width: 100%;""><img src=""images/R_L_U_12_darkshift.png"" alt=""map"" style=""width: 100%;""><img src=""images/R_D_S_13_darkshift.png"" alt=""map"" style=""width: 100%;""><img src=""images/B_L_U_33_lightshift.png"" alt=""map"" style=""width: 100%;""><img src=""images/Y_L_U_2_darkshift.png"" alt=""map"" style=""width: 100%;""><img src=""images/R_L_S_10_darkshift.png"" alt=""map"" style=""width: 100%;""><img src=""images/Y_L_S_44_darkshift.png"" alt=""map"" style=""width: 100%;""><img src=""images/G_L_S_23_darkshift.png"" alt=""map"" style=""width: 100%;""><img src=""images/G_D_S_27_darkshift.png"" alt=""map"" style=""width: 100%;""><img src=""images/B_D_S_37_darkshift.png"" alt=""map"" style=""width: 100%;""><img src=""images/B_D_U_41_lightshift.png"" alt=""map"" style=""width: 100%;""><img src=""images/R_D_S_13_lightshift.png"" alt=""map"" style=""width: 100%;""><img src=""images/B_L_S_30_lightshift.png"" alt=""map"" style=""width: 100%;""><img src=""images/B_D_S_37_lightshift.png"" alt=""map"" style=""width: 100%;""><img src=""images/G_L_U_26_lightshift.png"" alt=""map"" style=""width: 100%;""><img src=""images/B_D_U_41_darkshift.png"" alt=""map"" style=""width: 100%;""><img src=""images/Y_D_S_5_lightshift.png"" alt=""map"" style=""width: 100%;"">
                    </div>
                </div>

                    <!-- Clear floats -->
                    <div style=""clear: both;""></div>
                </div>
                            ","null","","0","maps_anchoring.png","true","","","","","","","","","",""
"","","","","","html-button-response","7","101319","0.0-7.0","t7oywamb20","3","4311","<div style=""width:800px;""><p style=""text-align:left"">To move the slider, click and drag your cursor to the location of the scale where you would like to make your rating and then let go. When you let go of the slider, your response will be recorded and the next trial will begin. <br>
                    We are interested in your initial impressions of each map for the given concept, so please go with your first intuition. <br>
                    Before you begin the experiment, there will be four training trials for you to practice using the scale. <br>
                     When you are ready to start the training trials, please click ""Continue"".</p><br></div>","0","","","","","","","","","","","","","",""
"","","","","","html-slider-response","8","106255","0.0-8.0-0.0","t7oywamb20","3","NaN","<div style=""width:500px;"">
                                    <p style=""font-size:25px;"">Please move the slider all the way to the <br> right endpoint of the scale</p>

                                    </div>
                                </div>","200","","0","","true","0","true","","","","","","","",""
"","","","","","html-button-response","9","107682","0.0-8.0-1.0","t7oywamb20","3","922","<p align='center'><b>Good job!</b> Click on 'Continue' to proceed.</p>","0","","","","","","","","","","","","","",""
"","","","","","html-slider-response","10","109697","0.0-9.0-0.0","t7oywamb20","3","NaN","<div style=""width:500px;"">
                                    <p style=""font-size:25px;"">Please move the slider all the way to the <br> left endpoint of the scale</p>

                                    </div>
                                </div>","-200","","0","","true","1","true","","","","","","","",""
"","","","","","html-button-response","11","111125","0.0-9.0-1.0","t7oywamb20","3","926","<p align='center'><b>Good job!</b> Click on 'Continue' to proceed.</p>","0","","","","","","","","","","","","","",""
"","","","","","html-slider-response","12","122964","0.0-10.0-0.0","t7oywamb20","3","NaN","<div style=""width:500px;"">
                                    <p style=""font-size:25px;"">Please move the slider halfway between the center and right endpoint of the scale</p>

                                    </div>
                                </div>","102","","0","","true","2","true","","","","","","","",""
"","","","","","html-button-response","13","124168","0.0-10.0-1.0","t7oywamb20","3","702","<p align='center'><b>Good job!</b> Click on 'Continue' to proceed.</p>","0","","","","","","","","","","","","","",""
"","","","","","html-slider-response","14","126627","0.0-11.0-0.0","t7oywamb20","3","NaN","<div style=""width:500px;"">
                                    <p style=""font-size:25px;"">Please move the slider halfway between the center and left endpoint of the scale</p>

                                    </div>
                                </div>","-105","","0","","true","3","true","","","","","","","",""
"","","","","","html-button-response","15","127909","0.0-11.0-1.0","t7oywamb20","3","780","<p align='center'><b>Good job!</b> Click on 'Continue' to proceed.</p>","0","","","","","","","","","","","","","",""
"","","","","","html-button-response","16","128898","0.0-12.0","t7oywamb20","3","989","<p>Great job! You've completed the practice trials. Now you will begin the main task.</p>","0","","","","","","","","","","","","","",""
"","","","","","html-button-response","17","132052","0.0-13.0","t7oywamb20","3","3154","<p>In this block of trials, you will be asked to rate how much you associate each map with:</p > <p style = 'font-size:150%; font-weight: bold'>positive</p><br></br>","0","","","","","","","","","","","","","",""
"","","","","","html-slider-response","18","138526","0.0-14.0","t7oywamb20","3","NaN","<div style=""width:500px;"">
                            <p style=""font-size:50px; font-weight:bold;""
                            >positive</p>
                            <div style=""width:240px; margin: auto;"">
                                <img src=""images/R_D_U_15_lightshift.png"" style= ""width:200px""alt=""img"">
                            </div>
                        </div>","-105","","0","images/R_D_U_15_lightshift.png","","","","positive","2","R","D","U","lightshift","",""
"","","","","","html-slider-response","19","142476","0.0-15.0","t7oywamb20","3","NaN","<div style=""width:500px;"">
                            <p style=""font-size:50px; font-weight:bold;""
                            >positive</p>
                            <div style=""width:240px; margin: auto;"">
                                <img src=""images/R_D_U_15_lightshift.png"" style= ""width:200px""alt=""img"">
                            </div>
                        </div>","-114","","0","images/R_D_U_15_lightshift.png","","","","positive","1","R","D","U","lightshift","",""
"","","","","","html-slider-response","20","146902","0.0-16.0","t7oywamb20","3","NaN","<div style=""width:500px;"">
                            <p style=""font-size:50px; font-weight:bold;""
                            >positive</p>
                            <div style=""width:240px; margin: auto;"">
                                <img src=""images/G_D_S_27_lightshift.png"" style= ""width:200px""alt=""img"">
                            </div>
                        </div>","66","","0","images/G_D_S_27_lightshift.png","","","","positive","1","G","D","S","lightshift","",""
"","","","","","html-slider-response","21","149243","0.0-17.0","t7oywamb20","3","NaN","<div style=""width:500px;"">
                            <p style=""font-size:50px; font-weight:bold;""
                            >positive</p>
                            <div style=""width:240px; margin: auto;"">
                                <img src=""images/B_L_U_33_lightshift.png"" style= ""width:200px""alt=""img"">
                            </div>
                        </div>","16","","0","images/B_L_U_33_lightshift.png","","","","positive","2","B","L","U","lightshift","",""
"","","","","","html-slider-response","22","151428","0.0-18.0","t7oywamb20","3","NaN","<div style=""width:500px;"">
                            <p style=""font-size:50px; font-weight:bold;""
                            >positive</p>
                            <div style=""width:240px; margin: auto;"">
                                <img src=""images/R_L_S_10_lightshift.png"" style= ""width:200px""alt=""img"">
                            </div>
                        </div>","-21","","0","images/R_L_S_10_lightshift.png","","","","positive","1","R","L","S","lightshift","",""
"","","","","","html-slider-response","23","154110","0.0-19.0","t7oywamb20","3","NaN","<div style=""width:500px;"">
                            <p style=""font-size:50px; font-weight:bold;""
                            >positive</p>
                            <div style=""width:240px; margin: auto;"">
                                <img src=""images/R_L_S_10_darkshift.png"" style= ""width:200px""alt=""img"">
                            </div>
                        </div>","-92","","0","images/R_L_S_10_darkshift.png","","","","positive","2","R","L","S","darkshift","",""
"","","","","","html-slider-response","24","156232","0.0-20.0","t7oywamb20","3","NaN","<div style=""width:500px;"">
                            <p style=""font-size:50px; font-weight:bold;""
                            >positive</p>
                            <div style=""width:240px; margin: auto;"">
                                <img src=""images/Y_L_S_44_darkshift.png"" style= ""width:200px""alt=""img"">
                            </div>
                        </div>","132","","0","images/Y_L_S_44_darkshift.png","","","","positive","2","Y","L","S","darkshift","",""
"","","","","","html-slider-response","25","159308","0.0-21.0","t7oywamb20","3","NaN","<div style=""width:500px;"">
                            <p style=""font-size:50px; font-weight:bold;""
                            >positive</p>
                            <div style=""width:240px; margin: auto;"">
                                <img src=""images/Y_D_S_5_lightshift.png"" style= ""width:200px""alt=""img"">
                            </div>
                        </div>","89","","0","images/Y_D_S_5_lightshift.png","","","","positive","2","Y","D","S","lightshift","",""
"","","","","","html-slider-response","26","161211","0.0-22.0","t7oywamb20","3","NaN","<div style=""width:500px;"">
                            <p style=""font-size:50px; font-weight:bold;""
                            >positive</p>
                            <div style=""width:240px; margin: auto;"">
                                <img src=""images/B_D_U_41_lightshift.png"" style= ""width:200px""alt=""img"">
                            </div>
                        </div>","27","","0","images/B_D_U_41_lightshift.png","","","","positive","2","B","D","U","lightshift","",""
"","","","","","html-slider-response","27","163063","0.0-23.0","t7oywamb20","3","NaN","<div style=""width:500px;"">
                            <p style=""font-size:50px; font-weight:bold;""
                            >positive</p>
                            <div style=""width:240px; margin: auto;"">
                                <img src=""images/Y_D_U_7_lightshift.png"" style= ""width:200px""alt=""img"">
                            </div>
                        </div>","-175","","0","images/Y_D_U_7_lightshift.png","","","","positive","2","Y","D","U","lightshift","",""
"","","","","","html-slider-response","28","165012","0.0-24.0","t7oywamb20","3","NaN","<div style=""width:500px;"">
                            <p style=""font-size:50px; font-weight:bold;""
                            >positive</p>
                            <div style=""width:240px; margin: auto;"">
                                <img src=""images/R_D_U_15_darkshift.png"" style= ""width:200px""alt=""img"">
                            </div>
                        </div>","-200","","0","images/R_D_U_15_darkshift.png","","","","positive","1","R","D","U","darkshift","",""
"","","","","","html-slider-response","29","167175","0.0-25.0","t7oywamb20","3","NaN","<div style=""width:500px;"">
                            <p style=""font-size:50px; font-weight:bold;""
                            >positive</p>
                            <div style=""width:240px; margin: auto;"">
                                <img src=""images/G_D_S_27_darkshift.png"" style= ""width:200px""alt=""img"">
                            </div>
                        </div>","43","","0","images/G_D_S_27_darkshift.png","","","","positive","2","G","D","S","darkshift","",""
"","","","","","html-slider-response","30","168833","0.0-26.0","t7oywamb20","3","NaN","<div style=""width:500px;"">
                            <p style=""font-size:50px; font-weight:bold;""
                            >positive</p>
                            <div style=""width:240px; margin: auto;"">
                                <img src=""images/R_D_S_13_darkshift.png"" style= ""width:200px""alt=""img"">
                            </div>
                        </div>","-45","","0","images/R_D_S_13_darkshift.png","","","","positive","2","R","D","S","darkshift","",""
"","","","","","html-slider-response","31","170887","0.0-27.0","t7oywamb20","3","NaN","<div style=""width:500px;"">
                            <p style=""font-size:50px; font-weight:bold;""
                            >positive</p>
                            <div style=""width:240px; margin: auto;"">
                                <img src=""images/B_L_S_30_lightshift.png"" style= ""width:200px""alt=""img"">
                            </div>
                        </div>","49","","0","images/B_L_S_30_lightshift.png","","","","positive","1","B","L","S","lightshift","",""
"","","","","","html-slider-response","32","173395","0.0-28.0","t7oywamb20","3","NaN","<div style=""width:500px;"">
                            <p style=""font-size:50px; font-weight:bold;""
                            >positive</p>
                            <div style=""width:240px; margin: auto;"">
                                <img src=""images/R_D_S_13_lightshift.png"" style= ""width:200px""alt=""img"">
                            </div>
                        </div>","-38","","0","images/R_D_S_13_lightshift.png","","","","positive","2","R","D","S","lightshift","",""
"","","","","","html-slider-response","33","175127","0.0-29.0","t7oywamb20","3","NaN","<div style=""width:500px;"">
                            <p style=""font-size:50px; font-weight:bold;""
                            >positive</p>
                            <div style=""width:240px; margin: auto;"">
                                <img src=""images/Y_L_S_44_darkshift.png"" style= ""width:200px""alt=""img"">
                            </div>
                        </div>","28","","0","images/Y_L_S_44_darkshift.png","","","","positive","1","Y","L","S","darkshift","",""
"","","","","","html-slider-response","34","177015","0.0-30.0","t7oywamb20","3","NaN","<div style=""width:500px;"">
                            <p style=""font-size:50px; font-weight:bold;""
                            >positive</p>
                            <div style=""width:240px; margin: auto;"">
                                <img src=""images/B_L_U_33_darkshift.png"" style= ""width:200px""alt=""img"">
                            </div>
                        </div>","44","","0","images/B_L_U_33_darkshift.png","","","","positive","1","B","L","U","darkshift","",""
"","","","","","html-slider-response","35","178827","0.0-31.0","t7oywamb20","3","NaN","<div style=""width:500px;"">
                            <p style=""font-size:50px; font-weight:bold;""
                            >positive</p>
                            <div style=""width:240px; margin: auto;"">
                                <img src=""images/Y_D_U_7_darkshift.png"" style= ""width:200px""alt=""img"">
                            </div>
                        </div>","-164","","0","images/Y_D_U_7_darkshift.png","","","","positive","1","Y","D","U","darkshift","",""
"","","","","","html-slider-response","36","180653","0.0-32.0","t7oywamb20","3","NaN","<div style=""width:500px;"">
                            <p style=""font-size:50px; font-weight:bold;""
                            >positive</p>
                            <div style=""width:240px; margin: auto;"">
                                <img src=""images/G_L_U_26_darkshift.png"" style= ""width:200px""alt=""img"">
                            </div>
                        </div>","22","","0","images/G_L_U_26_darkshift.png","","","","positive","1","G","L","U","darkshift","",""
"","","","","","html-slider-response","37","182842","0.0-33.0","t7oywamb20","3","NaN","<div style=""width:500px;"">
                            <p style=""font-size:50px; font-weight:bold;""
                            >positive</p>
                            <div style=""width:240px; margin: auto;"">
                                <img src=""images/G_D_U_28_darkshift.png"" style= ""width:200px""alt=""img"">
                            </div>
                        </div>","11","","0","images/G_D_U_28_darkshift.png","","","","positive","2","G","D","U","darkshift","",""
"","","","","","html-slider-response","38","184853","0.0-34.0","t7oywamb20","3","NaN","<div style=""width:500px;"">
                            <p style=""font-size:50px; font-weight:bold;""
                            >positive</p>
                            <div style=""width:240px; margin: auto;"">
                                <img src=""images/B_L_U_33_darkshift.png"" style= ""width:200px""alt=""img"">
                            </div>
                        </div>","26","","0","images/B_L_U_33_darkshift.png","","","","positive","2","B","L","U","darkshift","",""
"","","","","","html-slider-response","39","186841","0.0-35.0","t7oywamb20","3","NaN","<div style=""width:500px;"">
                            <p style=""font-size:50px; font-weight:bold;""
                            >positive</p>
                            <div style=""width:240px; margin: auto;"">
                                <img src=""images/R_L_S_10_lightshift.png"" style= ""width:200px""alt=""img"">
                            </div>
                        </div>","-90","","0","images/R_L_S_10_lightshift.png","","","","positive","2","R","L","S","lightshift","",""
"","","","","","html-slider-response","40","188426","0.0-36.0","t7oywamb20","3","NaN","<div style=""width:500px;"">
                            <p style=""font-size:50px; font-weight:bold;""
                            >positive</p>
                            <div style=""width:240px; margin: auto;"">
                                <img src=""images/G_L_S_23_darkshift.png"" style= ""width:200px""alt=""img"">
                            </div>
                        </div>","77","","0","images/G_L_S_23_darkshift.png","","","","positive","1","G","L","S","darkshift","",""
"","","","","","html-slider-response","41","190244","0.0-37.0","t7oywamb20","3","NaN","<div style=""width:500px;"">
                            <p style=""font-size:50px; font-weight:bold;""
                            >positive</p>
                            <div style=""width:240px; margin: auto;"">
                                <img src=""images/Y_L_U_2_darkshift.png"" style= ""width:200px""alt=""img"">
                            </div>
                        </div>","154","","0","images/Y_L_U_2_darkshift.png","","","","positive","1","Y","L","U","darkshift","",""
"","","","","","html-slider-response","42","193100","0.0-38.0","t7oywamb20","3","NaN","<div style=""width:500px;"">
                            <p style=""font-size:50px; font-weight:bold;""
                            >positive</p>
                            <div style=""width:240px; margin: auto;"">
                                <img src=""images/Y_D_S_5_darkshift.png"" style= ""width:200px""alt=""img"">
                            </div>
                        </div>","10","","0","images/Y_D_S_5_darkshift.png","","","","positive","2","Y","D","S","darkshift","",""
"","","","","","html-slider-response","43","195013","0.0-39.0","t7oywamb20","3","NaN","<div style=""width:500px;"">
                            <p style=""font-size:50px; font-weight:bold;""
                            >positive</p>
                            <div style=""width:240px; margin: auto;"">
                                <img src=""images/R_D_S_13_darkshift.png"" style= ""width:200px""alt=""img"">
                            </div>
                        </div>","-118","","0","images/R_D_S_13_darkshift.png","","","","positive","1","R","D","S","darkshift","",""
"","","","","","html-slider-response","44","196478","0.0-40.0","t7oywamb20","3","NaN","<div style=""width:500px;"">
                            <p style=""font-size:50px; font-weight:bold;""
                            >positive</p>
                            <div style=""width:240px; margin: auto;"">
                                <img src=""images/B_D_S_37_lightshift.png"" style= ""width:200px""alt=""img"">
                            </div>
                        </div>","51","","0","images/B_D_S_37_lightshift.png","","","","positive","1","B","D","S","lightshift","",""
"","","","","","html-slider-response","45","198370","0.0-41.0","t7oywamb20","3","NaN","<div style=""width:500px;"">
                            <p style=""font-size:50px; font-weight:bold;""
                            >positive</p>
                            <div style=""width:240px; margin: auto;"">
                                <img src=""images/R_L_U_12_darkshift.png"" style= ""width:200px""alt=""img"">
                            </div>
                        </div>","-33","","0","images/R_L_U_12_darkshift.png","","","","positive","2","R","L","U","darkshift","",""
"","","","","","html-slider-response","46","200130","0.0-42.0","t7oywamb20","3","NaN","<div style=""width:500px;"">
                            <p style=""font-size:50px; font-weight:bold;""
                            >positive</p>
                            <div style=""width:240px; margin: auto;"">
                                <img src=""images/G_L_S_23_darkshift.png"" style= ""width:200px""alt=""img"">
                            </div>
                        </div>","54","","0","images/G_L_S_23_darkshift.png","","","","positive","2","G","L","S","darkshift","",""
"","","","","","html-slider-response","47","202127","0.0-43.0","t7oywamb20","3","NaN","<div style=""width:500px;"">
                            <p style=""font-size:50px; font-weight:bold;""
                            >positive</p>
                            <div style=""width:240px; margin: auto;"">
                                <img src=""images/R_L_U_12_lightshift.png"" style= ""width:200px""alt=""img"">
                            </div>
                        </div>","-9","","0","images/R_L_U_12_lightshift.png","","","","positive","1","R","L","U","lightshift","",""
"","","","","","html-slider-response","48","204106","0.0-44.0","t7oywamb20","3","NaN","<div style=""width:500px;"">
                            <p style=""font-size:50px; font-weight:bold;""
                            >positive</p>
                            <div style=""width:240px; margin: auto;"">
                                <img src=""images/G_L_S_23_lightshift.png"" style= ""width:200px""alt=""img"">
                            </div>
                        </div>","9","","0","images/G_L_S_23_lightshift.png","","","","positive","2","G","L","S","lightshift","",""
"","","","","","html-slider-response","49","206238","0.0-45.0","t7oywamb20","3","NaN","<div style=""width:500px;"">
                            <p style=""font-size:50px; font-weight:bold;""
                            >positive</p>
                            <div style=""width:240px; margin: auto;"">
                                <img src=""images/B_D_U_41_darkshift.png"" style= ""width:200px""alt=""img"">
                            </div>
                        </div>","7","","0","images/B_D_U_41_darkshift.png","","","","positive","2","B","D","U","darkshift","",""
"","","","","","html-slider-response","50","207935","0.0-46.0","t7oywamb20","3","NaN","<div style=""width:500px;"">
                            <p style=""font-size:50px; font-weight:bold;""
                            >positive</p>
                            <div style=""width:240px; margin: auto;"">
                                <img src=""images/G_D_S_27_lightshift.png"" style= ""width:200px""alt=""img"">
                            </div>
                        </div>","6","","0","images/G_D_S_27_lightshift.png","","","","positive","2","G","D","S","lightshift","",""
"","","","","","html-slider-response","51","209545","0.0-47.0","t7oywamb20","3","NaN","<div style=""width:500px;"">
                            <p style=""font-size:50px; font-weight:bold;""
                            >positive</p>
                            <div style=""width:240px; margin: auto;"">
                                <img src=""images/G_D_U_28_lightshift.png"" style= ""width:200px""alt=""img"">
                            </div>
                        </div>","6","","0","images/G_D_U_28_lightshift.png","","","","positive","2","G","D","U","lightshift","",""
"","","","","","html-slider-response","52","211442","0.0-48.0","t7oywamb20","3","NaN","<div style=""width:500px;"">
                            <p style=""font-size:50px; font-weight:bold;""
                            >positive</p>
                            <div style=""width:240px; margin: auto;"">
                                <img src=""images/Y_L_S_44_lightshift.png"" style= ""width:200px""alt=""img"">
                            </div>
                        </div>","72","","0","images/Y_L_S_44_lightshift.png","","","","positive","1","Y","L","S","lightshift","",""
"","","","","","html-slider-response","53","213228","0.0-49.0","t7oywamb20","3","NaN","<div style=""width:500px;"">
                            <p style=""font-size:50px; font-weight:bold;""
                            >positive</p>
                            <div style=""width:240px; margin: auto;"">
                                <img src=""images/G_L_U_26_lightshift.png"" style= ""width:200px""alt=""img"">
                            </div>
                        </div>","124","","0","images/G_L_U_26_lightshift.png","","","","positive","1","G","L","U","lightshift","",""
"","","","","","html-slider-response","54","215273","0.0-50.0","t7oywamb20","3","NaN","<div style=""width:500px;"">
                            <p style=""font-size:50px; font-weight:bold;""
                            >positive</p>
                            <div style=""width:240px; margin: auto;"">
                                <img src=""images/G_D_U_28_darkshift.png"" style= ""width:200px""alt=""img"">
                            </div>
                        </div>","1","","0","images/G_D_U_28_darkshift.png","","","","positive","1","G","D","U","darkshift","",""
"","","","","","html-slider-response","55","217074","0.0-51.0","t7oywamb20","3","NaN","<div style=""width:500px;"">
                            <p style=""font-size:50px; font-weight:bold;""
                            >positive</p>
                            <div style=""width:240px; margin: auto;"">
                                <img src=""images/B_D_S_37_lightshift.png"" style= ""width:200px""alt=""img"">
                            </div>
                        </div>","74","","0","images/B_D_S_37_lightshift.png","","","","positive","2","B","D","S","lightshift","",""
"","","","","","html-slider-response","56","218724","0.0-52.0","t7oywamb20","3","NaN","<div style=""width:500px;"">
                            <p style=""font-size:50px; font-weight:bold;""
                            >positive</p>
                            <div style=""width:240px; margin: auto;"">
                                <img src=""images/Y_D_U_7_darkshift.png"" style= ""width:200px""alt=""img"">
                            </div>
                        </div>","-102","","0","images/Y_D_U_7_darkshift.png","","","","positive","2","Y","D","U","darkshift","",""
"","","","","","html-slider-response","57","220299","0.0-53.0","t7oywamb20","3","NaN","<div style=""width:500px;"">
                            <p style=""font-size:50px; font-weight:bold;""
                            >positive</p>
                            <div style=""width:240px; margin: auto;"">
                                <img src=""images/B_L_S_30_darkshift.png"" style= ""width:200px""alt=""img"">
                            </div>
                        </div>","14","","0","images/B_L_S_30_darkshift.png","","","","positive","1","B","L","S","darkshift","",""
"","","","","","html-slider-response","58","221546","0.0-54.0","t7oywamb20","3","NaN","<div style=""width:500px;"">
                            <p style=""font-size:50px; font-weight:bold;""
                            >positive</p>
                            <div style=""width:240px; margin: auto;"">
                                <img src=""images/B_D_S_37_darkshift.png"" style= ""width:200px""alt=""img"">
                            </div>
                        </div>","5","","0","images/B_D_S_37_darkshift.png","","","","positive","1","B","D","S","darkshift","",""
"","","","","","html-slider-response","59","223261","0.0-55.0","t7oywamb20","3","NaN","<div style=""width:500px;"">
                            <p style=""font-size:50px; font-weight:bold;""
                            >positive</p>
                            <div style=""width:240px; margin: auto;"">
                                <img src=""images/R_L_S_10_darkshift.png"" style= ""width:200px""alt=""img"">
                            </div>
                        </div>","-30","","0","images/R_L_S_10_darkshift.png","","","","positive","1","R","L","S","darkshift","",""
"","","","","","html-slider-response","60","226196","0.0-56.0","t7oywamb20","3","NaN","<div style=""width:500px;"">
                            <p style=""font-size:50px; font-weight:bold;""
                            >positive</p>
                            <div style=""width:240px; margin: auto;"">
                                <img src=""images/Y_D_S_5_lightshift.png"" style= ""width:200px""alt=""img"">
                            </div>
                        </div>","106","","0","images/Y_D_S_5_lightshift.png","","","","positive","1","Y","D","S","lightshift","",""
"","","","","","html-slider-response","61","227952","0.0-57.0","t7oywamb20","3","NaN","<div style=""width:500px;"">
                            <p style=""font-size:50px; font-weight:bold;""
                            >positive</p>
                            <div style=""width:240px; margin: auto;"">
                                <img src=""images/Y_L_S_44_lightshift.png"" style= ""width:200px""alt=""img"">
                            </div>
                        </div>","94","","0","images/Y_L_S_44_lightshift.png","","","","positive","2","Y","L","S","lightshift","",""
"","","","","","html-slider-response","62","229287","0.0-58.0","t7oywamb20","3","NaN","<div style=""width:500px;"">
                            <p style=""font-size:50px; font-weight:bold;""
                            >positive</p>
                            <div style=""width:240px; margin: auto;"">
                                <img src=""images/B_L_S_30_lightshift.png"" style= ""width:200px""alt=""img"">
                            </div>
                        </div>","82","","0","images/B_L_S_30_lightshift.png","","","","positive","2","B","L","S","lightshift","",""
"","","","","","html-slider-response","63","230501","0.0-59.0","t7oywamb20","3","NaN","<div style=""width:500px;"">
                            <p style=""font-size:50px; font-weight:bold;""
                            >positive</p>
                            <div style=""width:240px; margin: auto;"">
                                <img src=""images/Y_L_U_2_lightshift.png"" style= ""width:200px""alt=""img"">
                            </div>
                        </div>","69","","0","images/Y_L_U_2_lightshift.png","","","","positive","1","Y","L","U","lightshift","",""
"","","","","","html-slider-response","64","231709","0.0-60.0","t7oywamb20","3","NaN","<div style=""width:500px;"">
                            <p style=""font-size:50px; font-weight:bold;""
                            >positive</p>
                            <div style=""width:240px; margin: auto;"">
                                <img src=""images/B_L_U_33_lightshift.png"" style= ""width:200px""alt=""img"">
                            </div>
                        </div>","39","","0","images/B_L_U_33_lightshift.png","","","","positive","1","B","L","U","lightshift","",""
"","","","","","html-slider-response","65","233018","0.0-61.0","t7oywamb20","3","NaN","<div style=""width:500px;"">
                            <p style=""font-size:50px; font-weight:bold;""
                            >positive</p>
                            <div style=""width:240px; margin: auto;"">
                                <img src=""images/G_L_S_23_lightshift.png"" style= ""width:200px""alt=""img"">
                            </div>
                        </div>","56","","0","images/G_L_S_23_lightshift.png","","","","positive","1","G","L","S","lightshift","",""
"","","","","","html-slider-response","66","235394","0.0-62.0","t7oywamb20","3","NaN","<div style=""width:500px;"">
                            <p style=""font-size:50px; font-weight:bold;""
                            >positive</p>
                            <div style=""width:240px; margin: auto;"">
                                <img src=""images/Y_D_S_5_darkshift.png"" style= ""width:200px""alt=""img"">
                            </div>
                        </div>","-6","","0","images/Y_D_S_5_darkshift.png","","","","positive","1","Y","D","S","darkshift","",""
"","","","","","html-slider-response","67","237027","0.0-63.0","t7oywamb20","3","NaN","<div style=""width:500px;"">
                            <p style=""font-size:50px; font-weight:bold;""
                            >positive</p>
                            <div style=""width:240px; margin: auto;"">
                                <img src=""images/G_D_S_27_darkshift.png"" style= ""width:200px""alt=""img"">
                            </div>
                        </div>","7","","0","images/G_D_S_27_darkshift.png","","","","positive","1","G","D","S","darkshift","",""
"","","","","","html-slider-response","68","238497","0.0-64.0","t7oywamb20","3","NaN","<div style=""width:500px;"">
                            <p style=""font-size:50px; font-weight:bold;""
                            >positive</p>
                            <div style=""width:240px; margin: auto;"">
                                <img src=""images/Y_D_U_7_lightshift.png"" style= ""width:200px""alt=""img"">
                            </div>
                        </div>","-10","","0","images/Y_D_U_7_lightshift.png","","","","positive","1","Y","D","U","lightshift","",""
"","","","","","html-slider-response","69","239818","0.0-65.0","t7oywamb20","3","NaN","<div style=""width:500px;"">
                            <p style=""font-size:50px; font-weight:bold;""
                            >positive</p>
                            <div style=""width:240px; margin: auto;"">
                                <img src=""images/G_L_U_26_darkshift.png"" style= ""width:200px""alt=""img"">
                            </div>
                        </div>","12","","0","images/G_L_U_26_darkshift.png","","","","positive","2","G","L","U","darkshift","",""
"","","","","","html-slider-response","70","241451","0.0-66.0","t7oywamb20","3","NaN","<div style=""width:500px;"">
                            <p style=""font-size:50px; font-weight:bold;""
                            >positive</p>
                            <div style=""width:240px; margin: auto;"">
                                <img src=""images/Y_L_U_2_darkshift.png"" style= ""width:200px""alt=""img"">
                            </div>
                        </div>","23","","0","images/Y_L_U_2_darkshift.png","","","","positive","2","Y","L","U","darkshift","",""
"","","","","","html-slider-response","71","242834","0.0-67.0","t7oywamb20","3","NaN","<div style=""width:500px;"">
                            <p style=""font-size:50px; font-weight:bold;""
                            >positive</p>
                            <div style=""width:240px; margin: auto;"">
                                <img src=""images/R_L_U_12_darkshift.png"" style= ""width:200px""alt=""img"">
                            </div>
                        </div>","-37","","0","images/R_L_U_12_darkshift.png","","","","positive","1","R","L","U","darkshift","",""
"","","","","","html-slider-response","72","243961","0.0-68.0","t7oywamb20","3","NaN","<div style=""width:500px;"">
                            <p style=""font-size:50px; font-weight:bold;""
                            >positive</p>
                            <div style=""width:240px; margin: auto;"">
                                <img src=""images/G_L_U_26_lightshift.png"" style= ""width:200px""alt=""img"">
                            </div>
                        </div>","54","","0","images/G_L_U_26_lightshift.png","","","","positive","2","G","L","U","lightshift","",""
"","","","","","html-slider-response","73","245627","0.0-69.0","t7oywamb20","3","NaN","<div style=""width:500px;"">
                            <p style=""font-size:50px; font-weight:bold;""
                            >positive</p>
                            <div style=""width:240px; margin: auto;"">
                                <img src=""images/B_L_S_30_darkshift.png"" style= ""width:200px""alt=""img"">
                            </div>
                        </div>","112","","0","images/B_L_S_30_darkshift.png","","","","positive","2","B","L","S","darkshift","",""
"","","","","","html-slider-response","74","247154","0.0-70.0","t7oywamb20","3","NaN","<div style=""width:500px;"">
                            <p style=""font-size:50px; font-weight:bold;""
                            >positive</p>
                            <div style=""width:240px; margin: auto;"">
                                <img src=""images/R_D_U_15_darkshift.png"" style= ""width:200px""alt=""img"">
                            </div>
                        </div>","-74","","0","images/R_D_U_15_darkshift.png","","","","positive","2","R","D","U","darkshift","",""
"","","","","","html-slider-response","75","248418","0.0-71.0","t7oywamb20","3","NaN","<div style=""width:500px;"">
                            <p style=""font-size:50px; font-weight:bold;""
                            >positive</p>
                            <div style=""width:240px; margin: auto;"">
                                <img src=""images/G_D_U_28_lightshift.png"" style= ""width:200px""alt=""img"">
                            </div>
                        </div>","40","","0","images/G_D_U_28_lightshift.png","","","","positive","1","G","D","U","lightshift","",""
"","","","","","html-slider-response","76","250140","0.0-72.0","t7oywamb20","3","NaN","<div style=""width:500px;"">
                            <p style=""font-size:50px; font-weight:bold;""
                            >positive</p>
                            <div style=""width:240px; margin: auto;"">
                                <img src=""images/B_D_S_37_darkshift.png"" style= ""width:200px""alt=""img"">
                            </div>
                        </div>","23","","0","images/B_D_S_37_darkshift.png","","","","positive","2","B","D","S","darkshift","",""
"","","","","","html-slider-response","77","251693","0.0-73.0","t7oywamb20","3","NaN","<div style=""width:500px;"">
                            <p style=""font-size:50px; font-weight:bold;""
                            >positive</p>
                            <div style=""width:240px; margin: auto;"">
                                <img src=""images/Y_L_U_2_lightshift.png"" style= ""width:200px""alt=""img"">
                            </div>
                        </div>","-22","","0","images/Y_L_U_2_lightshift.png","","","","positive","2","Y","L","U","lightshift","",""
"","","","","","html-slider-response","78","253334","0.0-74.0","t7oywamb20","3","NaN","<div style=""width:500px;"">
                            <p style=""font-size:50px; font-weight:bold;""
                            >positive</p>
                            <div style=""width:240px; margin: auto;"">
                                <img src=""images/R_D_S_13_lightshift.png"" style= ""width:200px""alt=""img"">
                            </div>
                        </div>","-47","","0","images/R_D_S_13_lightshift.png","","","","positive","1","R","D","S","lightshift","",""
"","","","","","html-slider-response","79","254604","0.0-75.0","t7oywamb20","3","NaN","<div style=""width:500px;"">
                            <p style=""font-size:50px; font-weight:bold;""
                            >positive</p>
                            <div style=""width:240px; margin: auto;"">
                                <img src=""images/B_D_U_41_darkshift.png"" style= ""width:200px""alt=""img"">
                            </div>
                        </div>","27","","0","images/B_D_U_41_darkshift.png","","","","positive","1","B","D","U","darkshift","",""
"","","","","","html-slider-response","80","256085","0.0-76.0","t7oywamb20","3","NaN","<div style=""width:500px;"">
                            <p style=""font-size:50px; font-weight:bold;""
                            >positive</p>
                            <div style=""width:240px; margin: auto;"">
                                <img src=""images/R_L_U_12_lightshift.png"" style= ""width:200px""alt=""img"">
                            </div>
                        </div>","-14","","0","images/R_L_U_12_lightshift.png","","","","positive","2","R","L","U","lightshift","",""
"","","","","","html-slider-response","81","257211","0.0-77.0","t7oywamb20","3","NaN","<div style=""width:500px;"">
                            <p style=""font-size:50px; font-weight:bold;""
                            >positive</p>
                            <div style=""width:240px; margin: auto;"">
                                <img src=""images/B_D_U_41_lightshift.png"" style= ""width:200px""alt=""img"">
                            </div>
                        </div>","29","","0","images/B_D_U_41_lightshift.png","","","","positive","1","B","D","U","lightshift","",""
"","","","","","html-button-response","82","259872","0.0-78.0","t7oywamb20","3","2159","<p>Great Job! You've finished block 1.<br></br> You have 3 block(s) left to go.<br></br></p>","0","","","","","","","","","","","","","",""
"","","","","","html-button-response","83","260860","0.0-79.0","t7oywamb20","3","988","<p>In this block of trials, you will be asked to rate how much you associate each map with:</p > <p style = 'font-size:150%; font-weight: bold'>negative</p><br></br>","0","","","","","","","","","","","","","",""
"","","","","","html-slider-response","84","262925","0.0-80.0","t7oywamb20","3","NaN","<div style=""width:500px;"">
                            <p style=""font-size:50px; font-weight:bold;""
                            >negative</p>
                            <div style=""width:240px; margin: auto;"">
                                <img src=""images/B_D_U_41_lightshift.png"" style= ""width:200px""alt=""img"">
                            </div>
                        </div>","-41","","0","images/B_D_U_41_lightshift.png","","","","negative","2","B","D","U","lightshift","",""
"","","","","","html-slider-response","85","264187","0.0-81.0","t7oywamb20","3","NaN","<div style=""width:500px;"">
                            <p style=""font-size:50px; font-weight:bold;""
                            >negative</p>
                            <div style=""width:240px; margin: auto;"">
                                <img src=""images/G_D_U_28_lightshift.png"" style= ""width:200px""alt=""img"">
                            </div>
                        </div>","-47","","0","images/G_D_U_28_lightshift.png","","","","negative","2","G","D","U","lightshift","",""
"","","","","","html-slider-response","86","265193","0.0-82.0","t7oywamb20","3","NaN","<div style=""width:500px;"">
                            <p style=""font-size:50px; font-weight:bold;""
                            >negative</p>
                            <div style=""width:240px; margin: auto;"">
                                <img src=""images/B_D_S_37_lightshift.png"" style= ""width:200px""alt=""img"">
                            </div>
                        </div>","-56","","0","images/B_D_S_37_lightshift.png","","","","negative","2","B","D","S","lightshift","",""
"","","","","","html-slider-response","87","267178","0.0-83.0","t7oywamb20","3","NaN","<div style=""width:500px;"">
                            <p style=""font-size:50px; font-weight:bold;""
                            >negative</p>
                            <div style=""width:240px; margin: auto;"">
                                <img src=""images/R_D_U_15_lightshift.png"" style= ""width:200px""alt=""img"">
                            </div>
                        </div>","50","","0","images/R_D_U_15_lightshift.png","","","","negative","1","R","D","U","lightshift","",""
"","","","","","html-slider-response","88","268789","0.0-84.0","t7oywamb20","3","NaN","<div style=""width:500px;"">
                            <p style=""font-size:50px; font-weight:bold;""
                            >negative</p>
                            <div style=""width:240px; margin: auto;"">
                                <img src=""images/B_D_S_37_darkshift.png"" style= ""width:200px""alt=""img"">
                            </div>
                        </div>","-32","","0","images/B_D_S_37_darkshift.png","","","","negative","2","B","D","S","darkshift","",""
"","","","","","html-slider-response","89","270614","0.0-85.0","t7oywamb20","3","NaN","<div style=""width:500px;"">
                            <p style=""font-size:50px; font-weight:bold;""
                            >negative</p>
                            <div style=""width:240px; margin: auto;"">
                                <img src=""images/G_D_S_27_darkshift.png"" style= ""width:200px""alt=""img"">
                            </div>
                        </div>","-6","","0","images/G_D_S_27_darkshift.png","","","","negative","2","G","D","S","darkshift","",""
"","","","","","html-slider-response","90","271975","0.0-86.0","t7oywamb20","3","NaN","<div style=""width:500px;"">
                            <p style=""font-size:50px; font-weight:bold;""
                            >negative</p>
                            <div style=""width:240px; margin: auto;"">
                                <img src=""images/B_L_S_30_lightshift.png"" style= ""width:200px""alt=""img"">
                            </div>
                        </div>","18","","0","images/B_L_S_30_lightshift.png","","","","negative","1","B","L","S","lightshift","",""
"","","","","","html-slider-response","91","273785","0.0-87.0","t7oywamb20","3","NaN","<div style=""width:500px;"">
                            <p style=""font-size:50px; font-weight:bold;""
                            >negative</p>
                            <div style=""width:240px; margin: auto;"">
                                <img src=""images/Y_D_U_7_darkshift.png"" style= ""width:200px""alt=""img"">
                            </div>
                        </div>","-13","","0","images/Y_D_U_7_darkshift.png","","","","negative","2","Y","D","U","darkshift","",""
"","","","","","html-slider-response","92","275466","0.0-88.0","t7oywamb20","3","NaN","<div style=""width:500px;"">
                            <p style=""font-size:50px; font-weight:bold;""
                            >negative</p>
                            <div style=""width:240px; margin: auto;"">
                                <img src=""images/G_L_S_23_lightshift.png"" style= ""width:200px""alt=""img"">
                            </div>
                        </div>","-15","","0","images/G_L_S_23_lightshift.png","","","","negative","2","G","L","S","lightshift","",""
"","","","","","html-slider-response","93","276924","0.0-89.0","t7oywamb20","3","NaN","<div style=""width:500px;"">
                            <p style=""font-size:50px; font-weight:bold;""
                            >negative</p>
                            <div style=""width:240px; margin: auto;"">
                                <img src=""images/R_L_S_10_darkshift.png"" style= ""width:200px""alt=""img"">
                            </div>
                        </div>","18","","0","images/R_L_S_10_darkshift.png","","","","negative","1","R","L","S","darkshift","",""
"","","","","","html-slider-response","94","278138","0.0-90.0","t7oywamb20","3","NaN","<div style=""width:500px;"">
                            <p style=""font-size:50px; font-weight:bold;""
                            >negative</p>
                            <div style=""width:240px; margin: auto;"">
                                <img src=""images/G_D_S_27_lightshift.png"" style= ""width:200px""alt=""img"">
                            </div>
                        </div>","-21","","0","images/G_D_S_27_lightshift.png","","","","negative","2","G","D","S","lightshift","",""
"","","","","","html-slider-response","95","279554","0.0-91.0","t7oywamb20","3","NaN","<div style=""width:500px;"">
                            <p style=""font-size:50px; font-weight:bold;""
                            >negative</p>
                            <div style=""width:240px; margin: auto;"">
                                <img src=""images/R_L_U_12_darkshift.png"" style= ""width:200px""alt=""img"">
                            </div>
                        </div>","46","","0","images/R_L_U_12_darkshift.png","","","","negative","1","R","L","U","darkshift","",""
"","","","","","html-slider-response","96","281871","0.0-92.0","t7oywamb20","3","NaN","<div style=""width:500px;"">
                            <p style=""font-size:50px; font-weight:bold;""
                            >negative</p>
                            <div style=""width:240px; margin: auto;"">
                                <img src=""images/R_D_U_15_darkshift.png"" style= ""width:200px""alt=""img"">
                            </div>
                        </div>","44","","0","images/R_D_U_15_darkshift.png","","","","negative","1","R","D","U","darkshift","",""
"","","","","","html-slider-response","97","283392","0.0-93.0","t7oywamb20","3","NaN","<div style=""width:500px;"">
                            <p style=""font-size:50px; font-weight:bold;""
                            >negative</p>
                            <div style=""width:240px; margin: auto;"">
                                <img src=""images/G_D_U_28_lightshift.png"" style= ""width:200px""alt=""img"">
                            </div>
                        </div>","-39","","0","images/G_D_U_28_lightshift.png","","","","negative","1","G","D","U","lightshift","",""
"","","","","","html-slider-response","98","284766","0.0-94.0","t7oywamb20","3","NaN","<div style=""width:500px;"">
                            <p style=""font-size:50px; font-weight:bold;""
                            >negative</p>
                            <div style=""width:240px; margin: auto;"">
                                <img src=""images/G_D_S_27_lightshift.png"" style= ""width:200px""alt=""img"">
                            </div>
                        </div>","-70","","0","images/G_D_S_27_lightshift.png","","","","negative","1","G","D","S","lightshift","",""
"","","","","","html-slider-response","99","286345","0.0-95.0","t7oywamb20","3","NaN","<div style=""width:500px;"">
                            <p style=""font-size:50px; font-weight:bold;""
                            >negative</p>
                            <div style=""width:240px; margin: auto;"">
                                <img src=""images/B_D_S_37_darkshift.png"" style= ""width:200px""alt=""img"">
                            </div>
                        </div>","-83","","0","images/B_D_S_37_darkshift.png","","","","negative","1","B","D","S","darkshift","",""
"","","","","","html-slider-response","100","287534","0.0-96.0","t7oywamb20","3","NaN","<div style=""width:500px;"">
                            <p style=""font-size:50px; font-weight:bold;""
                            >negative</p>
                            <div style=""width:240px; margin: auto;"">
                                <img src=""images/B_D_U_41_lightshift.png"" style= ""width:200px""alt=""img"">
                            </div>
                        </div>","-101","","0","images/B_D_U_41_lightshift.png","","","","negative","1","B","D","U","lightshift","",""
"","","","","","html-slider-response","101","289345","0.0-97.0","t7oywamb20","3","NaN","<div style=""width:500px;"">
                            <p style=""font-size:50px; font-weight:bold;""
                            >negative</p>
                            <div style=""width:240px; margin: auto;"">
                                <img src=""images/R_L_S_10_lightshift.png"" style= ""width:200px""alt=""img"">
                            </div>
                        </div>","102","","0","images/R_L_S_10_lightshift.png","","","","negative","1","R","L","S","lightshift","",""
"","","","","","html-slider-response","102","290842","0.0-98.0","t7oywamb20","3","NaN","<div style=""width:500px;"">
                            <p style=""font-size:50px; font-weight:bold;""
                            >negative</p>
                            <div style=""width:240px; margin: auto;"">
                                <img src=""images/B_D_U_41_darkshift.png"" style= ""width:200px""alt=""img"">
                            </div>
                        </div>","-42","","0","images/B_D_U_41_darkshift.png","","","","negative","2","B","D","U","darkshift","",""
"","","","","","html-slider-response","103","292467","0.0-99.0","t7oywamb20","3","NaN","<div style=""width:500px;"">
                            <p style=""font-size:50px; font-weight:bold;""
                            >negative</p>
                            <div style=""width:240px; margin: auto;"">
                                <img src=""images/G_L_S_23_darkshift.png"" style= ""width:200px""alt=""img"">
                            </div>
                        </div>","-102","","0","images/G_L_S_23_darkshift.png","","","","negative","2","G","L","S","darkshift","",""
"","","","","","html-slider-response","104","294293","0.0-100.0","t7oywamb20","3","NaN","<div style=""width:500px;"">
                            <p style=""font-size:50px; font-weight:bold;""
                            >negative</p>
                            <div style=""width:240px; margin: auto;"">
                                <img src=""images/Y_D_S_5_darkshift.png"" style= ""width:200px""alt=""img"">
                            </div>
                        </div>","45","","0","images/Y_D_S_5_darkshift.png","","","","negative","1","Y","D","S","darkshift","",""
"","","","","","html-slider-response","105","295628","0.0-101.0","t7oywamb20","3","NaN","<div style=""width:500px;"">
                            <p style=""font-size:50px; font-weight:bold;""
                            >negative</p>
                            <div style=""width:240px; margin: auto;"">
                                <img src=""images/G_L_S_23_darkshift.png"" style= ""width:200px""alt=""img"">
                            </div>
                        </div>","-27","","0","images/G_L_S_23_darkshift.png","","","","negative","1","G","L","S","darkshift","",""
"","","","","","html-slider-response","106","297244","0.0-102.0","t7oywamb20","3","NaN","<div style=""width:500px;"">
                            <p style=""font-size:50px; font-weight:bold;""
                            >negative</p>
                            <div style=""width:240px; margin: auto;"">
                                <img src=""images/Y_L_S_44_darkshift.png"" style= ""width:200px""alt=""img"">
                            </div>
                        </div>","-73","","0","images/Y_L_S_44_darkshift.png","","","","negative","2","Y","L","S","darkshift","",""
"","","","","","html-slider-response","107","298944","0.0-103.0","t7oywamb20","3","NaN","<div style=""width:500px;"">
                            <p style=""font-size:50px; font-weight:bold;""
                            >negative</p>
                            <div style=""width:240px; margin: auto;"">
                                <img src=""images/Y_L_U_2_lightshift.png"" style= ""width:200px""alt=""img"">
                            </div>
                        </div>","13","","0","images/Y_L_U_2_lightshift.png","","","","negative","1","Y","L","U","lightshift","",""
"","","","","","html-slider-response","108","300440","0.0-104.0","t7oywamb20","3","NaN","<div style=""width:500px;"">
                            <p style=""font-size:50px; font-weight:bold;""
                            >negative</p>
                            <div style=""width:240px; margin: auto;"">
                                <img src=""images/Y_L_U_2_lightshift.png"" style= ""width:200px""alt=""img"">
                            </div>
                        </div>","21","","0","images/Y_L_U_2_lightshift.png","","","","negative","2","Y","L","U","lightshift","",""
"","","","","","html-slider-response","109","302025","0.0-105.0","t7oywamb20","3","NaN","<div style=""width:500px;"">
                            <p style=""font-size:50px; font-weight:bold;""
                            >negative</p>
                            <div style=""width:240px; margin: auto;"">
                                <img src=""images/G_D_U_28_darkshift.png"" style= ""width:200px""alt=""img"">
                            </div>
                        </div>","-10","","0","images/G_D_U_28_darkshift.png","","","","negative","1","G","D","U","darkshift","",""
"","","","","","html-slider-response","110","303479","0.0-106.0","t7oywamb20","3","NaN","<div style=""width:500px;"">
                            <p style=""font-size:50px; font-weight:bold;""
                            >negative</p>
                            <div style=""width:240px; margin: auto;"">
                                <img src=""images/Y_D_U_7_darkshift.png"" style= ""width:200px""alt=""img"">
                            </div>
                        </div>","22","","0","images/Y_D_U_7_darkshift.png","","","","negative","1","Y","D","U","darkshift","",""
"","","","","","html-slider-response","111","305010","0.0-107.0","t7oywamb20","3","NaN","<div style=""width:500px;"">
                            <p style=""font-size:50px; font-weight:bold;""
                            >negative</p>
                            <div style=""width:240px; margin: auto;"">
                                <img src=""images/Y_L_S_44_lightshift.png"" style= ""width:200px""alt=""img"">
                            </div>
                        </div>","-20","","0","images/Y_L_S_44_lightshift.png","","","","negative","2","Y","L","S","lightshift","",""
"","","","","","html-slider-response","112","306215","0.0-108.0","t7oywamb20","3","NaN","<div style=""width:500px;"">
                            <p style=""font-size:50px; font-weight:bold;""
                            >negative</p>
                            <div style=""width:240px; margin: auto;"">
                                <img src=""images/R_D_S_13_lightshift.png"" style= ""width:200px""alt=""img"">
                            </div>
                        </div>","19","","0","images/R_D_S_13_lightshift.png","","","","negative","2","R","D","S","lightshift","",""
"","","","","","html-slider-response","113","307560","0.0-109.0","t7oywamb20","3","NaN","<div style=""width:500px;"">
                            <p style=""font-size:50px; font-weight:bold;""
                            >negative</p>
                            <div style=""width:240px; margin: auto;"">
                                <img src=""images/B_D_U_41_darkshift.png"" style= ""width:200px""alt=""img"">
                            </div>
                        </div>","-75","","0","images/B_D_U_41_darkshift.png","","","","negative","1","B","D","U","darkshift","",""
"","","","","","html-slider-response","114","309434","0.0-110.0","t7oywamb20","3","NaN","<div style=""width:500px;"">
                            <p style=""font-size:50px; font-weight:bold;""
                            >negative</p>
                            <div style=""width:240px; margin: auto;"">
                                <img src=""images/B_L_U_33_lightshift.png"" style= ""width:200px""alt=""img"">
                            </div>
                        </div>","-92","","0","images/B_L_U_33_lightshift.png","","","","negative","2","B","L","U","lightshift","",""
"","","","","","html-slider-response","115","310866","0.0-111.0","t7oywamb20","3","NaN","<div style=""width:500px;"">
                            <p style=""font-size:50px; font-weight:bold;""
                            >negative</p>
                            <div style=""width:240px; margin: auto;"">
                                <img src=""images/R_D_U_15_lightshift.png"" style= ""width:200px""alt=""img"">
                            </div>
                        </div>","60","","0","images/R_D_U_15_lightshift.png","","","","negative","2","R","D","U","lightshift","",""
"","","","","","html-slider-response","116","312322","0.0-112.0","t7oywamb20","3","NaN","<div style=""width:500px;"">
                            <p style=""font-size:50px; font-weight:bold;""
                            >negative</p>
                            <div style=""width:240px; margin: auto;"">
                                <img src=""images/Y_L_U_2_darkshift.png"" style= ""width:200px""alt=""img"">
                            </div>
                        </div>","-49","","0","images/Y_L_U_2_darkshift.png","","","","negative","1","Y","L","U","darkshift","",""
"","","","","","html-slider-response","117","314294","0.0-113.0","t7oywamb20","3","NaN","<div style=""width:500px;"">
                            <p style=""font-size:50px; font-weight:bold;""
                            >negative</p>
                            <div style=""width:240px; margin: auto;"">
                                <img src=""images/Y_D_U_7_lightshift.png"" style= ""width:200px""alt=""img"">
                            </div>
                        </div>","-1","","0","images/Y_D_U_7_lightshift.png","","","","negative","1","Y","D","U","lightshift","",""
"","","","","","html-slider-response","118","315628","0.0-114.0","t7oywamb20","3","NaN","<div style=""width:500px;"">
                            <p style=""font-size:50px; font-weight:bold;""
                            >negative</p>
                            <div style=""width:240px; margin: auto;"">
                                <img src=""images/Y_L_U_2_darkshift.png"" style= ""width:200px""alt=""img"">
                            </div>
                        </div>","-1","","0","images/Y_L_U_2_darkshift.png","","","","negative","2","Y","L","U","darkshift","",""
"","","","","","html-slider-response","119","317158","0.0-115.0","t7oywamb20","3","NaN","<div style=""width:500px;"">
                            <p style=""font-size:50px; font-weight:bold;""
                            >negative</p>
                            <div style=""width:240px; margin: auto;"">
                                <img src=""images/B_L_U_33_lightshift.png"" style= ""width:200px""alt=""img"">
                            </div>
                        </div>","-18","","0","images/B_L_U_33_lightshift.png","","","","negative","1","B","L","U","lightshift","",""
"","","","","","html-slider-response","120","318992","0.0-116.0","t7oywamb20","3","NaN","<div style=""width:500px;"">
                            <p style=""font-size:50px; font-weight:bold;""
                            >negative</p>
                            <div style=""width:240px; margin: auto;"">
                                <img src=""images/Y_L_S_44_darkshift.png"" style= ""width:200px""alt=""img"">
                            </div>
                        </div>","1","","0","images/Y_L_S_44_darkshift.png","","","","negative","1","Y","L","S","darkshift","",""
"","","","","","html-slider-response","121","320376","0.0-117.0","t7oywamb20","3","NaN","<div style=""width:500px;"">
                            <p style=""font-size:50px; font-weight:bold;""
                            >negative</p>
                            <div style=""width:240px; margin: auto;"">
                                <img src=""images/B_L_S_30_darkshift.png"" style= ""width:200px""alt=""img"">
                            </div>
                        </div>","-22","","0","images/B_L_S_30_darkshift.png","","","","negative","1","B","L","S","darkshift","",""
"","","","","","html-slider-response","122","321671","0.0-118.0","t7oywamb20","3","NaN","<div style=""width:500px;"">
                            <p style=""font-size:50px; font-weight:bold;""
                            >negative</p>
                            <div style=""width:240px; margin: auto;"">
                                <img src=""images/Y_D_U_7_lightshift.png"" style= ""width:200px""alt=""img"">
                            </div>
                        </div>","-2","","0","images/Y_D_U_7_lightshift.png","","","","negative","2","Y","D","U","lightshift","",""
"","","","","","html-slider-response","123","323289","0.0-119.0","t7oywamb20","3","NaN","<div style=""width:500px;"">
                            <p style=""font-size:50px; font-weight:bold;""
                            >negative</p>
                            <div style=""width:240px; margin: auto;"">
                                <img src=""images/Y_D_S_5_lightshift.png"" style= ""width:200px""alt=""img"">
                            </div>
                        </div>","-46","","0","images/Y_D_S_5_lightshift.png","","","","negative","2","Y","D","S","lightshift","",""
"","","","","","html-slider-response","124","324616","0.0-120.0","t7oywamb20","3","NaN","<div style=""width:500px;"">
                            <p style=""font-size:50px; font-weight:bold;""
                            >negative</p>
                            <div style=""width:240px; margin: auto;"">
                                <img src=""images/G_L_U_26_darkshift.png"" style= ""width:200px""alt=""img"">
                            </div>
                        </div>","-24","","0","images/G_L_U_26_darkshift.png","","","","negative","2","G","L","U","darkshift","",""
"","","","","","html-slider-response","125","326040","0.0-121.0","t7oywamb20","3","NaN","<div style=""width:500px;"">
                            <p style=""font-size:50px; font-weight:bold;""
                            >negative</p>
                            <div style=""width:240px; margin: auto;"">
                                <img src=""images/R_D_U_15_darkshift.png"" style= ""width:200px""alt=""img"">
                            </div>
                        </div>","60","","0","images/R_D_U_15_darkshift.png","","","","negative","2","R","D","U","darkshift","",""
"","","","","","html-slider-response","126","328164","0.0-122.0","t7oywamb20","3","NaN","<div style=""width:500px;"">
                            <p style=""font-size:50px; font-weight:bold;""
                            >negative</p>
                            <div style=""width:240px; margin: auto;"">
                                <img src=""images/B_L_U_33_darkshift.png"" style= ""width:200px""alt=""img"">
                            </div>
                        </div>","-94","","0","images/B_L_U_33_darkshift.png","","","","negative","1","B","L","U","darkshift","",""
"","","","","","html-slider-response","127","329611","0.0-123.0","t7oywamb20","3","NaN","<div style=""width:500px;"">
                            <p style=""font-size:50px; font-weight:bold;""
                            >negative</p>
                            <div style=""width:240px; margin: auto;"">
                                <img src=""images/R_L_S_10_darkshift.png"" style= ""width:200px""alt=""img"">
                            </div>
                        </div>","30","","0","images/R_L_S_10_darkshift.png","","","","negative","2","R","L","S","darkshift","",""
"","","","","","html-slider-response","128","331052","0.0-124.0","t7oywamb20","3","NaN","<div style=""width:500px;"">
                            <p style=""font-size:50px; font-weight:bold;""
                            >negative</p>
                            <div style=""width:240px; margin: auto;"">
                                <img src=""images/B_L_S_30_lightshift.png"" style= ""width:200px""alt=""img"">
                            </div>
                        </div>","-54","","0","images/B_L_S_30_lightshift.png","","","","negative","2","B","L","S","lightshift","",""
"","","","","","html-slider-response","129","332266","0.0-125.0","t7oywamb20","3","NaN","<div style=""width:500px;"">
                            <p style=""font-size:50px; font-weight:bold;""
                            >negative</p>
                            <div style=""width:240px; margin: auto;"">
                                <img src=""images/R_D_S_13_darkshift.png"" style= ""width:200px""alt=""img"">
                            </div>
                        </div>","67","","0","images/R_D_S_13_darkshift.png","","","","negative","2","R","D","S","darkshift","",""
"","","","","","html-slider-response","130","334244","0.0-126.0","t7oywamb20","3","NaN","<div style=""width:500px;"">
                            <p style=""font-size:50px; font-weight:bold;""
                            >negative</p>
                            <div style=""width:240px; margin: auto;"">
                                <img src=""images/Y_D_S_5_darkshift.png"" style= ""width:200px""alt=""img"">
                            </div>
                        </div>","3","","0","images/Y_D_S_5_darkshift.png","","","","negative","2","Y","D","S","darkshift","",""
"","","","","","html-slider-response","131","336233","0.0-127.0","t7oywamb20","3","NaN","<div style=""width:500px;"">
                            <p style=""font-size:50px; font-weight:bold;""
                            >negative</p>
                            <div style=""width:240px; margin: auto;"">
                                <img src=""images/G_L_S_23_lightshift.png"" style= ""width:200px""alt=""img"">
                            </div>
                        </div>","-63","","0","images/G_L_S_23_lightshift.png","","","","negative","1","G","L","S","lightshift","",""
"","","","","","html-slider-response","132","337744","0.0-128.0","t7oywamb20","3","NaN","<div style=""width:500px;"">
                            <p style=""font-size:50px; font-weight:bold;""
                            >negative</p>
                            <div style=""width:240px; margin: auto;"">
                                <img src=""images/R_L_U_12_darkshift.png"" style= ""width:200px""alt=""img"">
                            </div>
                        </div>","62","","0","images/R_L_U_12_darkshift.png","","","","negative","2","R","L","U","darkshift","",""
"","","","","","html-slider-response","133","339249","0.0-129.0","t7oywamb20","3","NaN","<div style=""width:500px;"">
                            <p style=""font-size:50px; font-weight:bold;""
                            >negative</p>
                            <div style=""width:240px; margin: auto;"">
                                <img src=""images/G_L_U_26_darkshift.png"" style= ""width:200px""alt=""img"">
                            </div>
                        </div>","-44","","0","images/G_L_U_26_darkshift.png","","","","negative","1","G","L","U","darkshift","",""
"","","","","","html-slider-response","134","341375","0.0-130.0","t7oywamb20","3","NaN","<div style=""width:500px;"">
                            <p style=""font-size:50px; font-weight:bold;""
                            >negative</p>
                            <div style=""width:240px; margin: auto;"">
                                <img src=""images/Y_D_S_5_lightshift.png"" style= ""width:200px""alt=""img"">
                            </div>
                        </div>","-15","","0","images/Y_D_S_5_lightshift.png","","","","negative","1","Y","D","S","lightshift","",""
"","","","","","html-slider-response","135","342943","0.0-131.0","t7oywamb20","3","NaN","<div style=""width:500px;"">
                            <p style=""font-size:50px; font-weight:bold;""
                            >negative</p>
                            <div style=""width:240px; margin: auto;"">
                                <img src=""images/G_L_U_26_lightshift.png"" style= ""width:200px""alt=""img"">
                            </div>
                        </div>","-81","","0","images/G_L_U_26_lightshift.png","","","","negative","2","G","L","U","lightshift","",""
"","","","","","html-slider-response","136","344061","0.0-132.0","t7oywamb20","3","NaN","<div style=""width:500px;"">
                            <p style=""font-size:50px; font-weight:bold;""
                            >negative</p>
                            <div style=""width:240px; margin: auto;"">
                                <img src=""images/B_D_S_37_lightshift.png"" style= ""width:200px""alt=""img"">
                            </div>
                        </div>","-96","","0","images/B_D_S_37_lightshift.png","","","","negative","1","B","D","S","lightshift","",""
"","","","","","html-slider-response","137","345814","0.0-133.0","t7oywamb20","3","NaN","<div style=""width:500px;"">
                            <p style=""font-size:50px; font-weight:bold;""
                            >negative</p>
                            <div style=""width:240px; margin: auto;"">
                                <img src=""images/G_D_U_28_darkshift.png"" style= ""width:200px""alt=""img"">
                            </div>
                        </div>","-106","","0","images/G_D_U_28_darkshift.png","","","","negative","2","G","D","U","darkshift","",""
"","","","","","html-slider-response","138","346965","0.0-134.0","t7oywamb20","3","NaN","<div style=""width:500px;"">
                            <p style=""font-size:50px; font-weight:bold;""
                            >negative</p>
                            <div style=""width:240px; margin: auto;"">
                                <img src=""images/G_L_U_26_lightshift.png"" style= ""width:200px""alt=""img"">
                            </div>
                        </div>","-106","","0","images/G_L_U_26_lightshift.png","","","","negative","1","G","L","U","lightshift","",""
"","","","","","html-slider-response","139","348044","0.0-135.0","t7oywamb20","3","NaN","<div style=""width:500px;"">
                            <p style=""font-size:50px; font-weight:bold;""
                            >negative</p>
                            <div style=""width:240px; margin: auto;"">
                                <img src=""images/G_D_S_27_darkshift.png"" style= ""width:200px""alt=""img"">
                            </div>
                        </div>","-105","","0","images/G_D_S_27_darkshift.png","","","","negative","1","G","D","S","darkshift","",""
"","","","","","html-slider-response","140","349206","0.0-136.0","t7oywamb20","3","NaN","<div style=""width:500px;"">
                            <p style=""font-size:50px; font-weight:bold;""
                            >negative</p>
                            <div style=""width:240px; margin: auto;"">
                                <img src=""images/B_L_U_33_darkshift.png"" style= ""width:200px""alt=""img"">
                            </div>
                        </div>","-130","","0","images/B_L_U_33_darkshift.png","","","","negative","2","B","L","U","darkshift","",""
"","","","","","html-slider-response","141","351278","0.0-137.0","t7oywamb20","3","NaN","<div style=""width:500px;"">
                            <p style=""font-size:50px; font-weight:bold;""
                            >negative</p>
                            <div style=""width:240px; margin: auto;"">
                                <img src=""images/Y_L_S_44_lightshift.png"" style= ""width:200px""alt=""img"">
                            </div>
                        </div>","-68","","0","images/Y_L_S_44_lightshift.png","","","","negative","1","Y","L","S","lightshift","",""
"","","","","","html-slider-response","142","353561","0.0-138.0","t7oywamb20","3","NaN","<div style=""width:500px;"">
                            <p style=""font-size:50px; font-weight:bold;""
                            >negative</p>
                            <div style=""width:240px; margin: auto;"">
                                <img src=""images/R_L_U_12_lightshift.png"" style= ""width:200px""alt=""img"">
                            </div>
                        </div>","28","","0","images/R_L_U_12_lightshift.png","","","","negative","1","R","L","U","lightshift","",""
"","","","","","html-slider-response","143","355623","0.0-139.0","t7oywamb20","3","NaN","<div style=""width:500px;"">
                            <p style=""font-size:50px; font-weight:bold;""
                            >negative</p>
                            <div style=""width:240px; margin: auto;"">
                                <img src=""images/R_D_S_13_darkshift.png"" style= ""width:200px""alt=""img"">
                            </div>
                        </div>","56","","0","images/R_D_S_13_darkshift.png","","","","negative","1","R","D","S","darkshift","",""
"","","","","","html-slider-response","144","357328","0.0-140.0","t7oywamb20","3","NaN","<div style=""width:500px;"">
                            <p style=""font-size:50px; font-weight:bold;""
                            >negative</p>
                            <div style=""width:240px; margin: auto;"">
                                <img src=""images/R_L_U_12_lightshift.png"" style= ""width:200px""alt=""img"">
                            </div>
                        </div>","18","","0","images/R_L_U_12_lightshift.png","","","","negative","2","R","L","U","lightshift","",""
"","","","","","html-slider-response","145","359362","0.0-141.0","t7oywamb20","3","NaN","<div style=""width:500px;"">
                            <p style=""font-size:50px; font-weight:bold;""
                            >negative</p>
                            <div style=""width:240px; margin: auto;"">
                                <img src=""images/R_L_S_10_lightshift.png"" style= ""width:200px""alt=""img"">
                            </div>
                        </div>","57","","0","images/R_L_S_10_lightshift.png","","","","negative","2","R","L","S","lightshift","",""
"","","","","","html-slider-response","146","361013","0.0-142.0","t7oywamb20","3","NaN","<div style=""width:500px;"">
                            <p style=""font-size:50px; font-weight:bold;""
                            >negative</p>
                            <div style=""width:240px; margin: auto;"">
                                <img src=""images/R_D_S_13_lightshift.png"" style= ""width:200px""alt=""img"">
                            </div>
                        </div>","76","","0","images/R_D_S_13_lightshift.png","","","","negative","1","R","D","S","lightshift","",""
"","","","","","html-slider-response","147","362781","0.0-143.0","t7oywamb20","3","NaN","<div style=""width:500px;"">
                            <p style=""font-size:50px; font-weight:bold;""
                            >negative</p>
                            <div style=""width:240px; margin: auto;"">
                                <img src=""images/B_L_S_30_darkshift.png"" style= ""width:200px""alt=""img"">
                            </div>
                        </div>","-114","","0","images/B_L_S_30_darkshift.png","","","","negative","2","B","L","S","darkshift","",""
"","","","","","html-button-response","148","366221","0.0-144.0","t7oywamb20","3","2939","<p>Great Job! You've finished block 2.<br></br> You have 2 block(s) left to go.<br></br></p>","0","","","","","","","","","","","","","",""
"","","","","","html-button-response","149","367066","0.0-145.0","t7oywamb20","3","845","<p>In this block of trials, you will be asked to rate how much you associate each map with:</p > <p style = 'font-size:150%; font-weight: bold'>startling</p><br></br>","0","","","","","","","","","","","","","",""
"","","","","","html-slider-response","150","368438","0.0-146.0","t7oywamb20","3","NaN","<div style=""width:500px;"">
                            <p style=""font-size:50px; font-weight:bold;""
                            >startling</p>
                            <div style=""width:240px; margin: auto;"">
                                <img src=""images/R_L_U_12_lightshift.png"" style= ""width:200px""alt=""img"">
                            </div>
                        </div>","38","","0","images/R_L_U_12_lightshift.png","","","","startling","1","R","L","U","lightshift","",""
"","","","","","html-slider-response","151","370601","0.0-147.0","t7oywamb20","3","NaN","<div style=""width:500px;"">
                            <p style=""font-size:50px; font-weight:bold;""
                            >startling</p>
                            <div style=""width:240px; margin: auto;"">
                                <img src=""images/B_D_S_37_lightshift.png"" style= ""width:200px""alt=""img"">
                            </div>
                        </div>","-14","","0","images/B_D_S_37_lightshift.png","","","","startling","1","B","D","S","lightshift","",""
"","","","","","html-slider-response","152","371946","0.0-148.0","t7oywamb20","3","NaN","<div style=""width:500px;"">
                            <p style=""font-size:50px; font-weight:bold;""
                            >startling</p>
                            <div style=""width:240px; margin: auto;"">
                                <img src=""images/R_D_S_13_darkshift.png"" style= ""width:200px""alt=""img"">
                            </div>
                        </div>","20","","0","images/R_D_S_13_darkshift.png","","","","startling","2","R","D","S","darkshift","",""
"","","","","","html-slider-response","153","373481","0.0-149.0","t7oywamb20","3","NaN","<div style=""width:500px;"">
                            <p style=""font-size:50px; font-weight:bold;""
                            >startling</p>
                            <div style=""width:240px; margin: auto;"">
                                <img src=""images/R_L_S_10_darkshift.png"" style= ""width:200px""alt=""img"">
                            </div>
                        </div>","38","","0","images/R_L_S_10_darkshift.png","","","","startling","1","R","L","S","darkshift","",""
"","","","","","html-slider-response","154","375034","0.0-150.0","t7oywamb20","3","NaN","<div style=""width:500px;"">
                            <p style=""font-size:50px; font-weight:bold;""
                            >startling</p>
                            <div style=""width:240px; margin: auto;"">
                                <img src=""images/B_D_S_37_darkshift.png"" style= ""width:200px""alt=""img"">
                            </div>
                        </div>","-50","","0","images/B_D_S_37_darkshift.png","","","","startling","1","B","D","S","darkshift","",""
"","","","","","html-slider-response","155","377256","0.0-151.0","t7oywamb20","3","NaN","<div style=""width:500px;"">
                            <p style=""font-size:50px; font-weight:bold;""
                            >startling</p>
                            <div style=""width:240px; margin: auto;"">
                                <img src=""images/B_D_U_41_lightshift.png"" style= ""width:200px""alt=""img"">
                            </div>
                        </div>","-102","","0","images/B_D_U_41_lightshift.png","","","","startling","2","B","D","U","lightshift","",""
"","","","","","html-slider-response","156","379202","0.0-152.0","t7oywamb20","3","NaN","<div style=""width:500px;"">
                            <p style=""font-size:50px; font-weight:bold;""
                            >startling</p>
                            <div style=""width:240px; margin: auto;"">
                                <img src=""images/Y_D_S_5_darkshift.png"" style= ""width:200px""alt=""img"">
                            </div>
                        </div>","18","","0","images/Y_D_S_5_darkshift.png","","","","startling","2","Y","D","S","darkshift","",""
"","","","","","html-slider-response","157","381214","0.0-153.0","t7oywamb20","3","NaN","<div style=""width:500px;"">
                            <p style=""font-size:50px; font-weight:bold;""
                            >startling</p>
                            <div style=""width:240px; margin: auto;"">
                                <img src=""images/G_L_U_26_darkshift.png"" style= ""width:200px""alt=""img"">
                            </div>
                        </div>","-67","","0","images/G_L_U_26_darkshift.png","","","","startling","2","G","L","U","darkshift","",""
"","","","","","html-slider-response","158","385309","0.0-154.0","t7oywamb20","3","NaN","<div style=""width:500px;"">
                            <p style=""font-size:50px; font-weight:bold;""
                            >startling</p>
                            <div style=""width:240px; margin: auto;"">
                                <img src=""images/Y_L_U_2_lightshift.png"" style= ""width:200px""alt=""img"">
                            </div>
                        </div>","1","","0","images/Y_L_U_2_lightshift.png","","","","startling","1","Y","L","U","lightshift","",""
"","","","","","html-slider-response","159","387303","0.0-155.0","t7oywamb20","3","NaN","<div style=""width:500px;"">
                            <p style=""font-size:50px; font-weight:bold;""
                            >startling</p>
                            <div style=""width:240px; margin: auto;"">
                                <img src=""images/R_D_U_15_lightshift.png"" style= ""width:200px""alt=""img"">
                            </div>
                        </div>","44","","0","images/R_D_U_15_lightshift.png","","","","startling","1","R","D","U","lightshift","",""
"","","","","","html-slider-response","160","388936","0.0-156.0","t7oywamb20","3","NaN","<div style=""width:500px;"">
                            <p style=""font-size:50px; font-weight:bold;""
                            >startling</p>
                            <div style=""width:240px; margin: auto;"">
                                <img src=""images/B_D_U_41_darkshift.png"" style= ""width:200px""alt=""img"">
                            </div>
                        </div>","-104","","0","images/B_D_U_41_darkshift.png","","","","startling","2","B","D","U","darkshift","",""
"","","","","","html-slider-response","161","391672","0.0-157.0","t7oywamb20","3","NaN","<div style=""width:500px;"">
                            <p style=""font-size:50px; font-weight:bold;""
                            >startling</p>
                            <div style=""width:240px; margin: auto;"">
                                <img src=""images/B_L_S_30_lightshift.png"" style= ""width:200px""alt=""img"">
                            </div>
                        </div>","-161","","0","images/B_L_S_30_lightshift.png","","","","startling","2","B","L","S","lightshift","",""
"","","","","","html-slider-response","162","393465","0.0-158.0","t7oywamb20","3","NaN","<div style=""width:500px;"">
                            <p style=""font-size:50px; font-weight:bold;""
                            >startling</p>
                            <div style=""width:240px; margin: auto;"">
                                <img src=""images/Y_L_U_2_darkshift.png"" style= ""width:200px""alt=""img"">
                            </div>
                        </div>","34","","0","images/Y_L_U_2_darkshift.png","","","","startling","1","Y","L","U","darkshift","",""
"","","","","","html-slider-response","163","395550","0.0-159.0","t7oywamb20","3","NaN","<div style=""width:500px;"">
                            <p style=""font-size:50px; font-weight:bold;""
                            >startling</p>
                            <div style=""width:240px; margin: auto;"">
                                <img src=""images/B_L_U_33_darkshift.png"" style= ""width:200px""alt=""img"">
                            </div>
                        </div>","-183","","0","images/B_L_U_33_darkshift.png","","","","startling","1","B","L","U","darkshift","",""
"","","","","","html-slider-response","164","397197","0.0-160.0","t7oywamb20","3","NaN","<div style=""width:500px;"">
                            <p style=""font-size:50px; font-weight:bold;""
                            >startling</p>
                            <div style=""width:240px; margin: auto;"">
                                <img src=""images/R_L_S_10_lightshift.png"" style= ""width:200px""alt=""img"">
                            </div>
                        </div>","147","","0","images/R_L_S_10_lightshift.png","","","","startling","2","R","L","S","lightshift","",""
"","","","","","html-slider-response","165","398718","0.0-161.0","t7oywamb20","3","NaN","<div style=""width:500px;"">
                            <p style=""font-size:50px; font-weight:bold;""
                            >startling</p>
                            <div style=""width:240px; margin: auto;"">
                                <img src=""images/G_L_S_23_darkshift.png"" style= ""width:200px""alt=""img"">
                            </div>
                        </div>","-59","","0","images/G_L_S_23_darkshift.png","","","","startling","1","G","L","S","darkshift","",""
"","","","","","html-slider-response","166","400713","0.0-162.0","t7oywamb20","3","NaN","<div style=""width:500px;"">
                            <p style=""font-size:50px; font-weight:bold;""
                            >startling</p>
                            <div style=""width:240px; margin: auto;"">
                                <img src=""images/R_D_S_13_lightshift.png"" style= ""width:200px""alt=""img"">
                            </div>
                        </div>","116","","0","images/R_D_S_13_lightshift.png","","","","startling","2","R","D","S","lightshift","",""
"","","","","","html-slider-response","167","402387","0.0-163.0","t7oywamb20","3","NaN","<div style=""width:500px;"">
                            <p style=""font-size:50px; font-weight:bold;""
                            >startling</p>
                            <div style=""width:240px; margin: auto;"">
                                <img src=""images/R_D_U_15_darkshift.png"" style= ""width:200px""alt=""img"">
                            </div>
                        </div>","167","","0","images/R_D_U_15_darkshift.png","","","","startling","1","R","D","U","darkshift","",""
"","","","","","html-slider-response","168","404711","0.0-164.0","t7oywamb20","3","NaN","<div style=""width:500px;"">
                            <p style=""font-size:50px; font-weight:bold;""
                            >startling</p>
                            <div style=""width:240px; margin: auto;"">
                                <img src=""images/Y_L_S_44_darkshift.png"" style= ""width:200px""alt=""img"">
                            </div>
                        </div>","16","","0","images/Y_L_S_44_darkshift.png","","","","startling","2","Y","L","S","darkshift","",""
"","","","","","html-slider-response","169","406577","0.0-165.0","t7oywamb20","3","NaN","<div style=""width:500px;"">
                            <p style=""font-size:50px; font-weight:bold;""
                            >startling</p>
                            <div style=""width:240px; margin: auto;"">
                                <img src=""images/G_D_U_28_lightshift.png"" style= ""width:200px""alt=""img"">
                            </div>
                        </div>","-13","","0","images/G_D_U_28_lightshift.png","","","","startling","1","G","D","U","lightshift","",""
"","","","","","html-slider-response","170","408228","0.0-166.0","t7oywamb20","3","NaN","<div style=""width:500px;"">
                            <p style=""font-size:50px; font-weight:bold;""
                            >startling</p>
                            <div style=""width:240px; margin: auto;"">
                                <img src=""images/G_D_S_27_darkshift.png"" style= ""width:200px""alt=""img"">
                            </div>
                        </div>","-59","","0","images/G_D_S_27_darkshift.png","","","","startling","1","G","D","S","darkshift","",""
"","","","","","html-slider-response","171","409451","0.0-167.0","t7oywamb20","3","NaN","<div style=""width:500px;"">
                            <p style=""font-size:50px; font-weight:bold;""
                            >startling</p>
                            <div style=""width:240px; margin: auto;"">
                                <img src=""images/G_D_U_28_lightshift.png"" style= ""width:200px""alt=""img"">
                            </div>
                        </div>","-90","","0","images/G_D_U_28_lightshift.png","","","","startling","2","G","D","U","lightshift","",""
"","","","","","html-slider-response","172","411704","0.0-168.0","t7oywamb20","3","NaN","<div style=""width:500px;"">
                            <p style=""font-size:50px; font-weight:bold;""
                            >startling</p>
                            <div style=""width:240px; margin: auto;"">
                                <img src=""images/Y_D_U_7_lightshift.png"" style= ""width:200px""alt=""img"">
                            </div>
                        </div>","4","","0","images/Y_D_U_7_lightshift.png","","","","startling","1","Y","D","U","lightshift","",""
