"success","timeout","failed_images","failed_audio","failed_video","trial_type","trial_index","time_elapsed","internal_node_id","subject_id","condition_num","rt","stimulus","response","question_order","slider_start","image_path","practiceTrial","practiceTrialNum","correct","concept","repetition","hue","lightness","saturation","shift","ishihara_plate","correct_response"
"true","false","[]","[]","[]","preload","0","233","0.0-0.0","tbr1ao04wa","13","","","","","","","","","","","","","","","","",""
"","","","","","html-button-response","1","1534","0.0-1.0","tbr1ao04wa","13","1299","Welcome to our experiment!<p>At the bottom of this screen, you will see a button that says ""Begin Experiment"".<br>Please only click that button when you are ready to complete the 25 minute experiment in one sitting.</p><p> Once you click that button, it will not be possible to restart the experiment.","0","","","","","","","","","","","","","",""
"true","","","","","fullscreen","2","3566","0.0-2.0","tbr1ao04wa","13","1029","","","","","","","","","","","","","","","",""
"","","","","","survey-multi-select","3","8645","0.0-3.0","tbr1ao04wa","13","5077","","{""Consent"":[""<strong>I consent</strong>""]}","[0]","","","","","","","","","","","","",""
"","","","","","html-button-response","4","9762","0.0-4.0","tbr1ao04wa","13","1115","Welcome! <p> This experiment involves two parts: demographic information, followed by the experimental task.<p> It will take about 25 minutes to complete both parts.","0","","","","","","","","","","","","","",""
"","","","","","survey-text","5","20046","0.0-5.0","tbr1ao04wa","13","10272","","{""Age"":""19"",""Gender"":""female"",""Race/ethnicity"":""white"",""Languages"":""English""}","","","","","","","","","","","","","",""
"","","","","","html-slider-response","6","66904","0.0-6.0","tbr1ao04wa","13","46856","
                            <div style='text-align:left; font-size:20px; line-height:25px; width: 1400px;'>
                                During this experiment you will be asked to rate how much you associate maps with                    different concepts.<br> Below, you can see some examples of the maps you will be asked to rate. Next to the maps
                    is the list of concepts.<br>You will be asked                    to rate how much you associate each map with each concept on a scale from 'not at all' to 'very much' like the
                    one below. <br><br>
                    Now, please look at the list of concepts and maps. For each concept, think about the map you associate 'very
                    much' with the concept.<br>                     When you see that map during the experiment, please rate it near the 'very much' endpoint of the
                    scale.<br>Now, please think about which map you associate 'not at all'                     with each concept. When you see that map during the experiment, please rate it near the 'not at all' endpoint
                    of the scale.<br>
                    Please use the full range of the scale. That is, if a map is somewhat associated with the concept, you would
                    click partway between the middle point and right side of the scale.                    You will be asked to rate each map for a given concept before moving on to the next concept.<br><br>Press the
                    'Continue' button for instructions on how to use the slider.                    <br><br>
                </div>

                <div style=""width: 500px; margin: 0 auto;"">
                    <!-- Centered text paragraphs -->
                    <div style=""text-align: center; width: 500px;"">
                        <p style=""font-size:25px; line-height:18px;"">calm</p>
                        <p style=""font-size:25px; line-height:18px;"">positive</p>
                        <p style=""font-size:25px;line-height:18px;"">negative</p>
                        <p style=""font-size:25px;line-height:18px;"">startling</p>
                    </div>

                    <!-- Grid section -->
                   <div style=""display: flex; justify-content: center; padding-top: 15px;"">
                    <div style=""display: grid; grid-template-columns: repeat(8, 80px); grid-gap: 5px; width: auto;"">
                        <img src=""images/Y_L_S_27_lightshift.png"" alt=""map"" style=""width: 100%;""><img src=""images/G_L_U_7_lightshift.png"" alt=""map"" style=""width: 100%;""><img src=""images/B_L_U_15_lightshift.png"" alt=""map"" style=""width: 100%;""><img src=""images/Y_L_U_28_lightshift.png"" alt=""map"" style=""width: 100%;""><img src=""images/B_D_S_23_lightshift.png"" alt=""map"" style=""width: 100%;""><img src=""images/B_D_U_26_lightshift.png"" alt=""map"" style=""width: 100%;""><img src=""images/Y_L_U_28_darkshift.png"" alt=""map"" style=""width: 100%;""><img src=""images/G_L_S_5_lightshift.png"" alt=""map"" style=""width: 100%;""><img src=""images/G_D_U_12_darkshift.png"" alt=""map"" style=""width: 100%;""><img src=""images/G_D_S_10_lightshift.png"" alt=""map"" style=""width: 100%;""><img src=""images/Y_L_S_27_darkshift.png"" alt=""map"" style=""width: 100%;""><img src=""images/R_L_U_41_darkshift.png"" alt=""map"" style=""width: 100%;""><img src=""images/G_D_U_12_lightshift.png"" alt=""map"" style=""width: 100%;""><img src=""images/R_D_S_44_lightshift.png"" alt=""map"" style=""width: 100%;""><img src=""images/B_D_U_26_darkshift.png"" alt=""map"" style=""width: 100%;""><img src=""images/B_D_S_23_darkshift.png"" alt=""map"" style=""width: 100%;""><img src=""images/R_D_U_2_darkshift.png"" alt=""map"" style=""width: 100%;""><img src=""images/B_L_S_13_lightshift.png"" alt=""map"" style=""width: 100%;""><img src=""images/R_D_S_44_darkshift.png"" alt=""map"" style=""width: 100%;""><img src=""images/G_L_S_5_darkshift.png"" alt=""map"" style=""width: 100%;""><img src=""images/R_D_U_2_lightshift.png"" alt=""map"" style=""width: 100%;""><img src=""images/R_L_U_41_lightshift.png"" alt=""map"" style=""width: 100%;""><img src=""images/B_L_U_15_darkshift.png"" alt=""map"" style=""width: 100%;""><img src=""images/G_D_S_10_darkshift.png"" alt=""map"" style=""width: 100%;""><img src=""images/Y_D_S_30_lightshift.png"" alt=""map"" style=""width: 100%;""><img src=""images/Y_D_U_33_lightshift.png"" alt=""map"" style=""width: 100%;""><img src=""images/R_L_S_37_darkshift.png"" alt=""map"" style=""width: 100%;""><img src=""images/G_L_U_7_darkshift.png"" alt=""map"" style=""width: 100%;""><img src=""images/R_L_S_37_lightshift.png"" alt=""map"" style=""width: 100%;""><img src=""images/B_L_S_13_darkshift.png"" alt=""map"" style=""width: 100%;""><img src=""images/Y_D_U_33_darkshift.png"" alt=""map"" style=""width: 100%;""><img src=""images/Y_D_S_30_darkshift.png"" alt=""map"" style=""width: 100%;"">
                    </div>
                </div>

                    <!-- Clear floats -->
                    <div style=""clear: both;""></div>
                </div>
                            ","null","","0","maps_anchoring.png","true","","","","","","","","","",""
"","","","","","html-button-response","7","68944","0.0-7.0","tbr1ao04wa","13","2038","<div style=""width:800px;""><p style=""text-align:left"">To move the slider, click and drag your cursor to the location of the scale where you would like to make your rating and then let go. When you let go of the slider, your response will be recorded and the next trial will begin. <br>
                    We are interested in your initial impressions of each map for the given concept, so please go with your first intuition. <br>
                    Before you begin the experiment, there will be four training trials for you to practice using the scale. <br>
                     When you are ready to start the training trials, please click ""Continue"".</p><br></div>","0","","","","","","","","","","","","","",""
"","","","","","html-slider-response","8","73122","0.0-8.0-0.0","tbr1ao04wa","13","NaN","<div style=""width:500px;"">
                                    <p style=""font-size:25px;"">Please move the slider all the way to the <br> right endpoint of the scale</p>

                                    </div>
                                </div>","200","","0","","true","0","true","","","","","","","",""
"","","","","","html-button-response","9","74632","0.0-8.0-1.0","tbr1ao04wa","13","1008","<p align='center'><b>Good job!</b> Click on 'Continue' to proceed.</p>","0","","","","","","","","","","","","","",""
"","","","","","html-slider-response","10","76500","0.0-9.0-0.0","tbr1ao04wa","13","NaN","<div style=""width:500px;"">
                                    <p style=""font-size:25px;"">Please move the slider all the way to the <br> left endpoint of the scale</p>

                                    </div>
                                </div>","-200","","0","","true","1","true","","","","","","","",""
"","","","","","html-button-response","11","77888","0.0-9.0-1.0","tbr1ao04wa","13","887","<p align='center'><b>Good job!</b> Click on 'Continue' to proceed.</p>","0","","","","","","","","","","","","","",""
"","","","","","html-slider-response","12","81814","0.0-10.0-0.0","tbr1ao04wa","13","NaN","<div style=""width:500px;"">
                                    <p style=""font-size:25px;"">Please move the slider halfway between the center and right endpoint of the scale</p>

                                    </div>
                                </div>","111","","0","","true","2","false","","","","","","","",""
"","","","","","html-button-response","13","83179","0.0-10.0-1.0","tbr1ao04wa","13","863","<p align='center'><b>Not quite!</b> The slider was not placed near the instructed located. Click on 'Continue' to try again. </p>","0","","","","","","","","","","","","","",""
"","","","","","html-slider-response","14","86080","0.0-10.1-0.1","tbr1ao04wa","13","NaN","<div style=""width:500px;"">
                                    <p style=""font-size:25px;"">Please move the slider halfway between the center and right endpoint of the scale</p>

                                    </div>
                                </div>","110","","0","","true","2","true","","","","","","","",""
"","","","","","html-button-response","15","87539","0.0-10.1-1.1","tbr1ao04wa","13","957","<p align='center'><b>Good job!</b> Click on 'Continue' to proceed.</p>","0","","","","","","","","","","","","","",""
"","","","","","html-slider-response","16","90705","0.0-11.0-0.0","tbr1ao04wa","13","NaN","<div style=""width:500px;"">
                                    <p style=""font-size:25px;"">Please move the slider halfway between the center and left endpoint of the scale</p>

                                    </div>
                                </div>","-110","","0","","true","3","true","","","","","","","",""
"","","","","","html-button-response","17","92181","0.0-11.0-1.0","tbr1ao04wa","13","975","<p align='center'><b>Good job!</b> Click on 'Continue' to proceed.</p>","0","","","","","","","","","","","","","",""
"","","","","","html-button-response","18","95034","0.0-12.0","tbr1ao04wa","13","2852","<p>Great job! You've completed the practice trials. Now you will begin the main task.</p>","0","","","","","","","","","","","","","",""
"","","","","","html-button-response","19","99864","0.0-13.0","tbr1ao04wa","13","4829","<p>In this block of trials, you will be asked to rate how much you associate each map with:</p > <p style = 'font-size:150%; font-weight: bold'>positive</p><br></br>","0","","","","","","","","","","","","","",""
"","","","","","html-slider-response","20","108008","0.0-14.0","tbr1ao04wa","13","NaN","<div style=""width:500px;"">
                            <p style=""font-size:50px; font-weight:bold;""
                            >positive</p>
                            <div style=""width:240px; margin: auto;"">
                                <img src=""images/G_L_U_7_lightshift.png"" style= ""width:200px""alt=""img"">
                            </div>
                        </div>","-41","","0","images/G_L_U_7_lightshift.png","","","","positive","1","G","L","U","lightshift","",""
"","","","","","html-slider-response","21","111585","0.0-15.0","tbr1ao04wa","13","NaN","<div style=""width:500px;"">
                            <p style=""font-size:50px; font-weight:bold;""
                            >positive</p>
                            <div style=""width:240px; margin: auto;"">
                                <img src=""images/Y_D_S_30_lightshift.png"" style= ""width:200px""alt=""img"">
                            </div>
                        </div>","-102","","0","images/Y_D_S_30_lightshift.png","","","","positive","1","Y","D","S","lightshift","",""
"","","","","","html-slider-response","22","113878","0.0-16.0","tbr1ao04wa","13","NaN","<div style=""width:500px;"">
                            <p style=""font-size:50px; font-weight:bold;""
                            >positive</p>
                            <div style=""width:240px; margin: auto;"">
                                <img src=""images/B_L_S_13_darkshift.png"" style= ""width:200px""alt=""img"">
                            </div>
                        </div>","35","","0","images/B_L_S_13_darkshift.png","","","","positive","1","B","L","S","darkshift","",""
"","","","","","html-slider-response","23","116426","0.0-17.0","tbr1ao04wa","13","NaN","<div style=""width:500px;"">
                            <p style=""font-size:50px; font-weight:bold;""
                            >positive</p>
                            <div style=""width:240px; margin: auto;"">
                                <img src=""images/G_D_U_12_darkshift.png"" style= ""width:200px""alt=""img"">
                            </div>
                        </div>","-104","","0","images/G_D_U_12_darkshift.png","","","","positive","1","G","D","U","darkshift","",""
"","","","","","html-slider-response","24","118609","0.0-18.0","tbr1ao04wa","13","NaN","<div style=""width:500px;"">
                            <p style=""font-size:50px; font-weight:bold;""
                            >positive</p>
                            <div style=""width:240px; margin: auto;"">
                                <img src=""images/R_L_U_41_lightshift.png"" style= ""width:200px""alt=""img"">
                            </div>
                        </div>","176","","0","images/R_L_U_41_lightshift.png","","","","positive","1","R","L","U","lightshift","",""
"","","","","","html-slider-response","25","120884","0.0-19.0","tbr1ao04wa","13","NaN","<div style=""width:500px;"">
                            <p style=""font-size:50px; font-weight:bold;""
                            >positive</p>
                            <div style=""width:240px; margin: auto;"">
                                <img src=""images/Y_D_S_30_lightshift.png"" style= ""width:200px""alt=""img"">
                            </div>
                        </div>","-141","","0","images/Y_D_S_30_lightshift.png","","","","positive","2","Y","D","S","lightshift","",""
"","","","","","html-slider-response","26","123040","0.0-20.0","tbr1ao04wa","13","NaN","<div style=""width:500px;"">
                            <p style=""font-size:50px; font-weight:bold;""
                            >positive</p>
                            <div style=""width:240px; margin: auto;"">
                                <img src=""images/G_D_U_12_lightshift.png"" style= ""width:200px""alt=""img"">
                            </div>
                        </div>","-37","","0","images/G_D_U_12_lightshift.png","","","","positive","2","G","D","U","lightshift","",""
"","","","","","html-slider-response","27","125007","0.0-21.0","tbr1ao04wa","13","NaN","<div style=""width:500px;"">
                            <p style=""font-size:50px; font-weight:bold;""
                            >positive</p>
                            <div style=""width:240px; margin: auto;"">
                                <img src=""images/Y_D_S_30_darkshift.png"" style= ""width:200px""alt=""img"">
                            </div>
                        </div>","-200","","0","images/Y_D_S_30_darkshift.png","","","","positive","1","Y","D","S","darkshift","",""
"","","","","","html-slider-response","28","126940","0.0-22.0","tbr1ao04wa","13","NaN","<div style=""width:500px;"">
                            <p style=""font-size:50px; font-weight:bold;""
                            >positive</p>
                            <div style=""width:240px; margin: auto;"">
                                <img src=""images/G_D_U_12_lightshift.png"" style= ""width:200px""alt=""img"">
                            </div>
                        </div>","-43","","0","images/G_D_U_12_lightshift.png","","","","positive","1","G","D","U","lightshift","",""
"","","","","","html-slider-response","29","128922","0.0-23.0","tbr1ao04wa","13","NaN","<div style=""width:500px;"">
                            <p style=""font-size:50px; font-weight:bold;""
                            >positive</p>
                            <div style=""width:240px; margin: auto;"">
                                <img src=""images/G_L_S_5_lightshift.png"" style= ""width:200px""alt=""img"">
                            </div>
                        </div>","22","","0","images/G_L_S_5_lightshift.png","","","","positive","1","G","L","S","lightshift","",""
"","","","","","html-slider-response","30","130822","0.0-24.0","tbr1ao04wa","13","NaN","<div style=""width:500px;"">
                            <p style=""font-size:50px; font-weight:bold;""
                            >positive</p>
                            <div style=""width:240px; margin: auto;"">
                                <img src=""images/B_D_S_23_darkshift.png"" style= ""width:200px""alt=""img"">
                            </div>
                        </div>","-101","","0","images/B_D_S_23_darkshift.png","","","","positive","2","B","D","S","darkshift","",""
"","","","","","html-slider-response","31","132852","0.0-25.0","tbr1ao04wa","13","NaN","<div style=""width:500px;"">
                            <p style=""font-size:50px; font-weight:bold;""
                            >positive</p>
                            <div style=""width:240px; margin: auto;"">
                                <img src=""images/B_D_U_26_darkshift.png"" style= ""width:200px""alt=""img"">
                            </div>
                        </div>","-147","","0","images/B_D_U_26_darkshift.png","","","","positive","1","B","D","U","darkshift","",""
"","","","","","html-slider-response","32","134889","0.0-26.0","tbr1ao04wa","13","NaN","<div style=""width:500px;"">
                            <p style=""font-size:50px; font-weight:bold;""
                            >positive</p>
                            <div style=""width:240px; margin: auto;"">
                                <img src=""images/G_L_S_5_darkshift.png"" style= ""width:200px""alt=""img"">
                            </div>
                        </div>","42","","0","images/G_L_S_5_darkshift.png","","","","positive","1","G","L","S","darkshift","",""
"","","","","","html-slider-response","33","136996","0.0-27.0","tbr1ao04wa","13","NaN","<div style=""width:500px;"">
                            <p style=""font-size:50px; font-weight:bold;""
                            >positive</p>
                            <div style=""width:240px; margin: auto;"">
                                <img src=""images/B_D_S_23_lightshift.png"" style= ""width:200px""alt=""img"">
                            </div>
                        </div>","91","","0","images/B_D_S_23_lightshift.png","","","","positive","1","B","D","S","lightshift","",""
"","","","","","html-slider-response","34","138421","0.0-28.0","tbr1ao04wa","13","NaN","<div style=""width:500px;"">
                            <p style=""font-size:50px; font-weight:bold;""
                            >positive</p>
                            <div style=""width:240px; margin: auto;"">
                                <img src=""images/Y_D_U_33_darkshift.png"" style= ""width:200px""alt=""img"">
                            </div>
                        </div>","3","","0","images/Y_D_U_33_darkshift.png","","","","positive","2","Y","D","U","darkshift","",""
"","","","","","html-slider-response","35","140479","0.0-29.0","tbr1ao04wa","13","NaN","<div style=""width:500px;"">
                            <p style=""font-size:50px; font-weight:bold;""
                            >positive</p>
                            <div style=""width:240px; margin: auto;"">
                                <img src=""images/B_D_U_26_lightshift.png"" style= ""width:200px""alt=""img"">
                            </div>
                        </div>","78","","0","images/B_D_U_26_lightshift.png","","","","positive","1","B","D","U","lightshift","",""
"","","","","","html-slider-response","36","143317","0.0-30.0","tbr1ao04wa","13","NaN","<div style=""width:500px;"">
                            <p style=""font-size:50px; font-weight:bold;""
                            >positive</p>
                            <div style=""width:240px; margin: auto;"">
                                <img src=""images/Y_L_U_28_darkshift.png"" style= ""width:200px""alt=""img"">
                            </div>
                        </div>","-47","","0","images/Y_L_U_28_darkshift.png","","","","positive","1","Y","L","U","darkshift","",""
"","","","","","html-slider-response","37","145081","0.0-31.0","tbr1ao04wa","13","NaN","<div style=""width:500px;"">
                            <p style=""font-size:50px; font-weight:bold;""
                            >positive</p>
                            <div style=""width:240px; margin: auto;"">
                                <img src=""images/R_L_S_37_lightshift.png"" style= ""width:200px""alt=""img"">
                            </div>
                        </div>","200","","0","images/R_L_S_37_lightshift.png","","","","positive","2","R","L","S","lightshift","",""
"","","","","","html-slider-response","38","147063","0.0-32.0","tbr1ao04wa","13","NaN","<div style=""width:500px;"">
                            <p style=""font-size:50px; font-weight:bold;""
                            >positive</p>
                            <div style=""width:240px; margin: auto;"">
                                <img src=""images/R_L_S_37_darkshift.png"" style= ""width:200px""alt=""img"">
                            </div>
                        </div>","200","","0","images/R_L_S_37_darkshift.png","","","","positive","2","R","L","S","darkshift","",""
"","","","","","html-slider-response","39","149595","0.0-33.0","tbr1ao04wa","13","NaN","<div style=""width:500px;"">
                            <p style=""font-size:50px; font-weight:bold;""
                            >positive</p>
                            <div style=""width:240px; margin: auto;"">
                                <img src=""images/Y_L_U_28_darkshift.png"" style= ""width:200px""alt=""img"">
                            </div>
                        </div>","-28","","0","images/Y_L_U_28_darkshift.png","","","","positive","2","Y","L","U","darkshift","",""
"","","","","","html-slider-response","40","151447","0.0-34.0","tbr1ao04wa","13","NaN","<div style=""width:500px;"">
                            <p style=""font-size:50px; font-weight:bold;""
                            >positive</p>
                            <div style=""width:240px; margin: auto;"">
                                <img src=""images/Y_D_U_33_lightshift.png"" style= ""width:200px""alt=""img"">
                            </div>
                        </div>","-135","","0","images/Y_D_U_33_lightshift.png","","","","positive","2","Y","D","U","lightshift","",""
"","","","","","html-slider-response","41","153493","0.0-35.0","tbr1ao04wa","13","NaN","<div style=""width:500px;"">
                            <p style=""font-size:50px; font-weight:bold;""
                            >positive</p>
                            <div style=""width:240px; margin: auto;"">
                                <img src=""images/Y_D_U_33_darkshift.png"" style= ""width:200px""alt=""img"">
                            </div>
                        </div>","-200","","0","images/Y_D_U_33_darkshift.png","","","","positive","1","Y","D","U","darkshift","",""
"","","","","","html-slider-response","42","155205","0.0-36.0","tbr1ao04wa","13","NaN","<div style=""width:500px;"">
                            <p style=""font-size:50px; font-weight:bold;""
                            >positive</p>
                            <div style=""width:240px; margin: auto;"">
                                <img src=""images/Y_L_S_27_darkshift.png"" style= ""width:200px""alt=""img"">
                            </div>
                        </div>","53","","0","images/Y_L_S_27_darkshift.png","","","","positive","2","Y","L","S","darkshift","",""
"","","","","","html-slider-response","43","157094","0.0-37.0","tbr1ao04wa","13","NaN","<div style=""width:500px;"">
                            <p style=""font-size:50px; font-weight:bold;""
                            >positive</p>
                            <div style=""width:240px; margin: auto;"">
                                <img src=""images/G_L_U_7_lightshift.png"" style= ""width:200px""alt=""img"">
                            </div>
                        </div>","131","","0","images/G_L_U_7_lightshift.png","","","","positive","2","G","L","U","lightshift","",""
"","","","","","html-slider-response","44","159255","0.0-38.0","tbr1ao04wa","13","NaN","<div style=""width:500px;"">
                            <p style=""font-size:50px; font-weight:bold;""
                            >positive</p>
                            <div style=""width:240px; margin: auto;"">
                                <img src=""images/R_D_U_2_lightshift.png"" style= ""width:200px""alt=""img"">
                            </div>
                        </div>","134","","0","images/R_D_U_2_lightshift.png","","","","positive","1","R","D","U","lightshift","",""
"","","","","","html-slider-response","45","161218","0.0-39.0","tbr1ao04wa","13","NaN","<div style=""width:500px;"">
                            <p style=""font-size:50px; font-weight:bold;""
                            >positive</p>
                            <div style=""width:240px; margin: auto;"">
                                <img src=""images/B_D_U_26_darkshift.png"" style= ""width:200px""alt=""img"">
                            </div>
                        </div>","-183","","0","images/B_D_U_26_darkshift.png","","","","positive","2","B","D","U","darkshift","",""
"","","","","","html-slider-response","46","163560","0.0-40.0","tbr1ao04wa","13","NaN","<div style=""width:500px;"">
                            <p style=""font-size:50px; font-weight:bold;""
                            >positive</p>
                            <div style=""width:240px; margin: auto;"">
                                <img src=""images/B_L_S_13_lightshift.png"" style= ""width:200px""alt=""img"">
                            </div>
                        </div>","194","","0","images/B_L_S_13_lightshift.png","","","","positive","2","B","L","S","lightshift","",""
"","","","","","html-slider-response","47","165229","0.0-41.0","tbr1ao04wa","13","NaN","<div style=""width:500px;"">
                            <p style=""font-size:50px; font-weight:bold;""
                            >positive</p>
                            <div style=""width:240px; margin: auto;"">
                                <img src=""images/R_D_U_2_lightshift.png"" style= ""width:200px""alt=""img"">
                            </div>
                        </div>","200","","0","images/R_D_U_2_lightshift.png","","","","positive","2","R","D","U","lightshift","",""
"","","","","","html-slider-response","48","167002","0.0-42.0","tbr1ao04wa","13","NaN","<div style=""width:500px;"">
                            <p style=""font-size:50px; font-weight:bold;""
                            >positive</p>
                            <div style=""width:240px; margin: auto;"">
                                <img src=""images/B_L_S_13_lightshift.png"" style= ""width:200px""alt=""img"">
                            </div>
                        </div>","148","","0","images/B_L_S_13_lightshift.png","","","","positive","1","B","L","S","lightshift","",""
"","","","","","html-slider-response","49","169575","0.0-43.0","tbr1ao04wa","13","NaN","<div style=""width:500px;"">
                            <p style=""font-size:50px; font-weight:bold;""
                            >positive</p>
                            <div style=""width:240px; margin: auto;"">
                                <img src=""images/G_L_S_5_darkshift.png"" style= ""width:200px""alt=""img"">
                            </div>
                        </div>","-38","","0","images/G_L_S_5_darkshift.png","","","","positive","2","G","L","S","darkshift","",""
"","","","","","html-slider-response","50","171428","0.0-44.0","tbr1ao04wa","13","NaN","<div style=""width:500px;"">
                            <p style=""font-size:50px; font-weight:bold;""
                            >positive</p>
                            <div style=""width:240px; margin: auto;"">
                                <img src=""images/Y_L_S_27_lightshift.png"" style= ""width:200px""alt=""img"">
                            </div>
                        </div>","162","","0","images/Y_L_S_27_lightshift.png","","","","positive","2","Y","L","S","lightshift","",""
"","","","","","html-slider-response","51","173649","0.0-45.0","tbr1ao04wa","13","NaN","<div style=""width:500px;"">
                            <p style=""font-size:50px; font-weight:bold;""
                            >positive</p>
                            <div style=""width:240px; margin: auto;"">
                                <img src=""images/B_L_U_15_darkshift.png"" style= ""width:200px""alt=""img"">
                            </div>
                        </div>","-185","","0","images/B_L_U_15_darkshift.png","","","","positive","2","B","L","U","darkshift","",""
"","","","","","html-slider-response","52","175551","0.0-46.0","tbr1ao04wa","13","NaN","<div style=""width:500px;"">
                            <p style=""font-size:50px; font-weight:bold;""
                            >positive</p>
                            <div style=""width:240px; margin: auto;"">
                                <img src=""images/Y_D_U_33_lightshift.png"" style= ""width:200px""alt=""img"">
                            </div>
                        </div>","-113","","0","images/Y_D_U_33_lightshift.png","","","","positive","1","Y","D","U","lightshift","",""
"","","","","","html-slider-response","53","177245","0.0-47.0","tbr1ao04wa","13","NaN","<div style=""width:500px;"">
                            <p style=""font-size:50px; font-weight:bold;""
                            >positive</p>
                            <div style=""width:240px; margin: auto;"">
                                <img src=""images/B_D_S_23_lightshift.png"" style= ""width:200px""alt=""img"">
                            </div>
                        </div>","-54","","0","images/B_D_S_23_lightshift.png","","","","positive","2","B","D","S","lightshift","",""
"","","","","","html-slider-response","54","178715","0.0-48.0","tbr1ao04wa","13","NaN","<div style=""width:500px;"">
                            <p style=""font-size:50px; font-weight:bold;""
                            >positive</p>
                            <div style=""width:240px; margin: auto;"">
                                <img src=""images/R_D_S_44_lightshift.png"" style= ""width:200px""alt=""img"">
                            </div>
                        </div>","200","","0","images/R_D_S_44_lightshift.png","","","","positive","2","R","D","S","lightshift","",""
"","","","","","html-slider-response","55","180464","0.0-49.0","tbr1ao04wa","13","NaN","<div style=""width:500px;"">
                            <p style=""font-size:50px; font-weight:bold;""
                            >positive</p>
                            <div style=""width:240px; margin: auto;"">
                                <img src=""images/G_L_U_7_darkshift.png"" style= ""width:200px""alt=""img"">
                            </div>
                        </div>","17","","0","images/G_L_U_7_darkshift.png","","","","positive","2","G","L","U","darkshift","",""
"","","","","","html-slider-response","56","182165","0.0-50.0","tbr1ao04wa","13","NaN","<div style=""width:500px;"">
                            <p style=""font-size:50px; font-weight:bold;""
                            >positive</p>
                            <div style=""width:240px; margin: auto;"">
                                <img src=""images/G_D_U_12_darkshift.png"" style= ""width:200px""alt=""img"">
                            </div>
                        </div>","-75","","0","images/G_D_U_12_darkshift.png","","","","positive","2","G","D","U","darkshift","",""
"","","","","","html-slider-response","57","183748","0.0-51.0","tbr1ao04wa","13","NaN","<div style=""width:500px;"">
                            <p style=""font-size:50px; font-weight:bold;""
                            >positive</p>
                            <div style=""width:240px; margin: auto;"">
                                <img src=""images/Y_L_S_27_lightshift.png"" style= ""width:200px""alt=""img"">
                            </div>
                        </div>","86","","0","images/Y_L_S_27_lightshift.png","","","","positive","1","Y","L","S","lightshift","",""
"","","","","","html-slider-response","58","185314","0.0-52.0","tbr1ao04wa","13","NaN","<div style=""width:500px;"">
                            <p style=""font-size:50px; font-weight:bold;""
                            >positive</p>
                            <div style=""width:240px; margin: auto;"">
                                <img src=""images/R_L_U_41_lightshift.png"" style= ""width:200px""alt=""img"">
                            </div>
                        </div>","135","","0","images/R_L_U_41_lightshift.png","","","","positive","2","R","L","U","lightshift","",""
"","","","","","html-slider-response","59","186815","0.0-53.0","tbr1ao04wa","13","NaN","<div style=""width:500px;"">
                            <p style=""font-size:50px; font-weight:bold;""
                            >positive</p>
                            <div style=""width:240px; margin: auto;"">
                                <img src=""images/B_L_U_15_darkshift.png"" style= ""width:200px""alt=""img"">
                            </div>
                        </div>","-60","","0","images/B_L_U_15_darkshift.png","","","","positive","1","B","L","U","darkshift","",""
"","","","","","html-slider-response","60","188454","0.0-54.0","tbr1ao04wa","13","NaN","<div style=""width:500px;"">
                            <p style=""font-size:50px; font-weight:bold;""
                            >positive</p>
                            <div style=""width:240px; margin: auto;"">
                                <img src=""images/B_L_U_15_lightshift.png"" style= ""width:200px""alt=""img"">
                            </div>
                        </div>","113","","0","images/B_L_U_15_lightshift.png","","","","positive","1","B","L","U","lightshift","",""
"","","","","","html-slider-response","61","190358","0.0-55.0","tbr1ao04wa","13","NaN","<div style=""width:500px;"">
                            <p style=""font-size:50px; font-weight:bold;""
                            >positive</p>
                            <div style=""width:240px; margin: auto;"">
                                <img src=""images/B_D_U_26_lightshift.png"" style= ""width:200px""alt=""img"">
                            </div>
                        </div>","22","","0","images/B_D_U_26_lightshift.png","","","","positive","2","B","D","U","lightshift","",""
"","","","","","html-slider-response","62","191938","0.0-56.0","tbr1ao04wa","13","NaN","<div style=""width:500px;"">
                            <p style=""font-size:50px; font-weight:bold;""
                            >positive</p>
                            <div style=""width:240px; margin: auto;"">
                                <img src=""images/Y_L_U_28_lightshift.png"" style= ""width:200px""alt=""img"">
                            </div>
                        </div>","91","","0","images/Y_L_U_28_lightshift.png","","","","positive","1","Y","L","U","lightshift","",""
"","","","","","html-slider-response","63","193358","0.0-57.0","tbr1ao04wa","13","NaN","<div style=""width:500px;"">
                            <p style=""font-size:50px; font-weight:bold;""
                            >positive</p>
                            <div style=""width:240px; margin: auto;"">
                                <img src=""images/G_L_S_5_lightshift.png"" style= ""width:200px""alt=""img"">
                            </div>
                        </div>","151","","0","images/G_L_S_5_lightshift.png","","","","positive","2","G","L","S","lightshift","",""
"","","","","","html-slider-response","64","195149","0.0-58.0","tbr1ao04wa","13","NaN","<div style=""width:500px;"">
                            <p style=""font-size:50px; font-weight:bold;""
                            >positive</p>
                            <div style=""width:240px; margin: auto;"">
                                <img src=""images/B_L_U_15_lightshift.png"" style= ""width:200px""alt=""img"">
                            </div>
                        </div>","130","","0","images/B_L_U_15_lightshift.png","","","","positive","2","B","L","U","lightshift","",""
"","","","","","html-slider-response","65","196937","0.0-59.0","tbr1ao04wa","13","NaN","<div style=""width:500px;"">
                            <p style=""font-size:50px; font-weight:bold;""
                            >positive</p>
                            <div style=""width:240px; margin: auto;"">
                                <img src=""images/G_L_U_7_darkshift.png"" style= ""width:200px""alt=""img"">
                            </div>
                        </div>","-82","","0","images/G_L_U_7_darkshift.png","","","","positive","1","G","L","U","darkshift","",""
"","","","","","html-slider-response","66","198646","0.0-60.0","tbr1ao04wa","13","NaN","<div style=""width:500px;"">
                            <p style=""font-size:50px; font-weight:bold;""
                            >positive</p>
                            <div style=""width:240px; margin: auto;"">
                                <img src=""images/G_D_S_10_darkshift.png"" style= ""width:200px""alt=""img"">
                            </div>
                        </div>","-179","","0","images/G_D_S_10_darkshift.png","","","","positive","2","G","D","S","darkshift","",""
"","","","","","html-slider-response","67","200556","0.0-61.0","tbr1ao04wa","13","NaN","<div style=""width:500px;"">
                            <p style=""font-size:50px; font-weight:bold;""
                            >positive</p>
                            <div style=""width:240px; margin: auto;"">
                                <img src=""images/B_D_S_23_darkshift.png"" style= ""width:200px""alt=""img"">
                            </div>
                        </div>","-136","","0","images/B_D_S_23_darkshift.png","","","","positive","1","B","D","S","darkshift","",""
"","","","","","html-slider-response","68","202538","0.0-62.0","tbr1ao04wa","13","NaN","<div style=""width:500px;"">
                            <p style=""font-size:50px; font-weight:bold;""
                            >positive</p>
                            <div style=""width:240px; margin: auto;"">
                                <img src=""images/G_D_S_10_lightshift.png"" style= ""width:200px""alt=""img"">
                            </div>
                        </div>","32","","0","images/G_D_S_10_lightshift.png","","","","positive","1","G","D","S","lightshift","",""
"","","","","","html-slider-response","69","204327","0.0-63.0","tbr1ao04wa","13","NaN","<div style=""width:500px;"">
                            <p style=""font-size:50px; font-weight:bold;""
                            >positive</p>
                            <div style=""width:240px; margin: auto;"">
                                <img src=""images/Y_D_S_30_darkshift.png"" style= ""width:200px""alt=""img"">
                            </div>
                        </div>","-200","","0","images/Y_D_S_30_darkshift.png","","","","positive","2","Y","D","S","darkshift","",""
"","","","","","html-slider-response","70","206744","0.0-64.0","tbr1ao04wa","13","NaN","<div style=""width:500px;"">
                            <p style=""font-size:50px; font-weight:bold;""
                            >positive</p>
                            <div style=""width:240px; margin: auto;"">
                                <img src=""images/R_L_U_41_darkshift.png"" style= ""width:200px""alt=""img"">
                            </div>
                        </div>","-14","","0","images/R_L_U_41_darkshift.png","","","","positive","1","R","L","U","darkshift","",""
"","","","","","html-slider-response","71","208201","0.0-65.0","tbr1ao04wa","13","NaN","<div style=""width:500px;"">
                            <p style=""font-size:50px; font-weight:bold;""
                            >positive</p>
                            <div style=""width:240px; margin: auto;"">
                                <img src=""images/R_L_S_37_darkshift.png"" style= ""width:200px""alt=""img"">
                            </div>
                        </div>","200","","0","images/R_L_S_37_darkshift.png","","","","positive","1","R","L","S","darkshift","",""
"","","","","","html-slider-response","72","210103","0.0-66.0","tbr1ao04wa","13","NaN","<div style=""width:500px;"">
                            <p style=""font-size:50px; font-weight:bold;""
                            >positive</p>
                            <div style=""width:240px; margin: auto;"">
                                <img src=""images/B_L_S_13_darkshift.png"" style= ""width:200px""alt=""img"">
                            </div>
                        </div>","26","","0","images/B_L_S_13_darkshift.png","","","","positive","2","B","L","S","darkshift","",""
"","","","","","html-slider-response","73","211860","0.0-67.0","tbr1ao04wa","13","NaN","<div style=""width:500px;"">
                            <p style=""font-size:50px; font-weight:bold;""
                            >positive</p>
                            <div style=""width:240px; margin: auto;"">
                                <img src=""images/G_D_S_10_darkshift.png"" style= ""width:200px""alt=""img"">
                            </div>
                        </div>","-134","","0","images/G_D_S_10_darkshift.png","","","","positive","1","G","D","S","darkshift","",""
"","","","","","html-slider-response","74","214314","0.0-68.0","tbr1ao04wa","13","NaN","<div style=""width:500px;"">
                            <p style=""font-size:50px; font-weight:bold;""
                            >positive</p>
                            <div style=""width:240px; margin: auto;"">
                                <img src=""images/R_D_S_44_darkshift.png"" style= ""width:200px""alt=""img"">
                            </div>
                        </div>","-162","","0","images/R_D_S_44_darkshift.png","","","","positive","1","R","D","S","darkshift","",""
"","","","","","html-slider-response","75","216287","0.0-69.0","tbr1ao04wa","13","NaN","<div style=""width:500px;"">
                            <p style=""font-size:50px; font-weight:bold;""
                            >positive</p>
                            <div style=""width:240px; margin: auto;"">
                                <img src=""images/R_D_U_2_darkshift.png"" style= ""width:200px""alt=""img"">
                            </div>
                        </div>","-200","","0","images/R_D_U_2_darkshift.png","","","","positive","1","R","D","U","darkshift","",""
"","","","","","html-slider-response","76","217885","0.0-70.0","tbr1ao04wa","13","NaN","<div style=""width:500px;"">
                            <p style=""font-size:50px; font-weight:bold;""
                            >positive</p>
                            <div style=""width:240px; margin: auto;"">
                                <img src=""images/R_D_U_2_darkshift.png"" style= ""width:200px""alt=""img"">
                            </div>
                        </div>","-200","","0","images/R_D_U_2_darkshift.png","","","","positive","2","R","D","U","darkshift","",""
"","","","","","html-slider-response","77","219634","0.0-71.0","tbr1ao04wa","13","NaN","<div style=""width:500px;"">
                            <p style=""font-size:50px; font-weight:bold;""
                            >positive</p>
                            <div style=""width:240px; margin: auto;"">
                                <img src=""images/R_L_S_37_lightshift.png"" style= ""width:200px""alt=""img"">
                            </div>
                        </div>","149","","0","images/R_L_S_37_lightshift.png","","","","positive","1","R","L","S","lightshift","",""
"","","","","","html-slider-response","78","221152","0.0-72.0","tbr1ao04wa","13","NaN","<div style=""width:500px;"">
                            <p style=""font-size:50px; font-weight:bold;""
                            >positive</p>
                            <div style=""width:240px; margin: auto;"">
                                <img src=""images/Y_L_U_28_lightshift.png"" style= ""width:200px""alt=""img"">
                            </div>
                        </div>","164","","0","images/Y_L_U_28_lightshift.png","","","","positive","2","Y","L","U","lightshift","",""
"","","","","","html-slider-response","79","223127","0.0-73.0","tbr1ao04wa","13","NaN","<div style=""width:500px;"">
                            <p style=""font-size:50px; font-weight:bold;""
                            >positive</p>
                            <div style=""width:240px; margin: auto;"">
                                <img src=""images/Y_L_S_27_darkshift.png"" style= ""width:200px""alt=""img"">
                            </div>
                        </div>","-142","","0","images/Y_L_S_27_darkshift.png","","","","positive","1","Y","L","S","darkshift","",""
"","","","","","html-slider-response","80","225044","0.0-74.0","tbr1ao04wa","13","NaN","<div style=""width:500px;"">
                            <p style=""font-size:50px; font-weight:bold;""
                            >positive</p>
                            <div style=""width:240px; margin: auto;"">
                                <img src=""images/R_D_S_44_darkshift.png"" style= ""width:200px""alt=""img"">
                            </div>
                        </div>","-200","","0","images/R_D_S_44_darkshift.png","","","","positive","2","R","D","S","darkshift","",""
"","","","","","html-slider-response","81","226665","0.0-75.0","tbr1ao04wa","13","NaN","<div style=""width:500px;"">
                            <p style=""font-size:50px; font-weight:bold;""
                            >positive</p>
                            <div style=""width:240px; margin: auto;"">
                                <img src=""images/R_L_U_41_darkshift.png"" style= ""width:200px""alt=""img"">
                            </div>
                        </div>","14","","0","images/R_L_U_41_darkshift.png","","","","positive","2","R","L","U","darkshift","",""
"","","","","","html-slider-response","82","228167","0.0-76.0","tbr1ao04wa","13","NaN","<div style=""width:500px;"">
                            <p style=""font-size:50px; font-weight:bold;""
                            >positive</p>
                            <div style=""width:240px; margin: auto;"">
                                <img src=""images/R_D_S_44_lightshift.png"" style= ""width:200px""alt=""img"">
                            </div>
                        </div>","90","","0","images/R_D_S_44_lightshift.png","","","","positive","1","R","D","S","lightshift","",""
"","","","","","html-slider-response","83","229844","0.0-77.0","tbr1ao04wa","13","NaN","<div style=""width:500px;"">
                            <p style=""font-size:50px; font-weight:bold;""
                            >positive</p>
                            <div style=""width:240px; margin: auto;"">
                                <img src=""images/G_D_S_10_lightshift.png"" style= ""width:200px""alt=""img"">
                            </div>
                        </div>","144","","0","images/G_D_S_10_lightshift.png","","","","positive","2","G","D","S","lightshift","",""
"","","","","","html-button-response","84","243076","0.0-78.0","tbr1ao04wa","13","12730","<p>Great Job! You've finished block 1.<br></br> You have 3 block(s) left to go.<br></br></p>","0","","","","","","","","","","","","","",""
"","","","","","html-button-response","85","244868","0.0-79.0","tbr1ao04wa","13","1791","<p>In this block of trials, you will be asked to rate how much you associate each map with:</p > <p style = 'font-size:150%; font-weight: bold'>calm</p><br></br>","0","","","","","","","","","","","","","",""
"","","","","","html-slider-response","86","248000","0.0-80.0","tbr1ao04wa","13","NaN","<div style=""width:500px;"">
                            <p style=""font-size:50px; font-weight:bold;""
                            >calm</p>
                            <div style=""width:240px; margin: auto;"">
                                <img src=""images/Y_L_U_28_darkshift.png"" style= ""width:200px""alt=""img"">
                            </div>
                        </div>","-51","","0","images/Y_L_U_28_darkshift.png","","","","calm","1","Y","L","U","darkshift","",""
"","","","","","html-slider-response","87","252098","0.0-81.0","tbr1ao04wa","13","NaN","<div style=""width:500px;"">
                            <p style=""font-size:50px; font-weight:bold;""
                            >calm</p>
                            <div style=""width:240px; margin: auto;"">
                                <img src=""images/B_L_U_15_lightshift.png"" style= ""width:200px""alt=""img"">
                            </div>
                        </div>","58","","0","images/B_L_U_15_lightshift.png","","","","calm","1","B","L","U","lightshift","",""
"","","","","","html-slider-response","88","254151","0.0-82.0","tbr1ao04wa","13","NaN","<div style=""width:500px;"">
                            <p style=""font-size:50px; font-weight:bold;""
                            >calm</p>
                            <div style=""width:240px; margin: auto;"">
                                <img src=""images/G_L_S_5_darkshift.png"" style= ""width:200px""alt=""img"">
                            </div>
                        </div>","38","","0","images/G_L_S_5_darkshift.png","","","","calm","2","G","L","S","darkshift","",""
"","","","","","html-slider-response","89","255622","0.0-83.0","tbr1ao04wa","13","NaN","<div style=""width:500px;"">
                            <p style=""font-size:50px; font-weight:bold;""
                            >calm</p>
                            <div style=""width:240px; margin: auto;"">
                                <img src=""images/G_L_S_5_darkshift.png"" style= ""width:200px""alt=""img"">
                            </div>
                        </div>","32","","0","images/G_L_S_5_darkshift.png","","","","calm","1","G","L","S","darkshift","",""
"","","","","","html-slider-response","90","258665","0.0-84.0","tbr1ao04wa","13","NaN","<div style=""width:500px;"">
                            <p style=""font-size:50px; font-weight:bold;""
                            >calm</p>
                            <div style=""width:240px; margin: auto;"">
                                <img src=""images/G_D_U_12_lightshift.png"" style= ""width:200px""alt=""img"">
                            </div>
                        </div>","62","","0","images/G_D_U_12_lightshift.png","","","","calm","2","G","D","U","lightshift","",""
"","","","","","html-slider-response","91","260726","0.0-85.0","tbr1ao04wa","13","NaN","<div style=""width:500px;"">
                            <p style=""font-size:50px; font-weight:bold;""
                            >calm</p>
                            <div style=""width:240px; margin: auto;"">
                                <img src=""images/R_L_U_41_darkshift.png"" style= ""width:200px""alt=""img"">
                            </div>
                        </div>","57","","0","images/R_L_U_41_darkshift.png","","","","calm","1","R","L","U","darkshift","",""
"","","","","","html-slider-response","92","262956","0.0-86.0","tbr1ao04wa","13","NaN","<div style=""width:500px;"">
                            <p style=""font-size:50px; font-weight:bold;""
                            >calm</p>
                            <div style=""width:240px; margin: auto;"">
                                <img src=""images/B_D_U_26_darkshift.png"" style= ""width:200px""alt=""img"">
                            </div>
                        </div>","65","","0","images/B_D_U_26_darkshift.png","","","","calm","1","B","D","U","darkshift","",""
"","","","","","html-slider-response","93","265048","0.0-87.0","tbr1ao04wa","13","NaN","<div style=""width:500px;"">
                            <p style=""font-size:50px; font-weight:bold;""
                            >calm</p>
                            <div style=""width:240px; margin: auto;"">
                                <img src=""images/R_L_S_37_darkshift.png"" style= ""width:200px""alt=""img"">
                            </div>
                        </div>","-89","","0","images/R_L_S_37_darkshift.png","","","","calm","1","R","L","S","darkshift","",""
"","","","","","html-slider-response","94","267455","0.0-88.0","tbr1ao04wa","13","NaN","<div style=""width:500px;"">
                            <p style=""font-size:50px; font-weight:bold;""
                            >calm</p>
                            <div style=""width:240px; margin: auto;"">
                                <img src=""images/G_D_S_10_lightshift.png"" style= ""width:200px""alt=""img"">
                            </div>
                        </div>","-96","","0","images/G_D_S_10_lightshift.png","","","","calm","2","G","D","S","lightshift","",""
"","","","","","html-slider-response","95","269564","0.0-89.0","tbr1ao04wa","13","NaN","<div style=""width:500px;"">
                            <p style=""font-size:50px; font-weight:bold;""
                            >calm</p>
                            <div style=""width:240px; margin: auto;"">
                                <img src=""images/B_L_S_13_lightshift.png"" style= ""width:200px""alt=""img"">
                            </div>
                        </div>","-122","","0","images/B_L_S_13_lightshift.png","","","","calm","1","B","L","S","lightshift","",""
"","","","","","html-slider-response","96","271663","0.0-90.0","tbr1ao04wa","13","NaN","<div style=""width:500px;"">
                            <p style=""font-size:50px; font-weight:bold;""
                            >calm</p>
                            <div style=""width:240px; margin: auto;"">
                                <img src=""images/R_D_S_44_lightshift.png"" style= ""width:200px""alt=""img"">
                            </div>
                        </div>","-77","","0","images/R_D_S_44_lightshift.png","","","","calm","2","R","D","S","lightshift","",""
"","","","","","html-slider-response","97","273144","0.0-91.0","tbr1ao04wa","13","NaN","<div style=""width:500px;"">
                            <p style=""font-size:50px; font-weight:bold;""
                            >calm</p>
                            <div style=""width:240px; margin: auto;"">
                                <img src=""images/G_D_U_12_lightshift.png"" style= ""width:200px""alt=""img"">
                            </div>
                        </div>","65","","0","images/G_D_U_12_lightshift.png","","","","calm","1","G","D","U","lightshift","",""
"","","","","","html-slider-response","98","274836","0.0-92.0","tbr1ao04wa","13","NaN","<div style=""width:500px;"">
                            <p style=""font-size:50px; font-weight:bold;""
                            >calm</p>
                            <div style=""width:240px; margin: auto;"">
                                <img src=""images/B_L_S_13_darkshift.png"" style= ""width:200px""alt=""img"">
                            </div>
                        </div>","-97","","0","images/B_L_S_13_darkshift.png","","","","calm","1","B","L","S","darkshift","",""
"","","","","","html-slider-response","99","276617","0.0-93.0","tbr1ao04wa","13","NaN","<div style=""width:500px;"">
                            <p style=""font-size:50px; font-weight:bold;""
                            >calm</p>
                            <div style=""width:240px; margin: auto;"">
                                <img src=""images/Y_L_U_28_darkshift.png"" style= ""width:200px""alt=""img"">
                            </div>
                        </div>","-77","","0","images/Y_L_U_28_darkshift.png","","","","calm","2","Y","L","U","darkshift","",""
"","","","","","html-slider-response","100","278320","0.0-94.0","tbr1ao04wa","13","NaN","<div style=""width:500px;"">
                            <p style=""font-size:50px; font-weight:bold;""
                            >calm</p>
                            <div style=""width:240px; margin: auto;"">
                                <img src=""images/B_L_S_13_darkshift.png"" style= ""width:200px""alt=""img"">
                            </div>
                        </div>","-77","","0","images/B_L_S_13_darkshift.png","","","","calm","2","B","L","S","darkshift","",""
"","","","","","html-slider-response","101","280100","0.0-95.0","tbr1ao04wa","13","NaN","<div style=""width:500px;"">
                            <p style=""font-size:50px; font-weight:bold;""
                            >calm</p>
                            <div style=""width:240px; margin: auto;"">
                                <img src=""images/G_D_S_10_darkshift.png"" style= ""width:200px""alt=""img"">
                            </div>
                        </div>","106","","0","images/G_D_S_10_darkshift.png","","","","calm","1","G","D","S","darkshift","",""
"","","","","","html-slider-response","102","282068","0.0-96.0","tbr1ao04wa","13","NaN","<div style=""width:500px;"">
                            <p style=""font-size:50px; font-weight:bold;""
                            >calm</p>
                            <div style=""width:240px; margin: auto;"">
                                <img src=""images/R_L_U_41_darkshift.png"" style= ""width:200px""alt=""img"">
                            </div>
                        </div>","-55","","0","images/R_L_U_41_darkshift.png","","","","calm","2","R","L","U","darkshift","",""
"","","","","","html-slider-response","103","284143","0.0-97.0","tbr1ao04wa","13","NaN","<div style=""width:500px;"">
                            <p style=""font-size:50px; font-weight:bold;""
                            >calm</p>
                            <div style=""width:240px; margin: auto;"">
                                <img src=""images/B_L_U_15_lightshift.png"" style= ""width:200px""alt=""img"">
                            </div>
                        </div>","-102","","0","images/B_L_U_15_lightshift.png","","","","calm","2","B","L","U","lightshift","",""
"","","","","","html-slider-response","104","285989","0.0-98.0","tbr1ao04wa","13","NaN","<div style=""width:500px;"">
                            <p style=""font-size:50px; font-weight:bold;""
                            >calm</p>
                            <div style=""width:240px; margin: auto;"">
                                <img src=""images/G_D_S_10_lightshift.png"" style= ""width:200px""alt=""img"">
                            </div>
                        </div>","126","","0","images/G_D_S_10_lightshift.png","","","","calm","1","G","D","S","lightshift","",""
"","","","","","html-slider-response","105","287698","0.0-99.0","tbr1ao04wa","13","NaN","<div style=""width:500px;"">
                            <p style=""font-size:50px; font-weight:bold;""
                            >calm</p>
                            <div style=""width:240px; margin: auto;"">
                                <img src=""images/G_L_U_7_lightshift.png"" style= ""width:200px""alt=""img"">
                            </div>
                        </div>","-54","","0","images/G_L_U_7_lightshift.png","","","","calm","2","G","L","U","lightshift","",""
"","","","","","html-slider-response","106","290151","0.0-100.0","tbr1ao04wa","13","NaN","<div style=""width:500px;"">
                            <p style=""font-size:50px; font-weight:bold;""
                            >calm</p>
                            <div style=""width:240px; margin: auto;"">
                                <img src=""images/R_L_U_41_lightshift.png"" style= ""width:200px""alt=""img"">
                            </div>
                        </div>","-90","","0","images/R_L_U_41_lightshift.png","","","","calm","1","R","L","U","lightshift","",""
"","","","","","html-slider-response","107","291934","0.0-101.0","tbr1ao04wa","13","NaN","<div style=""width:500px;"">
                            <p style=""font-size:50px; font-weight:bold;""
                            >calm</p>
                            <div style=""width:240px; margin: auto;"">
                                <img src=""images/Y_L_S_27_darkshift.png"" style= ""width:200px""alt=""img"">
                            </div>
                        </div>","45","","0","images/Y_L_S_27_darkshift.png","","","","calm","1","Y","L","S","darkshift","",""
"","","","","","html-slider-response","108","293506","0.0-102.0","tbr1ao04wa","13","NaN","<div style=""width:500px;"">
                            <p style=""font-size:50px; font-weight:bold;""
                            >calm</p>
                            <div style=""width:240px; margin: auto;"">
                                <img src=""images/Y_D_U_33_lightshift.png"" style= ""width:200px""alt=""img"">
                            </div>
                        </div>","86","","0","images/Y_D_U_33_lightshift.png","","","","calm","2","Y","D","U","lightshift","",""
"","","","","","html-slider-response","109","295176","0.0-103.0","tbr1ao04wa","13","NaN","<div style=""width:500px;"">
                            <p style=""font-size:50px; font-weight:bold;""
                            >calm</p>
                            <div style=""width:240px; margin: auto;"">
                                <img src=""images/Y_L_S_27_darkshift.png"" style= ""width:200px""alt=""img"">
                            </div>
                        </div>","-104","","0","images/Y_L_S_27_darkshift.png","","","","calm","2","Y","L","S","darkshift","",""
"","","","","","html-slider-response","110","296894","0.0-104.0","tbr1ao04wa","13","NaN","<div style=""width:500px;"">
                            <p style=""font-size:50px; font-weight:bold;""
                            >calm</p>
                            <div style=""width:240px; margin: auto;"">
                                <img src=""images/R_D_U_2_lightshift.png"" style= ""width:200px""alt=""img"">
                            </div>
                        </div>","-105","","0","images/R_D_U_2_lightshift.png","","","","calm","1","R","D","U","lightshift","",""
"","","","","","html-slider-response","111","298757","0.0-105.0","tbr1ao04wa","13","NaN","<div style=""width:500px;"">
                            <p style=""font-size:50px; font-weight:bold;""
                            >calm</p>
                            <div style=""width:240px; margin: auto;"">
                                <img src=""images/G_L_S_5_lightshift.png"" style= ""width:200px""alt=""img"">
                            </div>
                        </div>","-181","","0","images/G_L_S_5_lightshift.png","","","","calm","1","G","L","S","lightshift","",""
"","","","","","html-slider-response","112","300857","0.0-106.0","tbr1ao04wa","13","NaN","<div style=""width:500px;"">
                            <p style=""font-size:50px; font-weight:bold;""
                            >calm</p>
                            <div style=""width:240px; margin: auto;"">
                                <img src=""images/R_L_S_37_darkshift.png"" style= ""width:200px""alt=""img"">
                            </div>
                        </div>","-73","","0","images/R_L_S_37_darkshift.png","","","","calm","2","R","L","S","darkshift","",""
"","","","","","html-slider-response","113","304316","0.0-107.0","tbr1ao04wa","13","NaN","<div style=""width:500px;"">
                            <p style=""font-size:50px; font-weight:bold;""
                            >calm</p>
                            <div style=""width:240px; margin: auto;"">
                                <img src=""images/R_D_S_44_darkshift.png"" style= ""width:200px""alt=""img"">
                            </div>
                        </div>","20","","0","images/R_D_S_44_darkshift.png","","","","calm","2","R","D","S","darkshift","",""
"","","","","","html-slider-response","114","305994","0.0-108.0","tbr1ao04wa","13","NaN","<div style=""width:500px;"">
                            <p style=""font-size:50px; font-weight:bold;""
                            >calm</p>
                            <div style=""width:240px; margin: auto;"">
                                <img src=""images/Y_L_U_28_lightshift.png"" style= ""width:200px""alt=""img"">
                            </div>
                        </div>","-104","","0","images/Y_L_U_28_lightshift.png","","","","calm","1","Y","L","U","lightshift","",""
"","","","","","html-slider-response","115","308390","0.0-109.0","tbr1ao04wa","13","NaN","<div style=""width:500px;"">
                            <p style=""font-size:50px; font-weight:bold;""
                            >calm</p>
                            <div style=""width:240px; margin: auto;"">
                                <img src=""images/B_D_U_26_lightshift.png"" style= ""width:200px""alt=""img"">
                            </div>
                        </div>","134","","0","images/B_D_U_26_lightshift.png","","","","calm","2","B","D","U","lightshift","",""
"","","","","","html-slider-response","116","310397","0.0-110.0","tbr1ao04wa","13","NaN","<div style=""width:500px;"">
                            <p style=""font-size:50px; font-weight:bold;""
                            >calm</p>
                            <div style=""width:240px; margin: auto;"">
                                <img src=""images/Y_L_S_27_lightshift.png"" style= ""width:200px""alt=""img"">
                            </div>
                        </div>","-167","","0","images/Y_L_S_27_lightshift.png","","","","calm","2","Y","L","S","lightshift","",""
"","","","","","html-slider-response","117","311987","0.0-111.0","tbr1ao04wa","13","NaN","<div style=""width:500px;"">
                            <p style=""font-size:50px; font-weight:bold;""
                            >calm</p>
                            <div style=""width:240px; margin: auto;"">
                                <img src=""images/G_L_S_5_lightshift.png"" style= ""width:200px""alt=""img"">
                            </div>
                        </div>","-194","","0","images/G_L_S_5_lightshift.png","","","","calm","2","G","L","S","lightshift","",""
"","","","","","html-slider-response","118","313472","0.0-112.0","tbr1ao04wa","13","NaN","<div style=""width:500px;"">
                            <p style=""font-size:50px; font-weight:bold;""
                            >calm</p>
                            <div style=""width:240px; margin: auto;"">
                                <img src=""images/B_L_S_13_lightshift.png"" style= ""width:200px""alt=""img"">
                            </div>
                        </div>","-200","","0","images/B_L_S_13_lightshift.png","","","","calm","2","B","L","S","lightshift","",""
"","","","","","html-slider-response","119","315245","0.0-113.0","tbr1ao04wa","13","NaN","<div style=""width:500px;"">
                            <p style=""font-size:50px; font-weight:bold;""
                            >calm</p>
                            <div style=""width:240px; margin: auto;"">
                                <img src=""images/B_D_S_23_lightshift.png"" style= ""width:200px""alt=""img"">
                            </div>
                        </div>","46","","0","images/B_D_S_23_lightshift.png","","","","calm","2","B","D","S","lightshift","",""
"","","","","","html-slider-response","120","317107","0.0-114.0","tbr1ao04wa","13","NaN","<div style=""width:500px;"">
                            <p style=""font-size:50px; font-weight:bold;""
                            >calm</p>
                            <div style=""width:240px; margin: auto;"">
                                <img src=""images/Y_D_U_33_lightshift.png"" style= ""width:200px""alt=""img"">
                            </div>
                        </div>","138","","0","images/Y_D_U_33_lightshift.png","","","","calm","1","Y","D","U","lightshift","",""
"","","","","","html-slider-response","121","319064","0.0-115.0","tbr1ao04wa","13","NaN","<div style=""width:500px;"">
                            <p style=""font-size:50px; font-weight:bold;""
                            >calm</p>
                            <div style=""width:240px; margin: auto;"">
                                <img src=""images/G_L_U_7_darkshift.png"" style= ""width:200px""alt=""img"">
                            </div>
                        </div>","-126","","0","images/G_L_U_7_darkshift.png","","","","calm","2","G","L","U","darkshift","",""
"","","","","","html-slider-response","122","322244","0.0-116.0","tbr1ao04wa","13","NaN","<div style=""width:500px;"">
                            <p style=""font-size:50px; font-weight:bold;""
                            >calm</p>
                            <div style=""width:240px; margin: auto;"">
                                <img src=""images/R_L_S_37_lightshift.png"" style= ""width:200px""alt=""img"">
                            </div>
                        </div>","-150","","0","images/R_L_S_37_lightshift.png","","","","calm","1","R","L","S","lightshift","",""
"","","","","","html-slider-response","123","323834","0.0-117.0","tbr1ao04wa","13","NaN","<div style=""width:500px;"">
                            <p style=""font-size:50px; font-weight:bold;""
                            >calm</p>
                            <div style=""width:240px; margin: auto;"">
                                <img src=""images/B_D_S_23_darkshift.png"" style= ""width:200px""alt=""img"">
                            </div>
                        </div>","94","","0","images/B_D_S_23_darkshift.png","","","","calm","1","B","D","S","darkshift","",""
"","","","","","html-slider-response","124","325513","0.0-118.0","tbr1ao04wa","13","NaN","<div style=""width:500px;"">
                            <p style=""font-size:50px; font-weight:bold;""
                            >calm</p>
                            <div style=""width:240px; margin: auto;"">
                                <img src=""images/Y_D_U_33_darkshift.png"" style= ""width:200px""alt=""img"">
                            </div>
                        </div>","148","","0","images/Y_D_U_33_darkshift.png","","","","calm","1","Y","D","U","darkshift","",""
"","","","","","html-slider-response","125","327621","0.0-119.0","tbr1ao04wa","13","NaN","<div style=""width:500px;"">
                            <p style=""font-size:50px; font-weight:bold;""
                            >calm</p>
                            <div style=""width:240px; margin: auto;"">
                                <img src=""images/B_D_S_23_darkshift.png"" style= ""width:200px""alt=""img"">
                            </div>
                        </div>","132","","0","images/B_D_S_23_darkshift.png","","","","calm","2","B","D","S","darkshift","",""
"","","","","","html-slider-response","126","329643","0.0-120.0","tbr1ao04wa","13","NaN","<div style=""width:500px;"">
                            <p style=""font-size:50px; font-weight:bold;""
                            >calm</p>
                            <div style=""width:240px; margin: auto;"">
                                <img src=""images/Y_L_U_28_lightshift.png"" style= ""width:200px""alt=""img"">
                            </div>
                        </div>","-180","","0","images/Y_L_U_28_lightshift.png","","","","calm","2","Y","L","U","lightshift","",""
"","","","","","html-slider-response","127","332214","0.0-121.0","tbr1ao04wa","13","NaN","<div style=""width:500px;"">
                            <p style=""font-size:50px; font-weight:bold;""
                            >calm</p>
                            <div style=""width:240px; margin: auto;"">
                                <img src=""images/Y_L_S_27_lightshift.png"" style= ""width:200px""alt=""img"">
                            </div>
                        </div>","-185","","0","images/Y_L_S_27_lightshift.png","","","","calm","1","Y","L","S","lightshift","",""
"","","","","","html-slider-response","128","334172","0.0-122.0","tbr1ao04wa","13","NaN","<div style=""width:500px;"">
                            <p style=""font-size:50px; font-weight:bold;""
                            >calm</p>
                            <div style=""width:240px; margin: auto;"">
                                <img src=""images/Y_D_S_30_darkshift.png"" style= ""width:200px""alt=""img"">
                            </div>
                        </div>","200","","0","images/Y_D_S_30_darkshift.png","","","","calm","2","Y","D","S","darkshift","",""
"","","","","","html-slider-response","129","336098","0.0-123.0","tbr1ao04wa","13","NaN","<div style=""width:500px;"">
                            <p style=""font-size:50px; font-weight:bold;""
                            >calm</p>
                            <div style=""width:240px; margin: auto;"">
                                <img src=""images/R_D_S_44_darkshift.png"" style= ""width:200px""alt=""img"">
                            </div>
                        </div>","200","","0","images/R_D_S_44_darkshift.png","","","","calm","1","R","D","S","darkshift","",""
"","","","","","html-slider-response","130","338559","0.0-124.0","tbr1ao04wa","13","NaN","<div style=""width:500px;"">
                            <p style=""font-size:50px; font-weight:bold;""
                            >calm</p>
                            <div style=""width:240px; margin: auto;"">
                                <img src=""images/Y_D_S_30_darkshift.png"" style= ""width:200px""alt=""img"">
                            </div>
                        </div>","200","","0","images/Y_D_S_30_darkshift.png","","","","calm","1","Y","D","S","darkshift","",""
"","","","","","html-slider-response","131","340422","0.0-125.0","tbr1ao04wa","13","NaN","<div style=""width:500px;"">
                            <p style=""font-size:50px; font-weight:bold;""
                            >calm</p>
                            <div style=""width:240px; margin: auto;"">
                                <img src=""images/R_L_U_41_lightshift.png"" style= ""width:200px""alt=""img"">
                            </div>
                        </div>","-200","","0","images/R_L_U_41_lightshift.png","","","","calm","2","R","L","U","lightshift","",""
"","","","","","html-slider-response","132","342257","0.0-126.0","tbr1ao04wa","13","NaN","<div style=""width:500px;"">
                            <p style=""font-size:50px; font-weight:bold;""
                            >calm</p>
                            <div style=""width:240px; margin: auto;"">
                                <img src=""images/B_D_S_23_lightshift.png"" style= ""width:200px""alt=""img"">
                            </div>
                        </div>","-180","","0","images/B_D_S_23_lightshift.png","","","","calm","1","B","D","S","lightshift","",""
"","","","","","html-slider-response","133","344095","0.0-127.0","tbr1ao04wa","13","NaN","<div style=""width:500px;"">
                            <p style=""font-size:50px; font-weight:bold;""
                            >calm</p>
                            <div style=""width:240px; margin: auto;"">
                                <img src=""images/R_D_U_2_darkshift.png"" style= ""width:200px""alt=""img"">
                            </div>
                        </div>","158","","0","images/R_D_U_2_darkshift.png","","","","calm","1","R","D","U","darkshift","",""
"","","","","","html-slider-response","134","345597","0.0-128.0","tbr1ao04wa","13","NaN","<div style=""width:500px;"">
                            <p style=""font-size:50px; font-weight:bold;""
                            >calm</p>
                            <div style=""width:240px; margin: auto;"">
                                <img src=""images/G_D_S_10_darkshift.png"" style= ""width:200px""alt=""img"">
                            </div>
                        </div>","200","","0","images/G_D_S_10_darkshift.png","","","","calm","2","G","D","S","darkshift","",""
"","","","","","html-slider-response","135","347443","0.0-129.0","tbr1ao04wa","13","NaN","<div style=""width:500px;"">
                            <p style=""font-size:50px; font-weight:bold;""
                            >calm</p>
                            <div style=""width:240px; margin: auto;"">
                                <img src=""images/Y_D_S_30_lightshift.png"" style= ""width:200px""alt=""img"">
                            </div>
                        </div>","170","","0","images/Y_D_S_30_lightshift.png","","","","calm","1","Y","D","S","lightshift","",""
"","","","","","html-slider-response","136","349337","0.0-130.0","tbr1ao04wa","13","NaN","<div style=""width:500px;"">
                            <p style=""font-size:50px; font-weight:bold;""
                            >calm</p>
                            <div style=""width:240px; margin: auto;"">
                                <img src=""images/R_L_S_37_lightshift.png"" style= ""width:200px""alt=""img"">
                            </div>
                        </div>","-179","","0","images/R_L_S_37_lightshift.png","","","","calm","2","R","L","S","lightshift","",""
"","","","","","html-slider-response","137","351133","0.0-131.0","tbr1ao04wa","13","NaN","<div style=""width:500px;"">
                            <p style=""font-size:50px; font-weight:bold;""
                            >calm</p>
                            <div style=""width:240px; margin: auto;"">
                                <img src=""images/G_L_U_7_lightshift.png"" style= ""width:200px""alt=""img"">
                            </div>
                        </div>","-166","","0","images/G_L_U_7_lightshift.png","","","","calm","1","G","L","U","lightshift","",""
"","","","","","html-slider-response","138","352867","0.0-132.0","tbr1ao04wa","13","NaN","<div style=""width:500px;"">
                            <p style=""font-size:50px; font-weight:bold;""
                            >calm</p>
                            <div style=""width:240px; margin: auto;"">
                                <img src=""images/B_D_U_26_darkshift.png"" style= ""width:200px""alt=""img"">
                            </div>
                        </div>","163","","0","images/B_D_U_26_darkshift.png","","","","calm","2","B","D","U","darkshift","",""
"","","","","","html-slider-response","139","354539","0.0-133.0","tbr1ao04wa","13","NaN","<div style=""width:500px;"">
                            <p style=""font-size:50px; font-weight:bold;""
                            >calm</p>
                            <div style=""width:240px; margin: auto;"">
                                <img src=""images/R_D_U_2_lightshift.png"" style= ""width:200px""alt=""img"">
                            </div>
                        </div>","-200","","0","images/R_D_U_2_lightshift.png","","","","calm","2","R","D","U","lightshift","",""
"","","","","","html-slider-response","140","356677","0.0-134.0","tbr1ao04wa","13","NaN","<div style=""width:500px;"">
                            <p style=""font-size:50px; font-weight:bold;""
                            >calm</p>
                            <div style=""width:240px; margin: auto;"">
                                <img src=""images/B_L_U_15_darkshift.png"" style= ""width:200px""alt=""img"">
                            </div>
                        </div>","161","","0","images/B_L_U_15_darkshift.png","","","","calm","2","B","L","U","darkshift","",""
"","","","","","html-slider-response","141","358427","0.0-135.0","tbr1ao04wa","13","NaN","<div style=""width:500px;"">
                            <p style=""font-size:50px; font-weight:bold;""
                            >calm</p>
                            <div style=""width:240px; margin: auto;"">
                                <img src=""images/R_D_U_2_darkshift.png"" style= ""width:200px""alt=""img"">
                            </div>
                        </div>","154","","0","images/R_D_U_2_darkshift.png","","","","calm","2","R","D","U","darkshift","",""
"","","","","","html-slider-response","142","360344","0.0-136.0","tbr1ao04wa","13","NaN","<div style=""width:500px;"">
                            <p style=""font-size:50px; font-weight:bold;""
                            >calm</p>
                            <div style=""width:240px; margin: auto;"">
                                <img src=""images/Y_D_U_33_darkshift.png"" style= ""width:200px""alt=""img"">
                            </div>
                        </div>","193","","0","images/Y_D_U_33_darkshift.png","","","","calm","2","Y","D","U","darkshift","",""
"","","","","","html-slider-response","143","362057","0.0-137.0","tbr1ao04wa","13","NaN","<div style=""width:500px;"">
                            <p style=""font-size:50px; font-weight:bold;""
                            >calm</p>
                            <div style=""width:240px; margin: auto;"">
                                <img src=""images/B_D_U_26_lightshift.png"" style= ""width:200px""alt=""img"">
                            </div>
                        </div>","-182","","0","images/B_D_U_26_lightshift.png","","","","calm","1","B","D","U","lightshift","",""
"","","","","","html-slider-response","144","363948","0.0-138.0","tbr1ao04wa","13","NaN","<div style=""width:500px;"">
                            <p style=""font-size:50px; font-weight:bold;""
                            >calm</p>
                            <div style=""width:240px; margin: auto;"">
                                <img src=""images/G_D_U_12_darkshift.png"" style= ""width:200px""alt=""img"">
                            </div>
                        </div>","102","","0","images/G_D_U_12_darkshift.png","","","","calm","2","G","D","U","darkshift","",""
"","","","","","html-slider-response","145","365620","0.0-139.0","tbr1ao04wa","13","NaN","<div style=""width:500px;"">
                            <p style=""font-size:50px; font-weight:bold;""
                            >calm</p>
                            <div style=""width:240px; margin: auto;"">
                                <img src=""images/R_D_S_44_lightshift.png"" style= ""width:200px""alt=""img"">
                            </div>
                        </div>","-145","","0","images/R_D_S_44_lightshift.png","","","","calm","1","R","D","S","lightshift","",""
"","","","","","html-slider-response","146","367138","0.0-140.0","tbr1ao04wa","13","NaN","<div style=""width:500px;"">
                            <p style=""font-size:50px; font-weight:bold;""
                            >calm</p>
                            <div style=""width:240px; margin: auto;"">
                                <img src=""images/B_L_U_15_darkshift.png"" style= ""width:200px""alt=""img"">
                            </div>
                        </div>","128","","0","images/B_L_U_15_darkshift.png","","","","calm","1","B","L","U","darkshift","",""
"","","","","","html-slider-response","147","368846","0.0-141.0","tbr1ao04wa","13","NaN","<div style=""width:500px;"">
                            <p style=""font-size:50px; font-weight:bold;""
                            >calm</p>
                            <div style=""width:240px; margin: auto;"">
                                <img src=""images/G_D_U_12_darkshift.png"" style= ""width:200px""alt=""img"">
                            </div>
                        </div>","136","","0","images/G_D_U_12_darkshift.png","","","","calm","1","G","D","U","darkshift","",""
"","","","","","html-slider-response","148","370563","0.0-142.0","tbr1ao04wa","13","NaN","<div style=""width:500px;"">
                            <p style=""font-size:50px; font-weight:bold;""
                            >calm</p>
                            <div style=""width:240px; margin: auto;"">
                                <img src=""images/Y_D_S_30_lightshift.png"" style= ""width:200px""alt=""img"">
                            </div>
                        </div>","178","","0","images/Y_D_S_30_lightshift.png","","","","calm","2","Y","D","S","lightshift","",""
"","","","","","html-slider-response","149","372393","0.0-143.0","tbr1ao04wa","13","NaN","<div style=""width:500px;"">
                            <p style=""font-size:50px; font-weight:bold;""
                            >calm</p>
                            <div style=""width:240px; margin: auto;"">
                                <img src=""images/G_L_U_7_darkshift.png"" style= ""width:200px""alt=""img"">
                            </div>
                        </div>","-154","","0","images/G_L_U_7_darkshift.png","","","","calm","1","G","L","U","darkshift","",""
"","","","","","html-button-response","150","373910","0.0-144.0","tbr1ao04wa","13","1016","<p>Great Job! You've finished block 2.<br></br> You have 2 block(s) left to go.<br></br></p>","0","","","","","","","","","","","","","",""
"","","","","","html-button-response","151","375100","0.0-145.0","tbr1ao04wa","13","1189","<p>In this block of trials, you will be asked to rate how much you associate each map with:</p > <p style = 'font-size:150%; font-weight: bold'>startling</p><br></br>","0","","","","","","","","","","","","","",""
"","","","","","html-slider-response","152","376562","0.0-146.0","tbr1ao04wa","13","NaN","<div style=""width:500px;"">
                            <p style=""font-size:50px; font-weight:bold;""
                            >startling</p>
                            <div style=""width:240px; margin: auto;"">
                                <img src=""images/G_L_U_7_darkshift.png"" style= ""width:200px""alt=""img"">
                            </div>
                        </div>","-129","","0","images/G_L_U_7_darkshift.png","","","","startling","2","G","L","U","darkshift","",""
"","","","","","html-slider-response","153","378448","0.0-147.0","tbr1ao04wa","13","NaN","<div style=""width:500px;"">
                            <p style=""font-size:50px; font-weight:bold;""
                            >startling</p>
                            <div style=""width:240px; margin: auto;"">
                                <img src=""images/R_L_S_37_lightshift.png"" style= ""width:200px""alt=""img"">
                            </div>
                        </div>","200","","0","images/R_L_S_37_lightshift.png","","","","startling","2","R","L","S","lightshift","",""
"","","","","","html-slider-response","154","379771","0.0-148.0","tbr1ao04wa","13","NaN","<div style=""width:500px;"">
                            <p style=""font-size:50px; font-weight:bold;""
                            >startling</p>
                            <div style=""width:240px; margin: auto;"">
                                <img src=""images/B_L_U_15_lightshift.png"" style= ""width:200px""alt=""img"">
                            </div>
                        </div>","10","","0","images/B_L_U_15_lightshift.png","","","","startling","1","B","L","U","lightshift","",""
"","","","","","html-slider-response","155","381900","0.0-149.0","tbr1ao04wa","13","NaN","<div style=""width:500px;"">
                            <p style=""font-size:50px; font-weight:bold;""
                            >startling</p>
                            <div style=""width:240px; margin: auto;"">
                                <img src=""images/R_D_S_44_darkshift.png"" style= ""width:200px""alt=""img"">
                            </div>
                        </div>","-167","","0","images/R_D_S_44_darkshift.png","","","","startling","2","R","D","S","darkshift","",""
"","","","","","html-slider-response","156","384003","0.0-150.0","tbr1ao04wa","13","NaN","<div style=""width:500px;"">
                            <p style=""font-size:50px; font-weight:bold;""
                            >startling</p>
                            <div style=""width:240px; margin: auto;"">
                                <img src=""images/B_D_S_23_lightshift.png"" style= ""width:200px""alt=""img"">
                            </div>
                        </div>","182","","0","images/B_D_S_23_lightshift.png","","","","startling","2","B","D","S","lightshift","",""
"","","","","","html-slider-response","157","386366","0.0-151.0","tbr1ao04wa","13","NaN","<div style=""width:500px;"">
                            <p style=""font-size:50px; font-weight:bold;""
                            >startling</p>
                            <div style=""width:240px; margin: auto;"">
                                <img src=""images/Y_L_U_28_darkshift.png"" style= ""width:200px""alt=""img"">
                            </div>
                        </div>","-87","","0","images/Y_L_U_28_darkshift.png","","","","startling","2","Y","L","U","darkshift","",""
"","","","","","html-slider-response","158","388291","0.0-152.0","tbr1ao04wa","13","NaN","<div style=""width:500px;"">
                            <p style=""font-size:50px; font-weight:bold;""
                            >startling</p>
                            <div style=""width:240px; margin: auto;"">
                                <img src=""images/R_D_S_44_darkshift.png"" style= ""width:200px""alt=""img"">
                            </div>
                        </div>","-125","","0","images/R_D_S_44_darkshift.png","","","","startling","1","R","D","S","darkshift","",""
"","","","","","html-slider-response","159","389905","0.0-153.0","tbr1ao04wa","13","NaN","<div style=""width:500px;"">
                            <p style=""font-size:50px; font-weight:bold;""
                            >startling</p>
                            <div style=""width:240px; margin: auto;"">
                                <img src=""images/B_L_U_15_darkshift.png"" style= ""width:200px""alt=""img"">
                            </div>
                        </div>","-88","","0","images/B_L_U_15_darkshift.png","","","","startling","2","B","L","U","darkshift","",""
"","","","","","html-slider-response","160","391359","0.0-154.0","tbr1ao04wa","13","NaN","<div style=""width:500px;"">
                            <p style=""font-size:50px; font-weight:bold;""
                            >startling</p>
                            <div style=""width:240px; margin: auto;"">
                                <img src=""images/B_D_U_26_darkshift.png"" style= ""width:200px""alt=""img"">
                            </div>
                        </div>","-116","","0","images/B_D_U_26_darkshift.png","","","","startling","2","B","D","U","darkshift","",""
"","","","","","html-slider-response","161","392822","0.0-155.0","tbr1ao04wa","13","NaN","<div style=""width:500px;"">
                            <p style=""font-size:50px; font-weight:bold;""
                            >startling</p>
                            <div style=""width:240px; margin: auto;"">
                                <img src=""images/G_L_U_7_darkshift.png"" style= ""width:200px""alt=""img"">
                            </div>
                        </div>","-127","","0","images/G_L_U_7_darkshift.png","","","","startling","1","G","L","U","darkshift","",""
"","","","","","html-slider-response","162","395203","0.0-156.0","tbr1ao04wa","13","NaN","<div style=""width:500px;"">
                            <p style=""font-size:50px; font-weight:bold;""
                            >startling</p>
                            <div style=""width:240px; margin: auto;"">
                                <img src=""images/R_D_U_2_lightshift.png"" style= ""width:200px""alt=""img"">
                            </div>
                        </div>","113","","0","images/R_D_U_2_lightshift.png","","","","startling","1","R","D","U","lightshift","",""
"","","","","","html-slider-response","163","396922","0.0-157.0","tbr1ao04wa","13","NaN","<div style=""width:500px;"">
                            <p style=""font-size:50px; font-weight:bold;""
                            >startling</p>
                            <div style=""width:240px; margin: auto;"">
                                <img src=""images/Y_D_S_30_lightshift.png"" style= ""width:200px""alt=""img"">
                            </div>
                        </div>","-162","","0","images/Y_D_S_30_lightshift.png","","","","startling","1","Y","D","S","lightshift","",""
"","","","","","html-slider-response","164","398613","0.0-158.0","tbr1ao04wa","13","NaN","<div style=""width:500px;"">
                            <p style=""font-size:50px; font-weight:bold;""
                            >startling</p>
                            <div style=""width:240px; margin: auto;"">
                                <img src=""images/G_L_S_5_lightshift.png"" style= ""width:200px""alt=""img"">
                            </div>
                        </div>","161","","0","images/G_L_S_5_lightshift.png","","","","startling","2","G","L","S","lightshift","",""
"","","","","","html-slider-response","165","400955","0.0-159.0","tbr1ao04wa","13","NaN","<div style=""width:500px;"">
                            <p style=""font-size:50px; font-weight:bold;""
                            >startling</p>
                            <div style=""width:240px; margin: auto;"">
                                <img src=""images/R_L_S_37_darkshift.png"" style= ""width:200px""alt=""img"">
                            </div>
                        </div>","121","","0","images/R_L_S_37_darkshift.png","","","","startling","1","R","L","S","darkshift","",""
"","","","","","html-slider-response","166","403153","0.0-160.0","tbr1ao04wa","13","NaN","<div style=""width:500px;"">
                            <p style=""font-size:50px; font-weight:bold;""
                            >startling</p>
                            <div style=""width:240px; margin: auto;"">
                                <img src=""images/R_D_U_2_darkshift.png"" style= ""width:200px""alt=""img"">
                            </div>
                        </div>","-96","","0","images/R_D_U_2_darkshift.png","","","","startling","1","R","D","U","darkshift","",""
"","","","","","html-slider-response","167","404717","0.0-161.0","tbr1ao04wa","13","NaN","<div style=""width:500px;"">
                            <p style=""font-size:50px; font-weight:bold;""
                            >startling</p>
                            <div style=""width:240px; margin: auto;"">
                                <img src=""images/B_D_U_26_lightshift.png"" style= ""width:200px""alt=""img"">
                            </div>
                        </div>","-170","","0","images/B_D_U_26_lightshift.png","","","","startling","1","B","D","U","lightshift","",""
"","","","","","html-slider-response","168","406483","0.0-162.0","tbr1ao04wa","13","NaN","<div style=""width:500px;"">
                            <p style=""font-size:50px; font-weight:bold;""
                            >startling</p>
                            <div style=""width:240px; margin: auto;"">
                                <img src=""images/B_L_U_15_lightshift.png"" style= ""width:200px""alt=""img"">
                            </div>
                        </div>","182","","0","images/B_L_U_15_lightshift.png","","","","startling","2","B","L","U","lightshift","",""
"","","","","","html-slider-response","169","408355","0.0-163.0","tbr1ao04wa","13","NaN","<div style=""width:500px;"">
                            <p style=""font-size:50px; font-weight:bold;""
                            >startling</p>
                            <div style=""width:240px; margin: auto;"">
                                <img src=""images/G_D_S_10_lightshift.png"" style= ""width:200px""alt=""img"">
                            </div>
                        </div>","-134","","0","images/G_D_S_10_lightshift.png","","","","startling","1","G","D","S","lightshift","",""
"","","","","","html-slider-response","170","409910","0.0-164.0","tbr1ao04wa","13","NaN","<div style=""width:500px;"">
                            <p style=""font-size:50px; font-weight:bold;""
                            >startling</p>
                            <div style=""width:240px; margin: auto;"">
                                <img src=""images/R_L_U_41_darkshift.png"" style= ""width:200px""alt=""img"">
                            </div>
                        </div>","-105","","0","images/R_L_U_41_darkshift.png","","","","startling","2","R","L","U","darkshift","",""
"","","","","","html-slider-response","171","411372","0.0-165.0","tbr1ao04wa","13","NaN","<div style=""width:500px;"">
                            <p style=""font-size:50px; font-weight:bold;""
                            >startling</p>
                            <div style=""width:240px; margin: auto;"">
                                <img src=""images/G_L_U_7_lightshift.png"" style= ""width:200px""alt=""img"">
                            </div>
                        </div>","200","","0","images/G_L_U_7_lightshift.png","","","","startling","1","G","L","U","lightshift","",""
"","","","","","html-slider-response","172","412955","0.0-166.0","tbr1ao04wa","13","NaN","<div style=""width:500px;"">
                            <p style=""font-size:50px; font-weight:bold;""
                            >startling</p>
                            <div style=""width:240px; margin: auto;"">
                                <img src=""images/R_L_U_41_lightshift.png"" style= ""width:200px""alt=""img"">
                            </div>
                        </div>","200","","0","images/R_L_U_41_lightshift.png","","","","startling","1","R","L","U","lightshift","",""
"","","","","","html-slider-response","173","414738","0.0-167.0","tbr1ao04wa","13","NaN","<div style=""width:500px;"">
                            <p style=""font-size:50px; font-weight:bold;""
                            >startling</p>
                            <div style=""width:240px; margin: auto;"">
                                <img src=""images/R_D_U_2_lightshift.png"" style= ""width:200px""alt=""img"">
                            </div>
                        </div>","-190","","0","images/R_D_U_2_lightshift.png","","","","startling","2","R","D","U","lightshift","",""
"","","","","","html-slider-response","174","417732","0.0-168.0","tbr1ao04wa","13","NaN","<div style=""width:500px;"">
                            <p style=""font-size:50px; font-weight:bold;""
                            >startling</p>
                            <div style=""width:240px; margin: auto;"">
