"success","timeout","failed_images","failed_audio","failed_video","trial_type","trial_index","time_elapsed","internal_node_id","subject_id","condition_num","rt","stimulus","response","question_order","slider_start","image_path","practiceTrial","practiceTrialNum","correct","concept","repetition","hue","lightness","saturation","shift","ishihara_plate","correct_response"
"true","false","[]","[]","[]","preload","0","964","0.0-0.0","v77apdsvtf","3","","","","","","","","","","","","","","","","",""
"","","","","","html-button-response","1","2088","0.0-1.0","v77apdsvtf","3","1121","Welcome to our experiment!<p>At the bottom of this screen, you will see a button that says ""Begin Experiment"".<br>Please only click that button when you are ready to complete the 25 minute experiment in one sitting.</p><p> Once you click that button, it will not be possible to restart the experiment.","0","","","","","","","","","","","","","",""
"true","","","","","fullscreen","2","4872","0.0-2.0","v77apdsvtf","3","1782","","","","","","","","","","","","","","","",""
"","","","","","survey-multi-select","3","8231","0.0-3.0","v77apdsvtf","3","3355","","{""Consent"":[""<strong>I consent</strong>""]}","[0]","","","","","","","","","","","","",""
"","","","","","html-button-response","4","12024","0.0-4.0","v77apdsvtf","3","3792","Welcome! <p> This experiment involves two parts: demographic information, followed by the experimental task.<p> It will take about 25 minutes to complete both parts.","0","","","","","","","","","","","","","",""
"","","","","","survey-text","5","34541","0.0-5.0","v77apdsvtf","3","22513","","{""Age"":""18"",""Gender"":""female"",""Race/ethnicity"":""Asian"",""Languages"":""Chinese, English""}","","","","","","","","","","","","","",""
"","","","","","html-slider-response","6","73518","0.0-6.0","v77apdsvtf","3","38975","
                            <div style='text-align:left; font-size:20px; line-height:25px; width: 1400px;'>
                                During this experiment you will be asked to rate how much you associate maps with                    different concepts.<br> Below, you can see some examples of the maps you will be asked to rate. Next to the maps
                    is the list of concepts.<br>You will be asked                    to rate how much you associate each map with each concept on a scale from 'not at all' to 'very much' like the
                    one below. <br><br>
                    Now, please look at the list of concepts and maps. For each concept, think about the map you associate 'very
                    much' with the concept.<br>                     When you see that map during the experiment, please rate it near the 'very much' endpoint of the
                    scale.<br>Now, please think about which map you associate 'not at all'                     with each concept. When you see that map during the experiment, please rate it near the 'not at all' endpoint
                    of the scale.<br>
                    Please use the full range of the scale. That is, if a map is somewhat associated with the concept, you would
                    click partway between the middle point and right side of the scale.                    You will be asked to rate each map for a given concept before moving on to the next concept.<br><br>Press the
                    'Continue' button for instructions on how to use the slider.                    <br><br>
                </div>

                <div style=""width: 500px; margin: 0 auto;"">
                    <!-- Centered text paragraphs -->
                    <div style=""text-align: center; width: 500px;"">
                        <p style=""font-size:25px; line-height:18px;"">calm</p>
                        <p style=""font-size:25px; line-height:18px;"">positive</p>
                        <p style=""font-size:25px;line-height:18px;"">negative</p>
                        <p style=""font-size:25px;line-height:18px;"">startling</p>
                    </div>

                    <!-- Grid section -->
                   <div style=""display: flex; justify-content: center; padding-top: 15px;"">
                    <div style=""display: grid; grid-template-columns: repeat(8, 80px); grid-gap: 5px; width: auto;"">
                        <img src=""images/G_D_U_28_darkshift.png"" alt=""map"" style=""width: 100%;""><img src=""images/B_L_U_33_darkshift.png"" alt=""map"" style=""width: 100%;""><img src=""images/B_D_S_37_lightshift.png"" alt=""map"" style=""width: 100%;""><img src=""images/G_L_U_26_darkshift.png"" alt=""map"" style=""width: 100%;""><img src=""images/R_L_S_10_darkshift.png"" alt=""map"" style=""width: 100%;""><img src=""images/G_D_U_28_lightshift.png"" alt=""map"" style=""width: 100%;""><img src=""images/R_D_S_13_darkshift.png"" alt=""map"" style=""width: 100%;""><img src=""images/B_L_U_33_lightshift.png"" alt=""map"" style=""width: 100%;""><img src=""images/R_L_U_12_lightshift.png"" alt=""map"" style=""width: 100%;""><img src=""images/Y_D_S_5_lightshift.png"" alt=""map"" style=""width: 100%;""><img src=""images/B_D_U_41_lightshift.png"" alt=""map"" style=""width: 100%;""><img src=""images/Y_D_U_7_darkshift.png"" alt=""map"" style=""width: 100%;""><img src=""images/G_L_S_23_lightshift.png"" alt=""map"" style=""width: 100%;""><img src=""images/R_D_U_15_darkshift.png"" alt=""map"" style=""width: 100%;""><img src=""images/Y_L_S_44_lightshift.png"" alt=""map"" style=""width: 100%;""><img src=""images/R_D_S_13_lightshift.png"" alt=""map"" style=""width: 100%;""><img src=""images/R_L_S_10_lightshift.png"" alt=""map"" style=""width: 100%;""><img src=""images/Y_D_U_7_lightshift.png"" alt=""map"" style=""width: 100%;""><img src=""images/Y_L_U_2_darkshift.png"" alt=""map"" style=""width: 100%;""><img src=""images/R_D_U_15_lightshift.png"" alt=""map"" style=""width: 100%;""><img src=""images/R_L_U_12_darkshift.png"" alt=""map"" style=""width: 100%;""><img src=""images/G_L_S_23_darkshift.png"" alt=""map"" style=""width: 100%;""><img src=""images/B_D_U_41_darkshift.png"" alt=""map"" style=""width: 100%;""><img src=""images/G_D_S_27_darkshift.png"" alt=""map"" style=""width: 100%;""><img src=""images/B_D_S_37_darkshift.png"" alt=""map"" style=""width: 100%;""><img src=""images/B_L_S_30_lightshift.png"" alt=""map"" style=""width: 100%;""><img src=""images/G_D_S_27_lightshift.png"" alt=""map"" style=""width: 100%;""><img src=""images/G_L_U_26_lightshift.png"" alt=""map"" style=""width: 100%;""><img src=""images/Y_L_S_44_darkshift.png"" alt=""map"" style=""width: 100%;""><img src=""images/Y_D_S_5_darkshift.png"" alt=""map"" style=""width: 100%;""><img src=""images/Y_L_U_2_lightshift.png"" alt=""map"" style=""width: 100%;""><img src=""images/B_L_S_30_darkshift.png"" alt=""map"" style=""width: 100%;"">
                    </div>
                </div>

                    <!-- Clear floats -->
                    <div style=""clear: both;""></div>
                </div>
                            ","197","","0","maps_anchoring.png","true","","","","","","","","","",""
"","","","","","html-button-response","7","75503","0.0-7.0","v77apdsvtf","3","1984","<div style=""width:800px;""><p style=""text-align:left"">To move the slider, click and drag your cursor to the location of the scale where you would like to make your rating and then let go. When you let go of the slider, your response will be recorded and the next trial will begin. <br>
                    We are interested in your initial impressions of each map for the given concept, so please go with your first intuition. <br>
                    Before you begin the experiment, there will be four training trials for you to practice using the scale. <br>
                     When you are ready to start the training trials, please click ""Continue"".</p><br></div>","0","","","","","","","","","","","","","",""
"","","","","","html-slider-response","8","78706","0.0-8.0-0.0","v77apdsvtf","3","NaN","<div style=""width:500px;"">
                                    <p style=""font-size:25px;"">Please move the slider all the way to the <br> right endpoint of the scale</p>

                                    </div>
                                </div>","193","","0","","true","0","true","","","","","","","",""
"","","","","","html-button-response","9","80113","0.0-8.0-1.0","v77apdsvtf","3","903","<p align='center'><b>Good job!</b> Click on 'Continue' to proceed.</p>","0","","","","","","","","","","","","","",""
"","","","","","html-slider-response","10","82153","0.0-9.0-0.0","v77apdsvtf","3","NaN","<div style=""width:500px;"">
                                    <p style=""font-size:25px;"">Please move the slider all the way to the <br> left endpoint of the scale</p>

                                    </div>
                                </div>","-193","","0","","true","1","true","","","","","","","",""
"","","","","","html-button-response","11","83436","0.0-9.0-1.0","v77apdsvtf","3","781","<p align='center'><b>Good job!</b> Click on 'Continue' to proceed.</p>","0","","","","","","","","","","","","","",""
"","","","","","html-slider-response","12","88952","0.0-10.0-0.0","v77apdsvtf","3","NaN","<div style=""width:500px;"">
                                    <p style=""font-size:25px;"">Please move the slider halfway between the center and right endpoint of the scale</p>

                                    </div>
                                </div>","109","","0","","true","2","true","","","","","","","",""
"","","","","","html-button-response","13","90195","0.0-10.0-1.0","v77apdsvtf","3","740","<p align='center'><b>Good job!</b> Click on 'Continue' to proceed.</p>","0","","","","","","","","","","","","","",""
"","","","","","html-slider-response","14","91560","0.0-11.0-0.0","v77apdsvtf","3","NaN","<div style=""width:500px;"">
                                    <p style=""font-size:25px;"">Please move the slider halfway between the center and left endpoint of the scale</p>

                                    </div>
                                </div>","-108","","0","","true","3","true","","","","","","","",""
"","","","","","html-button-response","15","92812","0.0-11.0-1.0","v77apdsvtf","3","749","<p align='center'><b>Good job!</b> Click on 'Continue' to proceed.</p>","0","","","","","","","","","","","","","",""
"","","","","","html-button-response","16","93813","0.0-12.0","v77apdsvtf","3","1001","<p>Great job! You've completed the practice trials. Now you will begin the main task.</p>","0","","","","","","","","","","","","","",""
"","","","","","html-button-response","17","96504","0.0-13.0","v77apdsvtf","3","2691","<p>In this block of trials, you will be asked to rate how much you associate each map with:</p > <p style = 'font-size:150%; font-weight: bold'>calm</p><br></br>","0","","","","","","","","","","","","","",""
"","","","","","html-slider-response","18","99050","0.0-14.0","v77apdsvtf","3","NaN","<div style=""width:500px;"">
                            <p style=""font-size:50px; font-weight:bold;""
                            >calm</p>
                            <div style=""width:240px; margin: auto;"">
                                <img src=""images/R_L_U_12_darkshift.png"" style= ""width:200px""alt=""img"">
                            </div>
                        </div>","-164","","0","images/R_L_U_12_darkshift.png","","","","calm","1","R","L","U","darkshift","",""
"","","","","","html-slider-response","19","103405","0.0-15.0","v77apdsvtf","3","NaN","<div style=""width:500px;"">
                            <p style=""font-size:50px; font-weight:bold;""
                            >calm</p>
                            <div style=""width:240px; margin: auto;"">
                                <img src=""images/G_L_S_23_lightshift.png"" style= ""width:200px""alt=""img"">
                            </div>
                        </div>","96","","0","images/G_L_S_23_lightshift.png","","","","calm","1","G","L","S","lightshift","",""
"","","","","","html-slider-response","20","105506","0.0-16.0","v77apdsvtf","3","NaN","<div style=""width:500px;"">
                            <p style=""font-size:50px; font-weight:bold;""
                            >calm</p>
                            <div style=""width:240px; margin: auto;"">
                                <img src=""images/Y_L_S_44_darkshift.png"" style= ""width:200px""alt=""img"">
                            </div>
                        </div>","-174","","0","images/Y_L_S_44_darkshift.png","","","","calm","2","Y","L","S","darkshift","",""
"","","","","","html-slider-response","21","107664","0.0-17.0","v77apdsvtf","3","NaN","<div style=""width:500px;"">
                            <p style=""font-size:50px; font-weight:bold;""
                            >calm</p>
                            <div style=""width:240px; margin: auto;"">
                                <img src=""images/B_D_U_41_darkshift.png"" style= ""width:200px""alt=""img"">
                            </div>
                        </div>","197","","0","images/B_D_U_41_darkshift.png","","","","calm","1","B","D","U","darkshift","",""
"","","","","","html-slider-response","22","109436","0.0-18.0","v77apdsvtf","3","NaN","<div style=""width:500px;"">
                            <p style=""font-size:50px; font-weight:bold;""
                            >calm</p>
                            <div style=""width:240px; margin: auto;"">
                                <img src=""images/R_L_S_10_darkshift.png"" style= ""width:200px""alt=""img"">
                            </div>
                        </div>","-127","","0","images/R_L_S_10_darkshift.png","","","","calm","1","R","L","S","darkshift","",""
"","","","","","html-slider-response","23","110938","0.0-19.0","v77apdsvtf","3","NaN","<div style=""width:500px;"">
                            <p style=""font-size:50px; font-weight:bold;""
                            >calm</p>
                            <div style=""width:240px; margin: auto;"">
                                <img src=""images/Y_L_S_44_darkshift.png"" style= ""width:200px""alt=""img"">
                            </div>
                        </div>","-180","","0","images/Y_L_S_44_darkshift.png","","","","calm","1","Y","L","S","darkshift","",""
"","","","","","html-slider-response","24","112889","0.0-20.0","v77apdsvtf","3","NaN","<div style=""width:500px;"">
                            <p style=""font-size:50px; font-weight:bold;""
                            >calm</p>
                            <div style=""width:240px; margin: auto;"">
                                <img src=""images/G_L_S_23_darkshift.png"" style= ""width:200px""alt=""img"">
                            </div>
                        </div>","112","","0","images/G_L_S_23_darkshift.png","","","","calm","2","G","L","S","darkshift","",""
"","","","","","html-slider-response","25","114800","0.0-21.0","v77apdsvtf","3","NaN","<div style=""width:500px;"">
                            <p style=""font-size:50px; font-weight:bold;""
                            >calm</p>
                            <div style=""width:240px; margin: auto;"">
                                <img src=""images/R_D_S_13_lightshift.png"" style= ""width:200px""alt=""img"">
                            </div>
                        </div>","-181","","0","images/R_D_S_13_lightshift.png","","","","calm","2","R","D","S","lightshift","",""
"","","","","","html-slider-response","26","116244","0.0-22.0","v77apdsvtf","3","NaN","<div style=""width:500px;"">
                            <p style=""font-size:50px; font-weight:bold;""
                            >calm</p>
                            <div style=""width:240px; margin: auto;"">
                                <img src=""images/R_L_U_12_darkshift.png"" style= ""width:200px""alt=""img"">
                            </div>
                        </div>","-181","","0","images/R_L_U_12_darkshift.png","","","","calm","2","R","L","U","darkshift","",""
"","","","","","html-slider-response","27","118426","0.0-23.0","v77apdsvtf","3","NaN","<div style=""width:500px;"">
                            <p style=""font-size:50px; font-weight:bold;""
                            >calm</p>
                            <div style=""width:240px; margin: auto;"">
                                <img src=""images/Y_D_S_5_lightshift.png"" style= ""width:200px""alt=""img"">
                            </div>
                        </div>","122","","0","images/Y_D_S_5_lightshift.png","","","","calm","2","Y","D","S","lightshift","",""
"","","","","","html-slider-response","28","120158","0.0-24.0","v77apdsvtf","3","NaN","<div style=""width:500px;"">
                            <p style=""font-size:50px; font-weight:bold;""
                            >calm</p>
                            <div style=""width:240px; margin: auto;"">
                                <img src=""images/G_L_U_26_darkshift.png"" style= ""width:200px""alt=""img"">
                            </div>
                        </div>","196","","0","images/G_L_U_26_darkshift.png","","","","calm","1","G","L","U","darkshift","",""
"","","","","","html-slider-response","29","122038","0.0-25.0","v77apdsvtf","3","NaN","<div style=""width:500px;"">
                            <p style=""font-size:50px; font-weight:bold;""
                            >calm</p>
                            <div style=""width:240px; margin: auto;"">
                                <img src=""images/Y_L_S_44_lightshift.png"" style= ""width:200px""alt=""img"">
                            </div>
                        </div>","-188","","0","images/Y_L_S_44_lightshift.png","","","","calm","2","Y","L","S","lightshift","",""
"","","","","","html-slider-response","30","123817","0.0-26.0","v77apdsvtf","3","NaN","<div style=""width:500px;"">
                            <p style=""font-size:50px; font-weight:bold;""
                            >calm</p>
                            <div style=""width:240px; margin: auto;"">
                                <img src=""images/B_L_S_30_darkshift.png"" style= ""width:200px""alt=""img"">
                            </div>
                        </div>","88","","0","images/B_L_S_30_darkshift.png","","","","calm","2","B","L","S","darkshift","",""
"","","","","","html-slider-response","31","125432","0.0-27.0","v77apdsvtf","3","NaN","<div style=""width:500px;"">
                            <p style=""font-size:50px; font-weight:bold;""
                            >calm</p>
                            <div style=""width:240px; margin: auto;"">
                                <img src=""images/B_D_U_41_darkshift.png"" style= ""width:200px""alt=""img"">
                            </div>
                        </div>","192","","0","images/B_D_U_41_darkshift.png","","","","calm","2","B","D","U","darkshift","",""
"","","","","","html-slider-response","32","127410","0.0-28.0","v77apdsvtf","3","NaN","<div style=""width:500px;"">
                            <p style=""font-size:50px; font-weight:bold;""
                            >calm</p>
                            <div style=""width:240px; margin: auto;"">
                                <img src=""images/G_D_S_27_lightshift.png"" style= ""width:200px""alt=""img"">
                            </div>
                        </div>","142","","0","images/G_D_S_27_lightshift.png","","","","calm","2","G","D","S","lightshift","",""
"","","","","","html-slider-response","33","129010","0.0-29.0","v77apdsvtf","3","NaN","<div style=""width:500px;"">
                            <p style=""font-size:50px; font-weight:bold;""
                            >calm</p>
                            <div style=""width:240px; margin: auto;"">
                                <img src=""images/B_D_S_37_darkshift.png"" style= ""width:200px""alt=""img"">
                            </div>
                        </div>","183","","0","images/B_D_S_37_darkshift.png","","","","calm","1","B","D","S","darkshift","",""
"","","","","","html-slider-response","34","131134","0.0-30.0","v77apdsvtf","3","NaN","<div style=""width:500px;"">
                            <p style=""font-size:50px; font-weight:bold;""
                            >calm</p>
                            <div style=""width:240px; margin: auto;"">
                                <img src=""images/Y_L_U_2_darkshift.png"" style= ""width:200px""alt=""img"">
                            </div>
                        </div>","-110","","0","images/Y_L_U_2_darkshift.png","","","","calm","1","Y","L","U","darkshift","",""
"","","","","","html-slider-response","35","133957","0.0-31.0","v77apdsvtf","3","NaN","<div style=""width:500px;"">
                            <p style=""font-size:50px; font-weight:bold;""
                            >calm</p>
                            <div style=""width:240px; margin: auto;"">
                                <img src=""images/G_L_U_26_lightshift.png"" style= ""width:200px""alt=""img"">
                            </div>
                        </div>","64","","0","images/G_L_U_26_lightshift.png","","","","calm","1","G","L","U","lightshift","",""
"","","","","","html-slider-response","36","135507","0.0-32.0","v77apdsvtf","3","NaN","<div style=""width:500px;"">
                            <p style=""font-size:50px; font-weight:bold;""
                            >calm</p>
                            <div style=""width:240px; margin: auto;"">
                                <img src=""images/Y_L_S_44_lightshift.png"" style= ""width:200px""alt=""img"">
                            </div>
                        </div>","-179","","0","images/Y_L_S_44_lightshift.png","","","","calm","1","Y","L","S","lightshift","",""
"","","","","","html-slider-response","37","138076","0.0-33.0","v77apdsvtf","3","NaN","<div style=""width:500px;"">
                            <p style=""font-size:50px; font-weight:bold;""
                            >calm</p>
                            <div style=""width:240px; margin: auto;"">
                                <img src=""images/B_D_S_37_lightshift.png"" style= ""width:200px""alt=""img"">
                            </div>
                        </div>","194","","0","images/B_D_S_37_lightshift.png","","","","calm","2","B","D","S","lightshift","",""
"","","","","","html-slider-response","38","140906","0.0-34.0","v77apdsvtf","3","NaN","<div style=""width:500px;"">
                            <p style=""font-size:50px; font-weight:bold;""
                            >calm</p>
                            <div style=""width:240px; margin: auto;"">
                                <img src=""images/G_L_S_23_lightshift.png"" style= ""width:200px""alt=""img"">
                            </div>
                        </div>","88","","0","images/G_L_S_23_lightshift.png","","","","calm","2","G","L","S","lightshift","",""
"","","","","","html-slider-response","39","143456","0.0-35.0","v77apdsvtf","3","NaN","<div style=""width:500px;"">
                            <p style=""font-size:50px; font-weight:bold;""
                            >calm</p>
                            <div style=""width:240px; margin: auto;"">
                                <img src=""images/B_L_U_33_lightshift.png"" style= ""width:200px""alt=""img"">
                            </div>
                        </div>","42","","0","images/B_L_U_33_lightshift.png","","","","calm","1","B","L","U","lightshift","",""
"","","","","","html-slider-response","40","146179","0.0-36.0","v77apdsvtf","3","NaN","<div style=""width:500px;"">
                            <p style=""font-size:50px; font-weight:bold;""
                            >calm</p>
                            <div style=""width:240px; margin: auto;"">
                                <img src=""images/G_D_U_28_lightshift.png"" style= ""width:200px""alt=""img"">
                            </div>
                        </div>","194","","0","images/G_D_U_28_lightshift.png","","","","calm","2","G","D","U","lightshift","",""
"","","","","","html-slider-response","41","147673","0.0-37.0","v77apdsvtf","3","NaN","<div style=""width:500px;"">
                            <p style=""font-size:50px; font-weight:bold;""
                            >calm</p>
                            <div style=""width:240px; margin: auto;"">
                                <img src=""images/G_D_S_27_darkshift.png"" style= ""width:200px""alt=""img"">
                            </div>
                        </div>","190","","0","images/G_D_S_27_darkshift.png","","","","calm","1","G","D","S","darkshift","",""
"","","","","","html-slider-response","42","150347","0.0-38.0","v77apdsvtf","3","NaN","<div style=""width:500px;"">
                            <p style=""font-size:50px; font-weight:bold;""
                            >calm</p>
                            <div style=""width:240px; margin: auto;"">
                                <img src=""images/R_D_U_15_lightshift.png"" style= ""width:200px""alt=""img"">
                            </div>
                        </div>","-122","","0","images/R_D_U_15_lightshift.png","","","","calm","2","R","D","U","lightshift","",""
"","","","","","html-slider-response","43","152472","0.0-39.0","v77apdsvtf","3","NaN","<div style=""width:500px;"">
                            <p style=""font-size:50px; font-weight:bold;""
                            >calm</p>
                            <div style=""width:240px; margin: auto;"">
                                <img src=""images/Y_D_U_7_darkshift.png"" style= ""width:200px""alt=""img"">
                            </div>
                        </div>","187","","0","images/Y_D_U_7_darkshift.png","","","","calm","1","Y","D","U","darkshift","",""
"","","","","","html-slider-response","44","153614","0.0-40.0","v77apdsvtf","3","NaN","<div style=""width:500px;"">
                            <p style=""font-size:50px; font-weight:bold;""
                            >calm</p>
                            <div style=""width:240px; margin: auto;"">
                                <img src=""images/G_D_U_28_darkshift.png"" style= ""width:200px""alt=""img"">
                            </div>
                        </div>","187","","0","images/G_D_U_28_darkshift.png","","","","calm","1","G","D","U","darkshift","",""
"","","","","","html-slider-response","45","155779","0.0-41.0","v77apdsvtf","3","NaN","<div style=""width:500px;"">
                            <p style=""font-size:50px; font-weight:bold;""
                            >calm</p>
                            <div style=""width:240px; margin: auto;"">
                                <img src=""images/R_D_S_13_darkshift.png"" style= ""width:200px""alt=""img"">
                            </div>
                        </div>","-98","","0","images/R_D_S_13_darkshift.png","","","","calm","1","R","D","S","darkshift","",""
"","","","","","html-slider-response","46","157404","0.0-42.0","v77apdsvtf","3","NaN","<div style=""width:500px;"">
                            <p style=""font-size:50px; font-weight:bold;""
                            >calm</p>
                            <div style=""width:240px; margin: auto;"">
                                <img src=""images/Y_D_U_7_darkshift.png"" style= ""width:200px""alt=""img"">
                            </div>
                        </div>","78","","0","images/Y_D_U_7_darkshift.png","","","","calm","2","Y","D","U","darkshift","",""
"","","","","","html-slider-response","47","159347","0.0-43.0","v77apdsvtf","3","NaN","<div style=""width:500px;"">
                            <p style=""font-size:50px; font-weight:bold;""
                            >calm</p>
                            <div style=""width:240px; margin: auto;"">
                                <img src=""images/B_L_U_33_darkshift.png"" style= ""width:200px""alt=""img"">
                            </div>
                        </div>","188","","0","images/B_L_U_33_darkshift.png","","","","calm","1","B","L","U","darkshift","",""
"","","","","","html-slider-response","48","160882","0.0-44.0","v77apdsvtf","3","NaN","<div style=""width:500px;"">
                            <p style=""font-size:50px; font-weight:bold;""
                            >calm</p>
                            <div style=""width:240px; margin: auto;"">
                                <img src=""images/B_D_U_41_lightshift.png"" style= ""width:200px""alt=""img"">
                            </div>
                        </div>","193","","0","images/B_D_U_41_lightshift.png","","","","calm","1","B","D","U","lightshift","",""
"","","","","","html-slider-response","49","162531","0.0-45.0","v77apdsvtf","3","NaN","<div style=""width:500px;"">
                            <p style=""font-size:50px; font-weight:bold;""
                            >calm</p>
                            <div style=""width:240px; margin: auto;"">
                                <img src=""images/R_D_S_13_darkshift.png"" style= ""width:200px""alt=""img"">
                            </div>
                        </div>","-80","","0","images/R_D_S_13_darkshift.png","","","","calm","2","R","D","S","darkshift","",""
"","","","","","html-slider-response","50","167421","0.0-46.0","v77apdsvtf","3","NaN","<div style=""width:500px;"">
                            <p style=""font-size:50px; font-weight:bold;""
                            >calm</p>
                            <div style=""width:240px; margin: auto;"">
                                <img src=""images/B_L_S_30_darkshift.png"" style= ""width:200px""alt=""img"">
                            </div>
                        </div>","182","","0","images/B_L_S_30_darkshift.png","","","","calm","1","B","L","S","darkshift","",""
"","","","","","html-slider-response","51","169077","0.0-47.0","v77apdsvtf","3","NaN","<div style=""width:500px;"">
                            <p style=""font-size:50px; font-weight:bold;""
                            >calm</p>
                            <div style=""width:240px; margin: auto;"">
                                <img src=""images/Y_D_U_7_lightshift.png"" style= ""width:200px""alt=""img"">
                            </div>
                        </div>","189","","0","images/Y_D_U_7_lightshift.png","","","","calm","2","Y","D","U","lightshift","",""
"","","","","","html-slider-response","52","170407","0.0-48.0","v77apdsvtf","3","NaN","<div style=""width:500px;"">
                            <p style=""font-size:50px; font-weight:bold;""
                            >calm</p>
                            <div style=""width:240px; margin: auto;"">
                                <img src=""images/B_D_S_37_lightshift.png"" style= ""width:200px""alt=""img"">
                            </div>
                        </div>","189","","0","images/B_D_S_37_lightshift.png","","","","calm","1","B","D","S","lightshift","",""
"","","","","","html-slider-response","53","172597","0.0-49.0","v77apdsvtf","3","NaN","<div style=""width:500px;"">
                            <p style=""font-size:50px; font-weight:bold;""
                            >calm</p>
                            <div style=""width:240px; margin: auto;"">
                                <img src=""images/G_L_U_26_lightshift.png"" style= ""width:200px""alt=""img"">
                            </div>
                        </div>","-113","","0","images/G_L_U_26_lightshift.png","","","","calm","2","G","L","U","lightshift","",""
"","","","","","html-slider-response","54","174213","0.0-50.0","v77apdsvtf","3","NaN","<div style=""width:500px;"">
                            <p style=""font-size:50px; font-weight:bold;""
                            >calm</p>
                            <div style=""width:240px; margin: auto;"">
                                <img src=""images/R_L_S_10_lightshift.png"" style= ""width:200px""alt=""img"">
                            </div>
                        </div>","-156","","0","images/R_L_S_10_lightshift.png","","","","calm","1","R","L","S","lightshift","",""
"","","","","","html-slider-response","55","175821","0.0-51.0","v77apdsvtf","3","NaN","<div style=""width:500px;"">
                            <p style=""font-size:50px; font-weight:bold;""
                            >calm</p>
                            <div style=""width:240px; margin: auto;"">
                                <img src=""images/Y_L_U_2_darkshift.png"" style= ""width:200px""alt=""img"">
                            </div>
                        </div>","-181","","0","images/Y_L_U_2_darkshift.png","","","","calm","2","Y","L","U","darkshift","",""
"","","","","","html-slider-response","56","177175","0.0-52.0","v77apdsvtf","3","NaN","<div style=""width:500px;"">
                            <p style=""font-size:50px; font-weight:bold;""
                            >calm</p>
                            <div style=""width:240px; margin: auto;"">
                                <img src=""images/R_L_U_12_lightshift.png"" style= ""width:200px""alt=""img"">
                            </div>
                        </div>","-181","","0","images/R_L_U_12_lightshift.png","","","","calm","1","R","L","U","lightshift","",""
"","","","","","html-slider-response","57","179153","0.0-53.0","v77apdsvtf","3","NaN","<div style=""width:500px;"">
                            <p style=""font-size:50px; font-weight:bold;""
                            >calm</p>
                            <div style=""width:240px; margin: auto;"">
                                <img src=""images/Y_D_U_7_lightshift.png"" style= ""width:200px""alt=""img"">
                            </div>
                        </div>","195","","0","images/Y_D_U_7_lightshift.png","","","","calm","1","Y","D","U","lightshift","",""
"","","","","","html-slider-response","58","181096","0.0-54.0","v77apdsvtf","3","NaN","<div style=""width:500px;"">
                            <p style=""font-size:50px; font-weight:bold;""
                            >calm</p>
                            <div style=""width:240px; margin: auto;"">
                                <img src=""images/G_L_U_26_darkshift.png"" style= ""width:200px""alt=""img"">
                            </div>
                        </div>","196","","0","images/G_L_U_26_darkshift.png","","","","calm","2","G","L","U","darkshift","",""
"","","","","","html-slider-response","59","183712","0.0-55.0","v77apdsvtf","3","NaN","<div style=""width:500px;"">
                            <p style=""font-size:50px; font-weight:bold;""
                            >calm</p>
                            <div style=""width:240px; margin: auto;"">
                                <img src=""images/B_L_U_33_lightshift.png"" style= ""width:200px""alt=""img"">
                            </div>
                        </div>","-7","","0","images/B_L_U_33_lightshift.png","","","","calm","2","B","L","U","lightshift","",""
"","","","","","html-slider-response","60","185829","0.0-56.0","v77apdsvtf","3","NaN","<div style=""width:500px;"">
                            <p style=""font-size:50px; font-weight:bold;""
                            >calm</p>
                            <div style=""width:240px; margin: auto;"">
                                <img src=""images/B_L_S_30_lightshift.png"" style= ""width:200px""alt=""img"">
                            </div>
                        </div>","122","","0","images/B_L_S_30_lightshift.png","","","","calm","2","B","L","S","lightshift","",""
"","","","","","html-slider-response","61","187437","0.0-57.0","v77apdsvtf","3","NaN","<div style=""width:500px;"">
                            <p style=""font-size:50px; font-weight:bold;""
                            >calm</p>
                            <div style=""width:240px; margin: auto;"">
                                <img src=""images/G_D_U_28_lightshift.png"" style= ""width:200px""alt=""img"">
                            </div>
                        </div>","189","","0","images/G_D_U_28_lightshift.png","","","","calm","1","G","D","U","lightshift","",""
"","","","","","html-slider-response","62","188636","0.0-58.0","v77apdsvtf","3","NaN","<div style=""width:500px;"">
                            <p style=""font-size:50px; font-weight:bold;""
                            >calm</p>
                            <div style=""width:240px; margin: auto;"">
                                <img src=""images/G_L_S_23_darkshift.png"" style= ""width:200px""alt=""img"">
                            </div>
                        </div>","189","","0","images/G_L_S_23_darkshift.png","","","","calm","1","G","L","S","darkshift","",""
"","","","","","html-slider-response","63","194323","0.0-59.0","v77apdsvtf","3","NaN","<div style=""width:500px;"">
                            <p style=""font-size:50px; font-weight:bold;""
                            >calm</p>
                            <div style=""width:240px; margin: auto;"">
                                <img src=""images/B_L_S_30_lightshift.png"" style= ""width:200px""alt=""img"">
                            </div>
                        </div>","162","","0","images/B_L_S_30_lightshift.png","","","","calm","1","B","L","S","lightshift","",""
"","","","","","html-slider-response","64","196179","0.0-60.0","v77apdsvtf","3","NaN","<div style=""width:500px;"">
                            <p style=""font-size:50px; font-weight:bold;""
                            >calm</p>
                            <div style=""width:240px; margin: auto;"">
                                <img src=""images/B_L_U_33_darkshift.png"" style= ""width:200px""alt=""img"">
                            </div>
                        </div>","189","","0","images/B_L_U_33_darkshift.png","","","","calm","2","B","L","U","darkshift","",""
"","","","","","html-slider-response","65","197920","0.0-61.0","v77apdsvtf","3","NaN","<div style=""width:500px;"">
                            <p style=""font-size:50px; font-weight:bold;""
                            >calm</p>
                            <div style=""width:240px; margin: auto;"">
                                <img src=""images/R_D_S_13_lightshift.png"" style= ""width:200px""alt=""img"">
                            </div>
                        </div>","-187","","0","images/R_D_S_13_lightshift.png","","","","calm","1","R","D","S","lightshift","",""
"","","","","","html-slider-response","66","199145","0.0-62.0","v77apdsvtf","3","NaN","<div style=""width:500px;"">
                            <p style=""font-size:50px; font-weight:bold;""
                            >calm</p>
                            <div style=""width:240px; margin: auto;"">
                                <img src=""images/Y_L_U_2_lightshift.png"" style= ""width:200px""alt=""img"">
                            </div>
                        </div>","-187","","0","images/Y_L_U_2_lightshift.png","","","","calm","1","Y","L","U","lightshift","",""
"","","","","","html-slider-response","67","201173","0.0-63.0","v77apdsvtf","3","NaN","<div style=""width:500px;"">
                            <p style=""font-size:50px; font-weight:bold;""
                            >calm</p>
                            <div style=""width:240px; margin: auto;"">
                                <img src=""images/B_D_S_37_darkshift.png"" style= ""width:200px""alt=""img"">
                            </div>
                        </div>","192","","0","images/B_D_S_37_darkshift.png","","","","calm","2","B","D","S","darkshift","",""
"","","","","","html-slider-response","68","203048","0.0-64.0","v77apdsvtf","3","NaN","<div style=""width:500px;"">
                            <p style=""font-size:50px; font-weight:bold;""
                            >calm</p>
                            <div style=""width:240px; margin: auto;"">
                                <img src=""images/R_L_S_10_darkshift.png"" style= ""width:200px""alt=""img"">
                            </div>
                        </div>","-188","","0","images/R_L_S_10_darkshift.png","","","","calm","2","R","L","S","darkshift","",""
"","","","","","html-slider-response","69","205278","0.0-65.0","v77apdsvtf","3","NaN","<div style=""width:500px;"">
                            <p style=""font-size:50px; font-weight:bold;""
                            >calm</p>
                            <div style=""width:240px; margin: auto;"">
                                <img src=""images/Y_D_S_5_darkshift.png"" style= ""width:200px""alt=""img"">
                            </div>
                        </div>","132","","0","images/Y_D_S_5_darkshift.png","","","","calm","2","Y","D","S","darkshift","",""
"","","","","","html-slider-response","70","206797","0.0-66.0","v77apdsvtf","3","NaN","<div style=""width:500px;"">
                            <p style=""font-size:50px; font-weight:bold;""
                            >calm</p>
                            <div style=""width:240px; margin: auto;"">
                                <img src=""images/G_D_U_28_darkshift.png"" style= ""width:200px""alt=""img"">
                            </div>
                        </div>","193","","0","images/G_D_U_28_darkshift.png","","","","calm","2","G","D","U","darkshift","",""
"","","","","","html-slider-response","71","207930","0.0-67.0","v77apdsvtf","3","NaN","<div style=""width:500px;"">
                            <p style=""font-size:50px; font-weight:bold;""
                            >calm</p>
                            <div style=""width:240px; margin: auto;"">
                                <img src=""images/G_D_S_27_darkshift.png"" style= ""width:200px""alt=""img"">
                            </div>
                        </div>","194","","0","images/G_D_S_27_darkshift.png","","","","calm","2","G","D","S","darkshift","",""
"","","","","","html-slider-response","72","214874","0.0-68.0","v77apdsvtf","3","NaN","<div style=""width:500px;"">
                            <p style=""font-size:50px; font-weight:bold;""
                            >calm</p>
                            <div style=""width:240px; margin: auto;"">
                                <img src=""images/Y_L_U_2_lightshift.png"" style= ""width:200px""alt=""img"">
                            </div>
                        </div>","-114","","0","images/Y_L_U_2_lightshift.png","","","","calm","2","Y","L","U","lightshift","",""
"","","","","","html-slider-response","73","216318","0.0-69.0","v77apdsvtf","3","NaN","<div style=""width:500px;"">
                            <p style=""font-size:50px; font-weight:bold;""
                            >calm</p>
                            <div style=""width:240px; margin: auto;"">
                                <img src=""images/Y_D_S_5_lightshift.png"" style= ""width:200px""alt=""img"">
                            </div>
                        </div>","-145","","0","images/Y_D_S_5_lightshift.png","","","","calm","1","Y","D","S","lightshift","",""
"","","","","","html-slider-response","74","218242","0.0-70.0","v77apdsvtf","3","NaN","<div style=""width:500px;"">
                            <p style=""font-size:50px; font-weight:bold;""
                            >calm</p>
                            <div style=""width:240px; margin: auto;"">
                                <img src=""images/B_D_U_41_lightshift.png"" style= ""width:200px""alt=""img"">
                            </div>
                        </div>","186","","0","images/B_D_U_41_lightshift.png","","","","calm","2","B","D","U","lightshift","",""
"","","","","","html-slider-response","75","219978","0.0-71.0","v77apdsvtf","3","NaN","<div style=""width:500px;"">
                            <p style=""font-size:50px; font-weight:bold;""
                            >calm</p>
                            <div style=""width:240px; margin: auto;"">
                                <img src=""images/R_L_S_10_lightshift.png"" style= ""width:200px""alt=""img"">
                            </div>
                        </div>","-112","","0","images/R_L_S_10_lightshift.png","","","","calm","2","R","L","S","lightshift","",""
"","","","","","html-slider-response","76","221185","0.0-72.0","v77apdsvtf","3","NaN","<div style=""width:500px;"">
                            <p style=""font-size:50px; font-weight:bold;""
                            >calm</p>
                            <div style=""width:240px; margin: auto;"">
                                <img src=""images/R_D_U_15_darkshift.png"" style= ""width:200px""alt=""img"">
                            </div>
                        </div>","-112","","0","images/R_D_U_15_darkshift.png","","","","calm","1","R","D","U","darkshift","",""
"","","","","","html-slider-response","77","223277","0.0-73.0","v77apdsvtf","3","NaN","<div style=""width:500px;"">
                            <p style=""font-size:50px; font-weight:bold;""
                            >calm</p>
                            <div style=""width:240px; margin: auto;"">
                                <img src=""images/Y_D_S_5_darkshift.png"" style= ""width:200px""alt=""img"">
                            </div>
                        </div>","179","","0","images/Y_D_S_5_darkshift.png","","","","calm","1","Y","D","S","darkshift","",""
"","","","","","html-slider-response","78","227305","0.0-74.0","v77apdsvtf","3","NaN","<div style=""width:500px;"">
                            <p style=""font-size:50px; font-weight:bold;""
                            >calm</p>
                            <div style=""width:240px; margin: auto;"">
                                <img src=""images/R_D_U_15_darkshift.png"" style= ""width:200px""alt=""img"">
                            </div>
                        </div>","-77","","0","images/R_D_U_15_darkshift.png","","","","calm","2","R","D","U","darkshift","",""
"","","","","","html-slider-response","79","229118","0.0-75.0","v77apdsvtf","3","NaN","<div style=""width:500px;"">
                            <p style=""font-size:50px; font-weight:bold;""
                            >calm</p>
                            <div style=""width:240px; margin: auto;"">
                                <img src=""images/R_D_U_15_lightshift.png"" style= ""width:200px""alt=""img"">
                            </div>
                        </div>","-176","","0","images/R_D_U_15_lightshift.png","","","","calm","1","R","D","U","lightshift","",""
"","","","","","html-slider-response","80","230177","0.0-76.0","v77apdsvtf","3","NaN","<div style=""width:500px;"">
                            <p style=""font-size:50px; font-weight:bold;""
                            >calm</p>
                            <div style=""width:240px; margin: auto;"">
                                <img src=""images/R_L_U_12_lightshift.png"" style= ""width:200px""alt=""img"">
                            </div>
                        </div>","-176","","0","images/R_L_U_12_lightshift.png","","","","calm","2","R","L","U","lightshift","",""
"","","","","","html-slider-response","81","232203","0.0-77.0","v77apdsvtf","3","NaN","<div style=""width:500px;"">
                            <p style=""font-size:50px; font-weight:bold;""
                            >calm</p>
                            <div style=""width:240px; margin: auto;"">
                                <img src=""images/G_D_S_27_lightshift.png"" style= ""width:200px""alt=""img"">
                            </div>
                        </div>","75","","0","images/G_D_S_27_lightshift.png","","","","calm","1","G","D","S","lightshift","",""
"","","","","","html-button-response","82","235212","0.0-78.0","v77apdsvtf","3","2506","<p>Great Job! You've finished block 1.<br></br> You have 3 block(s) left to go.<br></br></p>","0","","","","","","","","","","","","","",""
"","","","","","html-button-response","83","237387","0.0-79.0","v77apdsvtf","3","2174","<p>In this block of trials, you will be asked to rate how much you associate each map with:</p > <p style = 'font-size:150%; font-weight: bold'>negative</p><br></br>","0","","","","","","","","","","","","","",""
"","","","","","html-slider-response","84","238981","0.0-80.0","v77apdsvtf","3","NaN","<div style=""width:500px;"">
                            <p style=""font-size:50px; font-weight:bold;""
                            >negative</p>
                            <div style=""width:240px; margin: auto;"">
                                <img src=""images/G_D_U_28_darkshift.png"" style= ""width:200px""alt=""img"">
                            </div>
                        </div>","183","","0","images/G_D_U_28_darkshift.png","","","","negative","1","G","D","U","darkshift","",""
"","","","","","html-slider-response","85","240844","0.0-81.0","v77apdsvtf","3","NaN","<div style=""width:500px;"">
                            <p style=""font-size:50px; font-weight:bold;""
                            >negative</p>
                            <div style=""width:240px; margin: auto;"">
                                <img src=""images/Y_L_S_44_darkshift.png"" style= ""width:200px""alt=""img"">
                            </div>
                        </div>","183","","0","images/Y_L_S_44_darkshift.png","","","","negative","1","Y","L","S","darkshift","",""
"","","","","","html-slider-response","86","243320","0.0-82.0","v77apdsvtf","3","NaN","<div style=""width:500px;"">
                            <p style=""font-size:50px; font-weight:bold;""
                            >negative</p>
                            <div style=""width:240px; margin: auto;"">
                                <img src=""images/R_L_S_10_lightshift.png"" style= ""width:200px""alt=""img"">
                            </div>
                        </div>","-79","","0","images/R_L_S_10_lightshift.png","","","","negative","2","R","L","S","lightshift","",""
"","","","","","html-slider-response","87","247308","0.0-83.0","v77apdsvtf","3","NaN","<div style=""width:500px;"">
                            <p style=""font-size:50px; font-weight:bold;""
                            >negative</p>
                            <div style=""width:240px; margin: auto;"">
                                <img src=""images/Y_L_U_2_darkshift.png"" style= ""width:200px""alt=""img"">
                            </div>
                        </div>","86","","0","images/Y_L_U_2_darkshift.png","","","","negative","2","Y","L","U","darkshift","",""
"","","","","","html-slider-response","88","249087","0.0-84.0","v77apdsvtf","3","NaN","<div style=""width:500px;"">
                            <p style=""font-size:50px; font-weight:bold;""
                            >negative</p>
                            <div style=""width:240px; margin: auto;"">
                                <img src=""images/G_D_S_27_darkshift.png"" style= ""width:200px""alt=""img"">
                            </div>
                        </div>","186","","0","images/G_D_S_27_darkshift.png","","","","negative","2","G","D","S","darkshift","",""
"","","","","","html-slider-response","89","253215","0.0-85.0","v77apdsvtf","3","NaN","<div style=""width:500px;"">
                            <p style=""font-size:50px; font-weight:bold;""
                            >negative</p>
                            <div style=""width:240px; margin: auto;"">
                                <img src=""images/Y_L_S_44_lightshift.png"" style= ""width:200px""alt=""img"">
                            </div>
                        </div>","54","","0","images/Y_L_S_44_lightshift.png","","","","negative","2","Y","L","S","lightshift","",""
"","","","","","html-slider-response","90","254897","0.0-86.0","v77apdsvtf","3","NaN","<div style=""width:500px;"">
                            <p style=""font-size:50px; font-weight:bold;""
                            >negative</p>
                            <div style=""width:240px; margin: auto;"">
                                <img src=""images/Y_D_U_7_darkshift.png"" style= ""width:200px""alt=""img"">
                            </div>
                        </div>","178","","0","images/Y_D_U_7_darkshift.png","","","","negative","1","Y","D","U","darkshift","",""
"","","","","","html-slider-response","91","256866","0.0-87.0","v77apdsvtf","3","NaN","<div style=""width:500px;"">
                            <p style=""font-size:50px; font-weight:bold;""
                            >negative</p>
                            <div style=""width:240px; margin: auto;"">
                                <img src=""images/G_D_S_27_lightshift.png"" style= ""width:200px""alt=""img"">
                            </div>
                        </div>","188","","0","images/G_D_S_27_lightshift.png","","","","negative","1","G","D","S","lightshift","",""
"","","","","","html-slider-response","92","258376","0.0-88.0","v77apdsvtf","3","NaN","<div style=""width:500px;"">
                            <p style=""font-size:50px; font-weight:bold;""
                            >negative</p>
                            <div style=""width:240px; margin: auto;"">
                                <img src=""images/Y_D_U_7_lightshift.png"" style= ""width:200px""alt=""img"">
                            </div>
                        </div>","188","","0","images/Y_D_U_7_lightshift.png","","","","negative","1","Y","D","U","lightshift","",""
"","","","","","html-slider-response","93","260163","0.0-89.0","v77apdsvtf","3","NaN","<div style=""width:500px;"">
                            <p style=""font-size:50px; font-weight:bold;""
                            >negative</p>
                            <div style=""width:240px; margin: auto;"">
                                <img src=""images/R_L_U_12_lightshift.png"" style= ""width:200px""alt=""img"">
                            </div>
                        </div>","-118","","0","images/R_L_U_12_lightshift.png","","","","negative","1","R","L","U","lightshift","",""
"","","","","","html-slider-response","94","261877","0.0-90.0","v77apdsvtf","3","NaN","<div style=""width:500px;"">
                            <p style=""font-size:50px; font-weight:bold;""
                            >negative</p>
                            <div style=""width:240px; margin: auto;"">
                                <img src=""images/G_L_S_23_darkshift.png"" style= ""width:200px""alt=""img"">
                            </div>
                        </div>","185","","0","images/G_L_S_23_darkshift.png","","","","negative","2","G","L","S","darkshift","",""
"","","","","","html-slider-response","95","266409","0.0-91.0","v77apdsvtf","3","NaN","<div style=""width:500px;"">
                            <p style=""font-size:50px; font-weight:bold;""
                            >negative</p>
                            <div style=""width:240px; margin: auto;"">
                                <img src=""images/B_L_S_30_darkshift.png"" style= ""width:200px""alt=""img"">
                            </div>
                        </div>","-46","","0","images/B_L_S_30_darkshift.png","","","","negative","1","B","L","S","darkshift","",""
"","","","","","html-slider-response","96","268605","0.0-92.0","v77apdsvtf","3","NaN","<div style=""width:500px;"">
                            <p style=""font-size:50px; font-weight:bold;""
                            >negative</p>
                            <div style=""width:240px; margin: auto;"">
                                <img src=""images/G_L_U_26_darkshift.png"" style= ""width:200px""alt=""img"">
                            </div>
                        </div>","-18","","0","images/G_L_U_26_darkshift.png","","","","negative","2","G","L","U","darkshift","",""
"","","","","","html-slider-response","97","271224","0.0-93.0","v77apdsvtf","3","NaN","<div style=""width:500px;"">
                            <p style=""font-size:50px; font-weight:bold;""
                            >negative</p>
                            <div style=""width:240px; margin: auto;"">
                                <img src=""images/Y_L_S_44_lightshift.png"" style= ""width:200px""alt=""img"">
                            </div>
                        </div>","-64","","0","images/Y_L_S_44_lightshift.png","","","","negative","1","Y","L","S","lightshift","",""
"","","","","","html-slider-response","98","272995","0.0-94.0","v77apdsvtf","3","NaN","<div style=""width:500px;"">
                            <p style=""font-size:50px; font-weight:bold;""
                            >negative</p>
                            <div style=""width:240px; margin: auto;"">
                                <img src=""images/R_D_U_15_darkshift.png"" style= ""width:200px""alt=""img"">
                            </div>
                        </div>","154","","0","images/R_D_U_15_darkshift.png","","","","negative","2","R","D","U","darkshift","",""
"","","","","","html-slider-response","99","275801","0.0-95.0","v77apdsvtf","3","NaN","<div style=""width:500px;"">
                            <p style=""font-size:50px; font-weight:bold;""
                            >negative</p>
                            <div style=""width:240px; margin: auto;"">
                                <img src=""images/B_D_S_37_lightshift.png"" style= ""width:200px""alt=""img"">
                            </div>
                        </div>","170","","0","images/B_D_S_37_lightshift.png","","","","negative","1","B","D","S","lightshift","",""
"","","","","","html-slider-response","100","277140","0.0-96.0","v77apdsvtf","3","NaN","<div style=""width:500px;"">
                            <p style=""font-size:50px; font-weight:bold;""
                            >negative</p>
                            <div style=""width:240px; margin: auto;"">
                                <img src=""images/Y_D_S_5_lightshift.png"" style= ""width:200px""alt=""img"">
                            </div>
                        </div>","170","","0","images/Y_D_S_5_lightshift.png","","","","negative","1","Y","D","S","lightshift","",""
"","","","","","html-slider-response","101","278582","0.0-97.0","v77apdsvtf","3","NaN","<div style=""width:500px;"">
                            <p style=""font-size:50px; font-weight:bold;""
                            >negative</p>
                            <div style=""width:240px; margin: auto;"">
                                <img src=""images/R_D_S_13_darkshift.png"" style= ""width:200px""alt=""img"">
                            </div>
                        </div>","196","","0","images/R_D_S_13_darkshift.png","","","","negative","2","R","D","S","darkshift","",""
"","","","","","html-slider-response","102","282500","0.0-98.0","v77apdsvtf","3","NaN","<div style=""width:500px;"">
                            <p style=""font-size:50px; font-weight:bold;""
                            >negative</p>
                            <div style=""width:240px; margin: auto;"">
                                <img src=""images/R_D_S_13_lightshift.png"" style= ""width:200px""alt=""img"">
                            </div>
                        </div>","-66","","0","images/R_D_S_13_lightshift.png","","","","negative","2","R","D","S","lightshift","",""
"","","","","","html-slider-response","103","284459","0.0-99.0","v77apdsvtf","3","NaN","<div style=""width:500px;"">
                            <p style=""font-size:50px; font-weight:bold;""
                            >negative</p>
                            <div style=""width:240px; margin: auto;"">
                                <img src=""images/G_D_U_28_lightshift.png"" style= ""width:200px""alt=""img"">
                            </div>
                        </div>","182","","0","images/G_D_U_28_lightshift.png","","","","negative","2","G","D","U","lightshift","",""
"","","","","","html-slider-response","104","288554","0.0-100.0","v77apdsvtf","3","NaN","<div style=""width:500px;"">
                            <p style=""font-size:50px; font-weight:bold;""
                            >negative</p>
                            <div style=""width:240px; margin: auto;"">
                                <img src=""images/R_D_U_15_lightshift.png"" style= ""width:200px""alt=""img"">
                            </div>
                        </div>","182","","0","images/R_D_U_15_lightshift.png","","","","negative","2","R","D","U","lightshift","",""
"","","","","","html-slider-response","105","289727","0.0-101.0","v77apdsvtf","3","NaN","<div style=""width:500px;"">
                            <p style=""font-size:50px; font-weight:bold;""
                            >negative</p>
                            <div style=""width:240px; margin: auto;"">
                                <img src=""images/G_D_U_28_darkshift.png"" style= ""width:200px""alt=""img"">
                            </div>
                        </div>","182","","0","images/G_D_U_28_darkshift.png","","","","negative","2","G","D","U","darkshift","",""
"","","","","","html-slider-response","106","292468","0.0-102.0","v77apdsvtf","3","NaN","<div style=""width:500px;"">
                            <p style=""font-size:50px; font-weight:bold;""
                            >negative</p>
                            <div style=""width:240px; margin: auto;"">
                                <img src=""images/B_L_U_33_darkshift.png"" style= ""width:200px""alt=""img"">
                            </div>
                        </div>","78","","0","images/B_L_U_33_darkshift.png","","","","negative","2","B","L","U","darkshift","",""
"","","","","","html-slider-response","107","295084","0.0-103.0","v77apdsvtf","3","NaN","<div style=""width:500px;"">
                            <p style=""font-size:50px; font-weight:bold;""
                            >negative</p>
                            <div style=""width:240px; margin: auto;"">
                                <img src=""images/R_L_U_12_darkshift.png"" style= ""width:200px""alt=""img"">
                            </div>
                        </div>","180","","0","images/R_L_U_12_darkshift.png","","","","negative","2","R","L","U","darkshift","",""
"","","","","","html-slider-response","108","296249","0.0-104.0","v77apdsvtf","3","NaN","<div style=""width:500px;"">
                            <p style=""font-size:50px; font-weight:bold;""
                            >negative</p>
                            <div style=""width:240px; margin: auto;"">
                                <img src=""images/R_L_U_12_darkshift.png"" style= ""width:200px""alt=""img"">
                            </div>
                        </div>","180","","0","images/R_L_U_12_darkshift.png","","","","negative","1","R","L","U","darkshift","",""
"","","","","","html-slider-response","109","298612","0.0-105.0","v77apdsvtf","3","NaN","<div style=""width:500px;"">
                            <p style=""font-size:50px; font-weight:bold;""
                            >negative</p>
                            <div style=""width:240px; margin: auto;"">
                                <img src=""images/G_L_U_26_darkshift.png"" style= ""width:200px""alt=""img"">
                            </div>
                        </div>","187","","0","images/G_L_U_26_darkshift.png","","","","negative","1","G","L","U","darkshift","",""
"","","","","","html-slider-response","110","299834","0.0-106.0","v77apdsvtf","3","NaN","<div style=""width:500px;"">
                            <p style=""font-size:50px; font-weight:bold;""
                            >negative</p>
                            <div style=""width:240px; margin: auto;"">
                                <img src=""images/B_D_U_41_darkshift.png"" style= ""width:200px""alt=""img"">
                            </div>
                        </div>","187","","0","images/B_D_U_41_darkshift.png","","","","negative","1","B","D","U","darkshift","",""
"","","","","","html-slider-response","111","301951","0.0-107.0","v77apdsvtf","3","NaN","<div style=""width:500px;"">
                            <p style=""font-size:50px; font-weight:bold;""
                            >negative</p>
                            <div style=""width:240px; margin: auto;"">
                                <img src=""images/Y_L_U_2_darkshift.png"" style= ""width:200px""alt=""img"">
                            </div>
                        </div>","60","","0","images/Y_L_U_2_darkshift.png","","","","negative","1","Y","L","U","darkshift","",""
"","","","","","html-slider-response","112","303926","0.0-108.0","v77apdsvtf","3","NaN","<div style=""width:500px;"">
                            <p style=""font-size:50px; font-weight:bold;""
                            >negative</p>
                            <div style=""width:240px; margin: auto;"">
                                <img src=""images/R_L_S_10_darkshift.png"" style= ""width:200px""alt=""img"">
                            </div>
                        </div>","-123","","0","images/R_L_S_10_darkshift.png","","","","negative","1","R","L","S","darkshift","",""
"","","","","","html-slider-response","113","305306","0.0-109.0","v77apdsvtf","3","NaN","<div style=""width:500px;"">
                            <p style=""font-size:50px; font-weight:bold;""
                            >negative</p>
                            <div style=""width:240px; margin: auto;"">
                                <img src=""images/R_L_U_12_lightshift.png"" style= ""width:200px""alt=""img"">
                            </div>
                        </div>","-144","","0","images/R_L_U_12_lightshift.png","","","","negative","2","R","L","U","lightshift","",""
"","","","","","html-slider-response","114","307061","0.0-110.0","v77apdsvtf","3","NaN","<div style=""width:500px;"">
                            <p style=""font-size:50px; font-weight:bold;""
                            >negative</p>
                            <div style=""width:240px; margin: auto;"">
                                <img src=""images/Y_D_U_7_darkshift.png"" style= ""width:200px""alt=""img"">
                            </div>
                        </div>","184","","0","images/Y_D_U_7_darkshift.png","","","","negative","2","Y","D","U","darkshift","",""
"","","","","","html-slider-response","115","308736","0.0-111.0","v77apdsvtf","3","NaN","<div style=""width:500px;"">
                            <p style=""font-size:50px; font-weight:bold;""
                            >negative</p>
                            <div style=""width:240px; margin: auto;"">
                                <img src=""images/R_L_S_10_lightshift.png"" style= ""width:200px""alt=""img"">
                            </div>
                        </div>","-69","","0","images/R_L_S_10_lightshift.png","","","","negative","1","R","L","S","lightshift","",""
"","","","","","html-slider-response","116","310531","0.0-112.0","v77apdsvtf","3","NaN","<div style=""width:500px;"">
                            <p style=""font-size:50px; font-weight:bold;""
                            >negative</p>
                            <div style=""width:240px; margin: auto;"">
                                <img src=""images/Y_D_S_5_darkshift.png"" style= ""width:200px""alt=""img"">
                            </div>
                        </div>","165","","0","images/Y_D_S_5_darkshift.png","","","","negative","2","Y","D","S","darkshift","",""
"","","","","","html-slider-response","117","312181","0.0-113.0","v77apdsvtf","3","NaN","<div style=""width:500px;"">
                            <p style=""font-size:50px; font-weight:bold;""
                            >negative</p>
                            <div style=""width:240px; margin: auto;"">
                                <img src=""images/B_D_U_41_darkshift.png"" style= ""width:200px""alt=""img"">
                            </div>
                        </div>","181","","0","images/B_D_U_41_darkshift.png","","","","negative","2","B","D","U","darkshift","",""
"","","","","","html-slider-response","118","314765","0.0-114.0","v77apdsvtf","3","NaN","<div style=""width:500px;"">
                            <p style=""font-size:50px; font-weight:bold;""
                            >negative</p>
                            <div style=""width:240px; margin: auto;"">
                                <img src=""images/Y_L_U_2_lightshift.png"" style= ""width:200px""alt=""img"">
                            </div>
                        </div>","-42","","0","images/Y_L_U_2_lightshift.png","","","","negative","2","Y","L","U","lightshift","",""
"","","","","","html-slider-response","119","316817","0.0-115.0","v77apdsvtf","3","NaN","<div style=""width:500px;"">
                            <p style=""font-size:50px; font-weight:bold;""
                            >negative</p>
                            <div style=""width:240px; margin: auto;"">
                                <img src=""images/B_D_S_37_darkshift.png"" style= ""width:200px""alt=""img"">
                            </div>
                        </div>","75","","0","images/B_D_S_37_darkshift.png","","","","negative","2","B","D","S","darkshift","",""
"","","","","","html-slider-response","120","318334","0.0-116.0","v77apdsvtf","3","NaN","<div style=""width:500px;"">
                            <p style=""font-size:50px; font-weight:bold;""
                            >negative</p>
                            <div style=""width:240px; margin: auto;"">
                                <img src=""images/B_L_S_30_lightshift.png"" style= ""width:200px""alt=""img"">
                            </div>
                        </div>","94","","0","images/B_L_S_30_lightshift.png","","","","negative","1","B","L","S","lightshift","",""
"","","","","","html-slider-response","121","320444","0.0-117.0","v77apdsvtf","3","NaN","<div style=""width:500px;"">
                            <p style=""font-size:50px; font-weight:bold;""
                            >negative</p>
                            <div style=""width:240px; margin: auto;"">
                                <img src=""images/Y_D_S_5_lightshift.png"" style= ""width:200px""alt=""img"">
                            </div>
                        </div>","182","","0","images/Y_D_S_5_lightshift.png","","","","negative","2","Y","D","S","lightshift","",""
"","","","","","html-slider-response","122","323084","0.0-118.0","v77apdsvtf","3","NaN","<div style=""width:500px;"">
                            <p style=""font-size:50px; font-weight:bold;""
                            >negative</p>
                            <div style=""width:240px; margin: auto;"">
                                <img src=""images/G_L_U_26_lightshift.png"" style= ""width:200px""alt=""img"">
                            </div>
                        </div>","-94","","0","images/G_L_U_26_lightshift.png","","","","negative","1","G","L","U","lightshift","",""
"","","","","","html-slider-response","123","324659","0.0-119.0","v77apdsvtf","3","NaN","<div style=""width:500px;"">
                            <p style=""font-size:50px; font-weight:bold;""
                            >negative</p>
                            <div style=""width:240px; margin: auto;"">
                                <img src=""images/Y_L_U_2_lightshift.png"" style= ""width:200px""alt=""img"">
                            </div>
                        </div>","-142","","0","images/Y_L_U_2_lightshift.png","","","","negative","1","Y","L","U","lightshift","",""
"","","","","","html-slider-response","124","327063","0.0-120.0","v77apdsvtf","3","NaN","<div style=""width:500px;"">
                            <p style=""font-size:50px; font-weight:bold;""
                            >negative</p>
                            <div style=""width:240px; margin: auto;"">
                                <img src=""images/B_L_U_33_darkshift.png"" style= ""width:200px""alt=""img"">
                            </div>
                        </div>","-170","","0","images/B_L_U_33_darkshift.png","","","","negative","1","B","L","U","darkshift","",""
"","","","","","html-slider-response","125","329032","0.0-121.0","v77apdsvtf","3","NaN","<div style=""width:500px;"">
                            <p style=""font-size:50px; font-weight:bold;""
                            >negative</p>
                            <div style=""width:240px; margin: auto;"">
                                <img src=""images/Y_L_S_44_darkshift.png"" style= ""width:200px""alt=""img"">
                            </div>
                        </div>","50","","0","images/Y_L_S_44_darkshift.png","","","","negative","2","Y","L","S","darkshift","",""
"","","","","","html-slider-response","126","331575","0.0-122.0","v77apdsvtf","3","NaN","<div style=""width:500px;"">
                            <p style=""font-size:50px; font-weight:bold;""
                            >negative</p>
                            <div style=""width:240px; margin: auto;"">
                                <img src=""images/G_L_S_23_lightshift.png"" style= ""width:200px""alt=""img"">
                            </div>
                        </div>","-23","","0","images/G_L_S_23_lightshift.png","","","","negative","1","G","L","S","lightshift","",""
"","","","","","html-slider-response","127","334069","0.0-123.0","v77apdsvtf","3","NaN","<div style=""width:500px;"">
                            <p style=""font-size:50px; font-weight:bold;""
                            >negative</p>
                            <div style=""width:240px; margin: auto;"">
                                <img src=""images/B_D_U_41_lightshift.png"" style= ""width:200px""alt=""img"">
                            </div>
                        </div>","169","","0","images/B_D_U_41_lightshift.png","","","","negative","1","B","D","U","lightshift","",""
"","","","","","html-slider-response","128","335423","0.0-124.0","v77apdsvtf","3","NaN","<div style=""width:500px;"">
                            <p style=""font-size:50px; font-weight:bold;""
                            >negative</p>
                            <div style=""width:240px; margin: auto;"">
                                <img src=""images/Y_D_S_5_darkshift.png"" style= ""width:200px""alt=""img"">
                            </div>
                        </div>","181","","0","images/Y_D_S_5_darkshift.png","","","","negative","1","Y","D","S","darkshift","",""
"","","","","","html-slider-response","129","337396","0.0-125.0","v77apdsvtf","3","NaN","<div style=""width:500px;"">
                            <p style=""font-size:50px; font-weight:bold;""
                            >negative</p>
                            <div style=""width:240px; margin: auto;"">
                                <img src=""images/B_L_U_33_lightshift.png"" style= ""width:200px""alt=""img"">
                            </div>
                        </div>","43","","0","images/B_L_U_33_lightshift.png","","","","negative","1","B","L","U","lightshift","",""
"","","","","","html-slider-response","130","339628","0.0-126.0","v77apdsvtf","3","NaN","<div style=""width:500px;"">
                            <p style=""font-size:50px; font-weight:bold;""
                            >negative</p>
                            <div style=""width:240px; margin: auto;"">
                                <img src=""images/R_D_S_13_darkshift.png"" style= ""width:200px""alt=""img"">
                            </div>
                        </div>","173","","0","images/R_D_S_13_darkshift.png","","","","negative","1","R","D","S","darkshift","",""
"","","","","","html-slider-response","131","342261","0.0-127.0","v77apdsvtf","3","NaN","<div style=""width:500px;"">
                            <p style=""font-size:50px; font-weight:bold;""
                            >negative</p>
                            <div style=""width:240px; margin: auto;"">
                                <img src=""images/G_L_S_23_darkshift.png"" style= ""width:200px""alt=""img"">
                            </div>
                        </div>","57","","0","images/G_L_S_23_darkshift.png","","","","negative","1","G","L","S","darkshift","",""
"","","","","","html-slider-response","132","344623","0.0-128.0","v77apdsvtf","3","NaN","<div style=""width:500px;"">
                            <p style=""font-size:50px; font-weight:bold;""
                            >negative</p>
                            <div style=""width:240px; margin: auto;"">
                                <img src=""images/G_D_S_27_lightshift.png"" style= ""width:200px""alt=""img"">
                            </div>
                        </div>","172","","0","images/G_D_S_27_lightshift.png","","","","negative","2","G","D","S","lightshift","",""
"","","","","","html-slider-response","133","347274","0.0-129.0","v77apdsvtf","3","NaN","<div style=""width:500px;"">
                            <p style=""font-size:50px; font-weight:bold;""
                            >negative</p>
                            <div style=""width:240px; margin: auto;"">
                                <img src=""images/R_D_S_13_lightshift.png"" style= ""width:200px""alt=""img"">
                            </div>
                        </div>","-32","","0","images/R_D_S_13_lightshift.png","","","","negative","1","R","D","S","lightshift","",""
"","","","","","html-slider-response","134","349030","0.0-130.0","v77apdsvtf","3","NaN","<div style=""width:500px;"">
                            <p style=""font-size:50px; font-weight:bold;""
                            >negative</p>
                            <div style=""width:240px; margin: auto;"">
                                <img src=""images/G_D_S_27_darkshift.png"" style= ""width:200px""alt=""img"">
                            </div>
                        </div>","186","","0","images/G_D_S_27_darkshift.png","","","","negative","1","G","D","S","darkshift","",""
"","","","","","html-slider-response","135","351376","0.0-131.0","v77apdsvtf","3","NaN","<div style=""width:500px;"">
                            <p style=""font-size:50px; font-weight:bold;""
                            >negative</p>
                            <div style=""width:240px; margin: auto;"">
                                <img src=""images/B_L_S_30_darkshift.png"" style= ""width:200px""alt=""img"">
                            </div>
                        </div>","53","","0","images/B_L_S_30_darkshift.png","","","","negative","2","B","L","S","darkshift","",""
"","","","","","html-slider-response","136","353320","0.0-132.0","v77apdsvtf","3","NaN","<div style=""width:500px;"">
                            <p style=""font-size:50px; font-weight:bold;""
                            >negative</p>
                            <div style=""width:240px; margin: auto;"">
                                <img src=""images/R_L_S_10_darkshift.png"" style= ""width:200px""alt=""img"">
                            </div>
                        </div>","-136","","0","images/R_L_S_10_darkshift.png","","","","negative","2","R","L","S","darkshift","",""
"","","","","","html-slider-response","137","355897","0.0-133.0","v77apdsvtf","3","NaN","<div style=""width:500px;"">
                            <p style=""font-size:50px; font-weight:bold;""
                            >negative</p>
                            <div style=""width:240px; margin: auto;"">
                                <img src=""images/G_L_S_23_lightshift.png"" style= ""width:200px""alt=""img"">
                            </div>
                        </div>","90","","0","images/G_L_S_23_lightshift.png","","","","negative","2","G","L","S","lightshift","",""
"","","","","","html-slider-response","138","357774","0.0-134.0","v77apdsvtf","3","NaN","<div style=""width:500px;"">
                            <p style=""font-size:50px; font-weight:bold;""
                            >negative</p>
                            <div style=""width:240px; margin: auto;"">
                                <img src=""images/B_L_S_30_lightshift.png"" style= ""width:200px""alt=""img"">
                            </div>
                        </div>","-51","","0","images/B_L_S_30_lightshift.png","","","","negative","2","B","L","S","lightshift","",""
"","","","","","html-slider-response","139","359631","0.0-135.0","v77apdsvtf","3","NaN","<div style=""width:500px;"">
                            <p style=""font-size:50px; font-weight:bold;""
                            >negative</p>
                            <div style=""width:240px; margin: auto;"">
                                <img src=""images/Y_D_U_7_lightshift.png"" style= ""width:200px""alt=""img"">
                            </div>
                        </div>","195","","0","images/Y_D_U_7_lightshift.png","","","","negative","2","Y","D","U","lightshift","",""
"","","","","","html-slider-response","140","361188","0.0-136.0","v77apdsvtf","3","NaN","<div style=""width:500px;"">
                            <p style=""font-size:50px; font-weight:bold;""
                            >negative</p>
                            <div style=""width:240px; margin: auto;"">
                                <img src=""images/B_D_U_41_lightshift.png"" style= ""width:200px""alt=""img"">
                            </div>
                        </div>","191","","0","images/B_D_U_41_lightshift.png","","","","negative","2","B","D","U","lightshift","",""
"","","","","","html-slider-response","141","362280","0.0-137.0","v77apdsvtf","3","NaN","<div style=""width:500px;"">
                            <p style=""font-size:50px; font-weight:bold;""
                            >negative</p>
                            <div style=""width:240px; margin: auto;"">
                                <img src=""images/G_D_U_28_lightshift.png"" style= ""width:200px""alt=""img"">
                            </div>
                        </div>","191","","0","images/G_D_U_28_lightshift.png","","","","negative","1","G","D","U","lightshift","",""
"","","","","","html-slider-response","142","363477","0.0-138.0","v77apdsvtf","3","NaN","<div style=""width:500px;"">
                            <p style=""font-size:50px; font-weight:bold;""
                            >negative</p>
                            <div style=""width:240px; margin: auto;"">
                                <img src=""images/R_D_U_15_darkshift.png"" style= ""width:200px""alt=""img"">
                            </div>
                        </div>","191","","0","images/R_D_U_15_darkshift.png","","","","negative","1","R","D","U","darkshift","",""
"","","","","","html-slider-response","143","364617","0.0-139.0","v77apdsvtf","3","NaN","<div style=""width:500px;"">
                            <p style=""font-size:50px; font-weight:bold;""
                            >negative</p>
                            <div style=""width:240px; margin: auto;"">
                                <img src=""images/R_D_U_15_lightshift.png"" style= ""width:200px""alt=""img"">
                            </div>
                        </div>","191","","0","images/R_D_U_15_lightshift.png","","","","negative","1","R","D","U","lightshift","",""
"","","","","","html-slider-response","144","367537","0.0-140.0","v77apdsvtf","3","NaN","<div style=""width:500px;"">
                            <p style=""font-size:50px; font-weight:bold;""
                            >negative</p>
                            <div style=""width:240px; margin: auto;"">
                                <img src=""images/B_L_U_33_lightshift.png"" style= ""width:200px""alt=""img"">
                            </div>
                        </div>","-54","","0","images/B_L_U_33_lightshift.png","","","","negative","2","B","L","U","lightshift","",""
"","","","","","html-slider-response","145","369425","0.0-141.0","v77apdsvtf","3","NaN","<div style=""width:500px;"">
                            <p style=""font-size:50px; font-weight:bold;""
                            >negative</p>
                            <div style=""width:240px; margin: auto;"">
                                <img src=""images/G_L_U_26_lightshift.png"" style= ""width:200px""alt=""img"">
                            </div>
                        </div>","38","","0","images/G_L_U_26_lightshift.png","","","","negative","2","G","L","U","lightshift","",""
"","","","","","html-slider-response","146","373248","0.0-142.0","v77apdsvtf","3","NaN","<div style=""width:500px;"">
                            <p style=""font-size:50px; font-weight:bold;""
                            >negative</p>
                            <div style=""width:240px; margin: auto;"">
                                <img src=""images/B_D_S_37_darkshift.png"" style= ""width:200px""alt=""img"">
                            </div>
                        </div>","175","","0","images/B_D_S_37_darkshift.png","","","","negative","1","B","D","S","darkshift","",""
"","","","","","html-slider-response","147","374815","0.0-143.0","v77apdsvtf","3","NaN","<div style=""width:500px;"">
                            <p style=""font-size:50px; font-weight:bold;""
                            >negative</p>
                            <div style=""width:240px; margin: auto;"">
                                <img src=""images/B_D_S_37_lightshift.png"" style= ""width:200px""alt=""img"">
                            </div>
                        </div>","173","","0","images/B_D_S_37_lightshift.png","","","","negative","2","B","D","S","lightshift","",""
"","","","","","html-button-response","148","376488","0.0-144.0","v77apdsvtf","3","1172","<p>Great Job! You've finished block 2.<br></br> You have 2 block(s) left to go.<br></br></p>","0","","","","","","","","","","","","","",""
"","","","","","html-button-response","149","381252","0.0-145.0","v77apdsvtf","3","4763","<p>In this block of trials, you will be asked to rate how much you associate each map with:</p > <p style = 'font-size:150%; font-weight: bold'>startling</p><br></br>","0","","","","","","","","","","","","","",""
"","","","","","html-slider-response","150","383503","0.0-146.0","v77apdsvtf","3","NaN","<div style=""width:500px;"">
                            <p style=""font-size:50px; font-weight:bold;""
                            >startling</p>
                            <div style=""width:240px; margin: auto;"">
                                <img src=""images/Y_L_S_44_darkshift.png"" style= ""width:200px""alt=""img"">
                            </div>
                        </div>","133","","0","images/Y_L_S_44_darkshift.png","","","","startling","1","Y","L","S","darkshift","",""
"","","","","","html-slider-response","151","390754","0.0-147.0","v77apdsvtf","3","NaN","<div style=""width:500px;"">
                            <p style=""font-size:50px; font-weight:bold;""
                            >startling</p>
                            <div style=""width:240px; margin: auto;"">
                                <img src=""images/G_L_S_23_lightshift.png"" style= ""width:200px""alt=""img"">
                            </div>
                        </div>","-132","","0","images/G_L_S_23_lightshift.png","","","","startling","1","G","L","S","lightshift","",""
"","","","","","html-slider-response","152","392560","0.0-148.0","v77apdsvtf","3","NaN","<div style=""width:500px;"">
                            <p style=""font-size:50px; font-weight:bold;""
                            >startling</p>
                            <div style=""width:240px; margin: auto;"">
                                <img src=""images/Y_L_S_44_darkshift.png"" style= ""width:200px""alt=""img"">
                            </div>
                        </div>","134","","0","images/Y_L_S_44_darkshift.png","","","","startling","2","Y","L","S","darkshift","",""
"","","","","","html-slider-response","153","395104","0.0-149.0","v77apdsvtf","3","NaN","<div style=""width:500px;"">
                            <p style=""font-size:50px; font-weight:bold;""
                            >startling</p>
                            <div style=""width:240px; margin: auto;"">
                                <img src=""images/R_D_U_15_lightshift.png"" style= ""width:200px""alt=""img"">
                            </div>
                        </div>","-141","","0","images/R_D_U_15_lightshift.png","","","","startling","2","R","D","U","lightshift","",""
"","","","","","html-slider-response","154","397031","0.0-150.0","v77apdsvtf","3","NaN","<div style=""width:500px;"">
                            <p style=""font-size:50px; font-weight:bold;""
                            >startling</p>
                            <div style=""width:240px; margin: auto;"">
                                <img src=""images/Y_L_U_2_lightshift.png"" style= ""width:200px""alt=""img"">
                            </div>
                        </div>","178","","0","images/Y_L_U_2_lightshift.png","","","","startling","1","Y","L","U","lightshift","",""
"","","","","","html-slider-response","155","398688","0.0-151.0","v77apdsvtf","3","NaN","<div style=""width:500px;"">
                            <p style=""font-size:50px; font-weight:bold;""
                            >startling</p>
                            <div style=""width:240px; margin: auto;"">
                                <img src=""images/Y_D_S_5_darkshift.png"" style= ""width:200px""alt=""img"">
                            </div>
                        </div>","-189","","0","images/Y_D_S_5_darkshift.png","","","","startling","2","Y","D","S","darkshift","",""
"","","","","","html-slider-response","156","401560","0.0-152.0","v77apdsvtf","3","NaN","<div style=""width:500px;"">
                            <p style=""font-size:50px; font-weight:bold;""
                            >startling</p>
                            <div style=""width:240px; margin: auto;"">
                                <img src=""images/G_L_U_26_darkshift.png"" style= ""width:200px""alt=""img"">
                            </div>
                        </div>","183","","0","images/G_L_U_26_darkshift.png","","","","startling","2","G","L","U","darkshift","",""
"","","","","","html-slider-response","157","402725","0.0-153.0","v77apdsvtf","3","NaN","<div style=""width:500px;"">
                            <p style=""font-size:50px; font-weight:bold;""
                            >startling</p>
                            <div style=""width:240px; margin: auto;"">
                                <img src=""images/G_L_U_26_darkshift.png"" style= ""width:200px""alt=""img"">
                            </div>
                        </div>","183","","0","images/G_L_U_26_darkshift.png","","","","startling","1","G","L","U","darkshift","",""
"","","","","","html-slider-response","158","404506","0.0-154.0","v77apdsvtf","3","NaN","<div style=""width:500px;"">
                            <p style=""font-size:50px; font-weight:bold;""
                            >startling</p>
                            <div style=""width:240px; margin: auto;"">
                                <img src=""images/R_L_S_10_darkshift.png"" style= ""width:200px""alt=""img"">
                            </div>
                        </div>","167","","0","images/R_L_S_10_darkshift.png","","","","startling","2","R","L","S","darkshift","",""
"","","","","","html-slider-response","159","406901","0.0-155.0","v77apdsvtf","3","NaN","<div style=""width:500px;"">
                            <p style=""font-size:50px; font-weight:bold;""
                            >startling</p>
                            <div style=""width:240px; margin: auto;"">
                                <img src=""images/R_L_U_12_darkshift.png"" style= ""width:200px""alt=""img"">
                            </div>
                        </div>","-71","","0","images/R_L_U_12_darkshift.png","","","","startling","2","R","L","U","darkshift","",""
"","","","","","html-slider-response","160","408927","0.0-156.0","v77apdsvtf","3","NaN","<div style=""width:500px;"">
                            <p style=""font-size:50px; font-weight:bold;""
                            >startling</p>
                            <div style=""width:240px; margin: auto;"">
                                <img src=""images/B_L_U_33_lightshift.png"" style= ""width:200px""alt=""img"">
                            </div>
                        </div>","139","","0","images/B_L_U_33_lightshift.png","","","","startling","1","B","L","U","lightshift","",""
"","","","","","html-slider-response","161","410789","0.0-157.0","v77apdsvtf","3","NaN","<div style=""width:500px;"">
                            <p style=""font-size:50px; font-weight:bold;""
                            >startling</p>
                            <div style=""width:240px; margin: auto;"">
                                <img src=""images/B_D_S_37_lightshift.png"" style= ""width:200px""alt=""img"">
                            </div>
                        </div>","-164","","0","images/B_D_S_37_lightshift.png","","","","startling","1","B","D","S","lightshift","",""
"","","","","","html-slider-response","162","411782","0.0-158.0","v77apdsvtf","3","NaN","<div style=""width:500px;"">
                            <p style=""font-size:50px; font-weight:bold;""
                            >startling</p>
                            <div style=""width:240px; margin: auto;"">
                                <img src=""images/Y_D_S_5_darkshift.png"" style= ""width:200px""alt=""img"">
                            </div>
                        </div>","-164","","0","images/Y_D_S_5_darkshift.png","","","","startling","1","Y","D","S","darkshift","",""
"","","","","","html-slider-response","163","413783","0.0-159.0","v77apdsvtf","3","NaN","<div style=""width:500px;"">
                            <p style=""font-size:50px; font-weight:bold;""
                            >startling</p>
                            <div style=""width:240px; margin: auto;"">
                                <img src=""images/G_L_S_23_darkshift.png"" style= ""width:200px""alt=""img"">
                            </div>
                        </div>","83","","0","images/G_L_S_23_darkshift.png","","","","startling","2","G","L","S","darkshift","",""
"","","","","","html-slider-response","164","415482","0.0-160.0","v77apdsvtf","3","NaN","<div style=""width:500px;"">
                            <p style=""font-size:50px; font-weight:bold;""
                            >startling</p>
                            <div style=""width:240px; margin: auto;"">
                                <img src=""images/R_D_U_15_darkshift.png"" style= ""width:200px""alt=""img"">
                            </div>
                        </div>","-153","","0","images/R_D_U_15_darkshift.png","","","","startling","2","R","D","U","darkshift","",""
"","","","","","html-slider-response","165","417426","0.0-161.0","v77apdsvtf","3","NaN","<div style=""width:500px;"">
                            <p style=""font-size:50px; font-weight:bold;""
                            >startling</p>
                            <div style=""width:240px; margin: auto;"">
                                <img src=""images/Y_L_S_44_lightshift.png"" style= ""width:200px""alt=""img"">
                            </div>
                        </div>","147","","0","images/Y_L_S_44_lightshift.png","","","","startling","2","Y","L","S","lightshift","",""
"","","","","","html-slider-response","166","419379","0.0-162.0","v77apdsvtf","3","NaN","<div style=""width:500px;"">
                            <p style=""font-size:50px; font-weight:bold;""
                            >startling</p>
                            <div style=""width:240px; margin: auto;"">
                                <img src=""images/R_D_S_13_darkshift.png"" style= ""width:200px""alt=""img"">
                            </div>
                        </div>","-175","","0","images/R_D_S_13_darkshift.png","","","","startling","2","R","D","S","darkshift","",""
"","","","","","html-slider-response","167","421323","0.0-163.0","v77apdsvtf","3","NaN","<div style=""width:500px;"">
                            <p style=""font-size:50px; font-weight:bold;""
                            >startling</p>
                            <div style=""width:240px; margin: auto;"">
                                <img src=""images/G_L_U_26_lightshift.png"" style= ""width:200px""alt=""img"">
                            </div>
                        </div>","187","","0","images/G_L_U_26_lightshift.png","","","","startling","2","G","L","U","lightshift","",""
"","","","","","html-slider-response","168","422652","0.0-164.0","v77apdsvtf","3","NaN","<div style=""width:500px;"">
                            <p style=""font-size:50px; font-weight:bold;""
                            >startling</p>
                            <div style=""width:240px; margin: auto;"">
                                <img src=""images/Y_L_U_2_lightshift.png"" style= ""width:200px""alt=""img"">
                            </div>
                        </div>","181","","0","images/Y_L_U_2_lightshift.png","","","","startling","2","Y","L","U","lightshift","",""
"","","","","","html-slider-response","169","423801","0.0-165.0","v77apdsvtf","3","NaN","<div style=""width:500px;"">
                            <p style=""font-size:50px; font-weight:bold;""
                            >startling</p>
                            <div style=""width:240px; margin: auto;"">
                                <img src=""images/Y_L_U_2_darkshift.png"" style= ""width:200px""alt=""img"">
                            </div>
                        </div>","181","","0","images/Y_L_U_2_darkshift.png","","","","startling","1","Y","L","U","darkshift","",""
"","","","","","html-slider-response","170","425647","0.0-166.0","v77apdsvtf","3","NaN","<div style=""width:500px;"">
                            <p style=""font-size:50px; font-weight:bold;""
                            >startling</p>
                            <div style=""width:240px; margin: auto;"">
                                <img src=""images/R_D_S_13_lightshift.png"" style= ""width:200px""alt=""img"">
                            </div>
                        </div>","-111","","0","images/R_D_S_13_lightshift.png","","","","startling","1","R","D","S","lightshift","",""
"","","","","","html-slider-response","171","426983","0.0-167.0","v77apdsvtf","3","NaN","<div style=""width:500px;"">
                            <p style=""font-size:50px; font-weight:bold;""
                            >startling</p>
                            <div style=""width:240px; margin: auto;"">
                                <img src=""images/Y_D_U_7_darkshift.png"" style= ""width:200px""alt=""img"">
                            </div>
                        </div>","-188","","0","images/Y_D_U_7_darkshift.png","","","","startling","2","Y","D","U","darkshift","",""
"","","","","","html-slider-response","172","428132","0.0-168.0","v77apdsvtf","3","NaN","<div style=""width:500px;"">
                            <p style=""font-size:50px; font-weight:bold;""
                            >startling</p>
                            <div style=""width:240px; margin: auto;"">
                                <img src=""images/Y_D_S_5_lightshift.png"" style= ""width:200px""alt=""img"">
                            </div>
                        </div>","-188","","0","images/Y_D_S_5_lightshift.png","","","","startling","2","Y","D","S","lightshift","",""
"","","","","","html-slider-response","173","429929","0.0-169.0","v77apdsvtf","3","NaN","<div style=""width:500px;"">
                            <p style=""font-size:50px; font-weight:bold;""
                            >startling</p>
                            <div style=""width:240px; margin: auto;"">
                                <img src=""images/B_L_U_33_darkshift.png"" style= ""width:200px""alt=""img"">
                            </div>
                        </div>","134","","0","images/B_L_U_33_darkshift.png","","","","startling","1","B","L","U","darkshift","",""
