"success","timeout","failed_images","failed_audio","failed_video","trial_type","trial_index","time_elapsed","internal_node_id","subject_id","condition_num","rt","stimulus","response","question_order","slider_start","image_path","practiceTrial","practiceTrialNum","correct","concept","repetition","hue","lightness","saturation","shift","ishihara_plate","correct_response"
"true","false","[]","[]","[]","preload","0","377","0.0-0.0","wl5jbltu2w","1","","","","","","","","","","","","","","","","",""
"","","","","","html-button-response","1","1555","0.0-1.0","wl5jbltu2w","1","1177","Welcome to our experiment!<p>At the bottom of this screen, you will see a button that says ""Begin Experiment"".<br>Please only click that button when you are ready to complete the 25 minute experiment in one sitting.</p><p> Once you click that button, it will not be possible to restart the experiment.","0","","","","","","","","","","","","","",""
"true","","","","","fullscreen","2","3751","0.0-2.0","wl5jbltu2w","1","1195","","","","","","","","","","","","","","","",""
"","","","","","survey-multi-select","3","43282","0.0-3.0","wl5jbltu2w","1","39530","","{""Consent"":[""<strong>I consent</strong>""]}","[0]","","","","","","","","","","","","",""
"","","","","","html-button-response","4","44254","0.0-4.0","wl5jbltu2w","1","971","Welcome! <p> This experiment involves two parts: demographic information, followed by the experimental task.<p> It will take about 25 minutes to complete both parts.","0","","","","","","","","","","","","","",""
"","","","","","survey-text","5","72899","0.0-5.0","wl5jbltu2w","1","28639","","{""Age"":""18"",""Gender"":""Female"",""Race/ethnicity"":""White"",""Languages"":""Spanish and French (not fluent)""}","","","","","","","","","","","","","",""
"","","","","","html-slider-response","6","147644","0.0-6.0","wl5jbltu2w","1","74746","
                            <div style='text-align:left; font-size:20px; line-height:25px; width: 1400px;'>
                                During this experiment you will be asked to rate how much you associate maps with                    different concepts.<br> Below, you can see some examples of the maps you will be asked to rate. Next to the maps
                    is the list of concepts.<br>You will be asked                    to rate how much you associate each map with each concept on a scale from 'not at all' to 'very much' like the
                    one below. <br><br>
                    Now, please look at the list of concepts and maps. For each concept, think about the map you associate 'very
                    much' with the concept.<br>                     When you see that map during the experiment, please rate it near the 'very much' endpoint of the
                    scale.<br>Now, please think about which map you associate 'not at all'                     with each concept. When you see that map during the experiment, please rate it near the 'not at all' endpoint
                    of the scale.<br>
                    Please use the full range of the scale. That is, if a map is somewhat associated with the concept, you would
                    click partway between the middle point and right side of the scale.                    You will be asked to rate each map for a given concept before moving on to the next concept.<br><br>Press the
                    'Continue' button for instructions on how to use the slider.                    <br><br>
                </div>

                <div style=""width: 500px; margin: 0 auto;"">
                    <!-- Centered text paragraphs -->
                    <div style=""text-align: center; width: 500px;"">
                        <p style=""font-size:25px; line-height:18px;"">calm</p>
                        <p style=""font-size:25px; line-height:18px;"">positive</p>
                        <p style=""font-size:25px;line-height:18px;"">negative</p>
                        <p style=""font-size:25px;line-height:18px;"">startling</p>
                    </div>

                    <!-- Grid section -->
                   <div style=""display: flex; justify-content: center; padding-top: 15px;"">
                    <div style=""display: grid; grid-template-columns: repeat(8, 80px); grid-gap: 5px; width: auto;"">
                        <img src=""images/B_D_S_30_lightshift.png"" alt=""map"" style=""width: 100%;""><img src=""images/Y_L_U_41_darkshift.png"" alt=""map"" style=""width: 100%;""><img src=""images/R_D_U_12_lightshift.png"" alt=""map"" style=""width: 100%;""><img src=""images/B_L_S_27_darkshift.png"" alt=""map"" style=""width: 100%;""><img src=""images/B_D_S_30_darkshift.png"" alt=""map"" style=""width: 100%;""><img src=""images/R_D_S_10_darkshift.png"" alt=""map"" style=""width: 100%;""><img src=""images/G_D_U_26_lightshift.png"" alt=""map"" style=""width: 100%;""><img src=""images/G_D_S_23_darkshift.png"" alt=""map"" style=""width: 100%;""><img src=""images/B_D_U_33_darkshift.png"" alt=""map"" style=""width: 100%;""><img src=""images/G_L_U_15_lightshift.png"" alt=""map"" style=""width: 100%;""><img src=""images/R_L_S_5_lightshift.png"" alt=""map"" style=""width: 100%;""><img src=""images/Y_L_U_41_lightshift.png"" alt=""map"" style=""width: 100%;""><img src=""images/G_L_S_13_lightshift.png"" alt=""map"" style=""width: 100%;""><img src=""images/B_L_U_28_lightshift.png"" alt=""map"" style=""width: 100%;""><img src=""images/R_D_U_12_darkshift.png"" alt=""map"" style=""width: 100%;""><img src=""images/Y_D_S_44_lightshift.png"" alt=""map"" style=""width: 100%;""><img src=""images/Y_D_U_2_lightshift.png"" alt=""map"" style=""width: 100%;""><img src=""images/R_L_U_7_lightshift.png"" alt=""map"" style=""width: 100%;""><img src=""images/Y_L_S_37_darkshift.png"" alt=""map"" style=""width: 100%;""><img src=""images/B_L_U_28_darkshift.png"" alt=""map"" style=""width: 100%;""><img src=""images/G_D_U_26_darkshift.png"" alt=""map"" style=""width: 100%;""><img src=""images/Y_D_S_44_darkshift.png"" alt=""map"" style=""width: 100%;""><img src=""images/Y_D_U_2_darkshift.png"" alt=""map"" style=""width: 100%;""><img src=""images/R_L_S_5_darkshift.png"" alt=""map"" style=""width: 100%;""><img src=""images/R_L_U_7_darkshift.png"" alt=""map"" style=""width: 100%;""><img src=""images/R_D_S_10_lightshift.png"" alt=""map"" style=""width: 100%;""><img src=""images/B_L_S_27_lightshift.png"" alt=""map"" style=""width: 100%;""><img src=""images/G_L_S_13_darkshift.png"" alt=""map"" style=""width: 100%;""><img src=""images/Y_L_S_37_lightshift.png"" alt=""map"" style=""width: 100%;""><img src=""images/B_D_U_33_lightshift.png"" alt=""map"" style=""width: 100%;""><img src=""images/G_L_U_15_darkshift.png"" alt=""map"" style=""width: 100%;""><img src=""images/G_D_S_23_lightshift.png"" alt=""map"" style=""width: 100%;"">
                    </div>
                </div>

                    <!-- Clear floats -->
                    <div style=""clear: both;""></div>
                </div>
                            ","2","","0","maps_anchoring.png","true","","","","","","","","","",""
"","","","","","html-button-response","7","151736","0.0-7.0","wl5jbltu2w","1","4091","<div style=""width:800px;""><p style=""text-align:left"">To move the slider, click and drag your cursor to the location of the scale where you would like to make your rating and then let go. When you let go of the slider, your response will be recorded and the next trial will begin. <br>
                    We are interested in your initial impressions of each map for the given concept, so please go with your first intuition. <br>
                    Before you begin the experiment, there will be four training trials for you to practice using the scale. <br>
                     When you are ready to start the training trials, please click ""Continue"".</p><br></div>","0","","","","","","","","","","","","","",""
"","","","","","html-slider-response","8","155563","0.0-8.0-0.0","wl5jbltu2w","1","NaN","<div style=""width:500px;"">
                                    <p style=""font-size:25px;"">Please move the slider all the way to the <br> right endpoint of the scale</p>

                                    </div>
                                </div>","200","","0","","true","0","true","","","","","","","",""
"","","","","","html-button-response","9","156971","0.0-8.0-1.0","wl5jbltu2w","1","907","<p align='center'><b>Good job!</b> Click on 'Continue' to proceed.</p>","0","","","","","","","","","","","","","",""
"","","","","","html-slider-response","10","158293","0.0-9.0-0.0","wl5jbltu2w","1","NaN","<div style=""width:500px;"">
                                    <p style=""font-size:25px;"">Please move the slider all the way to the <br> left endpoint of the scale</p>

                                    </div>
                                </div>","-200","","0","","true","1","true","","","","","","","",""
"","","","","","html-button-response","11","159716","0.0-9.0-1.0","wl5jbltu2w","1","921","<p align='center'><b>Good job!</b> Click on 'Continue' to proceed.</p>","0","","","","","","","","","","","","","",""
"","","","","","html-slider-response","12","165377","0.0-10.0-0.0","wl5jbltu2w","1","NaN","<div style=""width:500px;"">
                                    <p style=""font-size:25px;"">Please move the slider halfway between the center and right endpoint of the scale</p>

                                    </div>
                                </div>","106","","0","","true","2","true","","","","","","","",""
"","","","","","html-button-response","13","166669","0.0-10.0-1.0","wl5jbltu2w","1","790","<p align='center'><b>Good job!</b> Click on 'Continue' to proceed.</p>","0","","","","","","","","","","","","","",""
"","","","","","html-slider-response","14","168535","0.0-11.0-0.0","wl5jbltu2w","1","NaN","<div style=""width:500px;"">
                                    <p style=""font-size:25px;"">Please move the slider halfway between the center and left endpoint of the scale</p>

                                    </div>
                                </div>","-98","","0","","true","3","true","","","","","","","",""
"","","","","","html-button-response","15","170132","0.0-11.0-1.0","wl5jbltu2w","1","1095","<p align='center'><b>Good job!</b> Click on 'Continue' to proceed.</p>","0","","","","","","","","","","","","","",""
"","","","","","html-button-response","16","170967","0.0-12.0","wl5jbltu2w","1","835","<p>Great job! You've completed the practice trials. Now you will begin the main task.</p>","0","","","","","","","","","","","","","",""
"","","","","","html-button-response","17","175671","0.0-13.0","wl5jbltu2w","1","4704","<p>In this block of trials, you will be asked to rate how much you associate each map with:</p > <p style = 'font-size:150%; font-weight: bold'>startling</p><br></br>","0","","","","","","","","","","","","","",""
"","","","","","html-slider-response","18","182256","0.0-14.0","wl5jbltu2w","1","NaN","<div style=""width:500px;"">
                            <p style=""font-size:50px; font-weight:bold;""
                            >startling</p>
                            <div style=""width:240px; margin: auto;"">
                                <img src=""images/Y_L_U_41_lightshift.png"" style= ""width:200px""alt=""img"">
                            </div>
                        </div>","41","","0","images/Y_L_U_41_lightshift.png","","","","startling","1","Y","L","U","lightshift","",""
"","","","","","html-slider-response","19","185864","0.0-15.0","wl5jbltu2w","1","NaN","<div style=""width:500px;"">
                            <p style=""font-size:50px; font-weight:bold;""
                            >startling</p>
                            <div style=""width:240px; margin: auto;"">
                                <img src=""images/G_L_S_13_darkshift.png"" style= ""width:200px""alt=""img"">
                            </div>
                        </div>","-87","","0","images/G_L_S_13_darkshift.png","","","","startling","2","G","L","S","darkshift","",""
"","","","","","html-slider-response","20","188355","0.0-16.0","wl5jbltu2w","1","NaN","<div style=""width:500px;"">
                            <p style=""font-size:50px; font-weight:bold;""
                            >startling</p>
                            <div style=""width:240px; margin: auto;"">
                                <img src=""images/R_D_U_12_darkshift.png"" style= ""width:200px""alt=""img"">
                            </div>
                        </div>","10","","0","images/R_D_U_12_darkshift.png","","","","startling","1","R","D","U","darkshift","",""
"","","","","","html-slider-response","21","192066","0.0-17.0","wl5jbltu2w","1","NaN","<div style=""width:500px;"">
                            <p style=""font-size:50px; font-weight:bold;""
                            >startling</p>
                            <div style=""width:240px; margin: auto;"">
                                <img src=""images/G_D_U_26_lightshift.png"" style= ""width:200px""alt=""img"">
                            </div>
                        </div>","-92","","0","images/G_D_U_26_lightshift.png","","","","startling","2","G","D","U","lightshift","",""
"","","","","","html-slider-response","22","195720","0.0-18.0","wl5jbltu2w","1","NaN","<div style=""width:500px;"">
                            <p style=""font-size:50px; font-weight:bold;""
                            >startling</p>
                            <div style=""width:240px; margin: auto;"">
                                <img src=""images/Y_L_S_37_lightshift.png"" style= ""width:200px""alt=""img"">
                            </div>
                        </div>","14","","0","images/Y_L_S_37_lightshift.png","","","","startling","1","Y","L","S","lightshift","",""
"","","","","","html-slider-response","23","198493","0.0-19.0","wl5jbltu2w","1","NaN","<div style=""width:500px;"">
                            <p style=""font-size:50px; font-weight:bold;""
                            >startling</p>
                            <div style=""width:240px; margin: auto;"">
                                <img src=""images/G_D_S_23_lightshift.png"" style= ""width:200px""alt=""img"">
                            </div>
                        </div>","-110","","0","images/G_D_S_23_lightshift.png","","","","startling","2","G","D","S","lightshift","",""
"","","","","","html-slider-response","24","200875","0.0-20.0","wl5jbltu2w","1","NaN","<div style=""width:500px;"">
                            <p style=""font-size:50px; font-weight:bold;""
                            >startling</p>
                            <div style=""width:240px; margin: auto;"">
                                <img src=""images/B_L_S_27_darkshift.png"" style= ""width:200px""alt=""img"">
                            </div>
                        </div>","-20","","0","images/B_L_S_27_darkshift.png","","","","startling","2","B","L","S","darkshift","",""
"","","","","","html-slider-response","25","202753","0.0-21.0","wl5jbltu2w","1","NaN","<div style=""width:500px;"">
                            <p style=""font-size:50px; font-weight:bold;""
                            >startling</p>
                            <div style=""width:240px; margin: auto;"">
                                <img src=""images/B_L_S_27_darkshift.png"" style= ""width:200px""alt=""img"">
                            </div>
                        </div>","-7","","0","images/B_L_S_27_darkshift.png","","","","startling","1","B","L","S","darkshift","",""
"","","","","","html-slider-response","26","207908","0.0-22.0","wl5jbltu2w","1","NaN","<div style=""width:500px;"">
                            <p style=""font-size:50px; font-weight:bold;""
                            >startling</p>
                            <div style=""width:240px; margin: auto;"">
                                <img src=""images/B_D_U_33_lightshift.png"" style= ""width:200px""alt=""img"">
                            </div>
                        </div>","-61","","0","images/B_D_U_33_lightshift.png","","","","startling","1","B","D","U","lightshift","",""
"","","","","","html-slider-response","27","210042","0.0-23.0","wl5jbltu2w","1","NaN","<div style=""width:500px;"">
                            <p style=""font-size:50px; font-weight:bold;""
                            >startling</p>
                            <div style=""width:240px; margin: auto;"">
                                <img src=""images/R_L_S_5_darkshift.png"" style= ""width:200px""alt=""img"">
                            </div>
                        </div>","52","","0","images/R_L_S_5_darkshift.png","","","","startling","1","R","L","S","darkshift","",""
"","","","","","html-slider-response","28","211989","0.0-24.0","wl5jbltu2w","1","NaN","<div style=""width:500px;"">
                            <p style=""font-size:50px; font-weight:bold;""
                            >startling</p>
                            <div style=""width:240px; margin: auto;"">
                                <img src=""images/Y_D_S_44_lightshift.png"" style= ""width:200px""alt=""img"">
                            </div>
                        </div>","127","","0","images/Y_D_S_44_lightshift.png","","","","startling","2","Y","D","S","lightshift","",""
"","","","","","html-slider-response","29","214008","0.0-25.0","wl5jbltu2w","1","NaN","<div style=""width:500px;"">
                            <p style=""font-size:50px; font-weight:bold;""
                            >startling</p>
                            <div style=""width:240px; margin: auto;"">
                                <img src=""images/G_D_S_23_darkshift.png"" style= ""width:200px""alt=""img"">
                            </div>
                        </div>","12","","0","images/G_D_S_23_darkshift.png","","","","startling","1","G","D","S","darkshift","",""
"","","","","","html-slider-response","30","216391","0.0-26.0","wl5jbltu2w","1","NaN","<div style=""width:500px;"">
                            <p style=""font-size:50px; font-weight:bold;""
                            >startling</p>
                            <div style=""width:240px; margin: auto;"">
                                <img src=""images/R_D_U_12_darkshift.png"" style= ""width:200px""alt=""img"">
                            </div>
                        </div>","30","","0","images/R_D_U_12_darkshift.png","","","","startling","2","R","D","U","darkshift","",""
"","","","","","html-slider-response","31","218559","0.0-27.0","wl5jbltu2w","1","NaN","<div style=""width:500px;"">
                            <p style=""font-size:50px; font-weight:bold;""
                            >startling</p>
                            <div style=""width:240px; margin: auto;"">
                                <img src=""images/B_D_S_30_lightshift.png"" style= ""width:200px""alt=""img"">
                            </div>
                        </div>","41","","0","images/B_D_S_30_lightshift.png","","","","startling","1","B","D","S","lightshift","",""
"","","","","","html-slider-response","32","220572","0.0-28.0","wl5jbltu2w","1","NaN","<div style=""width:500px;"">
                            <p style=""font-size:50px; font-weight:bold;""
                            >startling</p>
                            <div style=""width:240px; margin: auto;"">
                                <img src=""images/B_L_U_28_lightshift.png"" style= ""width:200px""alt=""img"">
                            </div>
                        </div>","51","","0","images/B_L_U_28_lightshift.png","","","","startling","1","B","L","U","lightshift","",""
"","","","","","html-slider-response","33","222269","0.0-29.0","wl5jbltu2w","1","NaN","<div style=""width:500px;"">
                            <p style=""font-size:50px; font-weight:bold;""
                            >startling</p>
                            <div style=""width:240px; margin: auto;"">
                                <img src=""images/R_D_S_10_lightshift.png"" style= ""width:200px""alt=""img"">
                            </div>
                        </div>","-12","","0","images/R_D_S_10_lightshift.png","","","","startling","2","R","D","S","lightshift","",""
"","","","","","html-slider-response","34","223828","0.0-30.0","wl5jbltu2w","1","NaN","<div style=""width:500px;"">
                            <p style=""font-size:50px; font-weight:bold;""
                            >startling</p>
                            <div style=""width:240px; margin: auto;"">
                                <img src=""images/R_D_S_10_lightshift.png"" style= ""width:200px""alt=""img"">
                            </div>
                        </div>","-17","","0","images/R_D_S_10_lightshift.png","","","","startling","1","R","D","S","lightshift","",""
"","","","","","html-slider-response","35","226244","0.0-31.0","wl5jbltu2w","1","NaN","<div style=""width:500px;"">
                            <p style=""font-size:50px; font-weight:bold;""
                            >startling</p>
                            <div style=""width:240px; margin: auto;"">
                                <img src=""images/B_D_U_33_darkshift.png"" style= ""width:200px""alt=""img"">
                            </div>
                        </div>","-39","","0","images/B_D_U_33_darkshift.png","","","","startling","1","B","D","U","darkshift","",""
"","","","","","html-slider-response","36","228142","0.0-32.0","wl5jbltu2w","1","NaN","<div style=""width:500px;"">
                            <p style=""font-size:50px; font-weight:bold;""
                            >startling</p>
                            <div style=""width:240px; margin: auto;"">
                                <img src=""images/R_L_U_7_darkshift.png"" style= ""width:200px""alt=""img"">
                            </div>
                        </div>","29","","0","images/R_L_U_7_darkshift.png","","","","startling","2","R","L","U","darkshift","",""
"","","","","","html-slider-response","37","230070","0.0-33.0","wl5jbltu2w","1","NaN","<div style=""width:500px;"">
                            <p style=""font-size:50px; font-weight:bold;""
                            >startling</p>
                            <div style=""width:240px; margin: auto;"">
                                <img src=""images/B_D_S_30_lightshift.png"" style= ""width:200px""alt=""img"">
                            </div>
                        </div>","50","","0","images/B_D_S_30_lightshift.png","","","","startling","2","B","D","S","lightshift","",""
"","","","","","html-slider-response","38","232411","0.0-34.0","wl5jbltu2w","1","NaN","<div style=""width:500px;"">
                            <p style=""font-size:50px; font-weight:bold;""
                            >startling</p>
                            <div style=""width:240px; margin: auto;"">
                                <img src=""images/R_L_S_5_darkshift.png"" style= ""width:200px""alt=""img"">
                            </div>
                        </div>","73","","0","images/R_L_S_5_darkshift.png","","","","startling","2","R","L","S","darkshift","",""
"","","","","","html-slider-response","39","234126","0.0-35.0","wl5jbltu2w","1","NaN","<div style=""width:500px;"">
                            <p style=""font-size:50px; font-weight:bold;""
                            >startling</p>
                            <div style=""width:240px; margin: auto;"">
                                <img src=""images/G_L_S_13_lightshift.png"" style= ""width:200px""alt=""img"">
                            </div>
                        </div>","-17","","0","images/G_L_S_13_lightshift.png","","","","startling","2","G","L","S","lightshift","",""
"","","","","","html-slider-response","40","237186","0.0-36.0","wl5jbltu2w","1","NaN","<div style=""width:500px;"">
                            <p style=""font-size:50px; font-weight:bold;""
                            >startling</p>
                            <div style=""width:240px; margin: auto;"">
                                <img src=""images/R_D_S_10_darkshift.png"" style= ""width:200px""alt=""img"">
                            </div>
                        </div>","-23","","0","images/R_D_S_10_darkshift.png","","","","startling","1","R","D","S","darkshift","",""
"","","","","","html-slider-response","41","239735","0.0-37.0","wl5jbltu2w","1","NaN","<div style=""width:500px;"">
                            <p style=""font-size:50px; font-weight:bold;""
                            >startling</p>
                            <div style=""width:240px; margin: auto;"">
                                <img src=""images/G_D_U_26_lightshift.png"" style= ""width:200px""alt=""img"">
                            </div>
                        </div>","-62","","0","images/G_D_U_26_lightshift.png","","","","startling","1","G","D","U","lightshift","",""
"","","","","","html-slider-response","42","242033","0.0-38.0","wl5jbltu2w","1","NaN","<div style=""width:500px;"">
                            <p style=""font-size:50px; font-weight:bold;""
                            >startling</p>
                            <div style=""width:240px; margin: auto;"">
                                <img src=""images/R_L_U_7_lightshift.png"" style= ""width:200px""alt=""img"">
                            </div>
                        </div>","-96","","0","images/R_L_U_7_lightshift.png","","","","startling","2","R","L","U","lightshift","",""
"","","","","","html-slider-response","43","244013","0.0-39.0","wl5jbltu2w","1","NaN","<div style=""width:500px;"">
                            <p style=""font-size:50px; font-weight:bold;""
                            >startling</p>
                            <div style=""width:240px; margin: auto;"">
                                <img src=""images/Y_D_U_2_darkshift.png"" style= ""width:200px""alt=""img"">
                            </div>
                        </div>","138","","0","images/Y_D_U_2_darkshift.png","","","","startling","1","Y","D","U","darkshift","",""
"","","","","","html-slider-response","44","249363","0.0-40.0","wl5jbltu2w","1","NaN","<div style=""width:500px;"">
                            <p style=""font-size:50px; font-weight:bold;""
                            >startling</p>
                            <div style=""width:240px; margin: auto;"">
                                <img src=""images/G_L_U_15_darkshift.png"" style= ""width:200px""alt=""img"">
                            </div>
                        </div>","-38","","0","images/G_L_U_15_darkshift.png","","","","startling","1","G","L","U","darkshift","",""
"","","","","","html-slider-response","45","255293","0.0-41.0","wl5jbltu2w","1","NaN","<div style=""width:500px;"">
                            <p style=""font-size:50px; font-weight:bold;""
                            >startling</p>
                            <div style=""width:240px; margin: auto;"">
                                <img src=""images/Y_D_S_44_darkshift.png"" style= ""width:200px""alt=""img"">
                            </div>
                        </div>","54","","0","images/Y_D_S_44_darkshift.png","","","","startling","2","Y","D","S","darkshift","",""
"","","","","","html-slider-response","46","258607","0.0-42.0","wl5jbltu2w","1","NaN","<div style=""width:500px;"">
                            <p style=""font-size:50px; font-weight:bold;""
                            >startling</p>
                            <div style=""width:240px; margin: auto;"">
                                <img src=""images/G_L_S_13_lightshift.png"" style= ""width:200px""alt=""img"">
                            </div>
                        </div>","-62","","0","images/G_L_S_13_lightshift.png","","","","startling","1","G","L","S","lightshift","",""
"","","","","","html-slider-response","47","260577","0.0-43.0","wl5jbltu2w","1","NaN","<div style=""width:500px;"">
                            <p style=""font-size:50px; font-weight:bold;""
                            >startling</p>
                            <div style=""width:240px; margin: auto;"">
                                <img src=""images/B_D_S_30_darkshift.png"" style= ""width:200px""alt=""img"">
                            </div>
                        </div>","41","","0","images/B_D_S_30_darkshift.png","","","","startling","2","B","D","S","darkshift","",""
"","","","","","html-slider-response","48","262293","0.0-44.0","wl5jbltu2w","1","NaN","<div style=""width:500px;"">
                            <p style=""font-size:50px; font-weight:bold;""
                            >startling</p>
                            <div style=""width:240px; margin: auto;"">
                                <img src=""images/B_D_S_30_darkshift.png"" style= ""width:200px""alt=""img"">
                            </div>
                        </div>","42","","0","images/B_D_S_30_darkshift.png","","","","startling","1","B","D","S","darkshift","",""
"","","","","","html-slider-response","49","264089","0.0-45.0","wl5jbltu2w","1","NaN","<div style=""width:500px;"">
                            <p style=""font-size:50px; font-weight:bold;""
                            >startling</p>
                            <div style=""width:240px; margin: auto;"">
                                <img src=""images/G_D_S_23_darkshift.png"" style= ""width:200px""alt=""img"">
                            </div>
                        </div>","69","","0","images/G_D_S_23_darkshift.png","","","","startling","2","G","D","S","darkshift","",""
"","","","","","html-slider-response","50","266934","0.0-46.0","wl5jbltu2w","1","NaN","<div style=""width:500px;"">
                            <p style=""font-size:50px; font-weight:bold;""
                            >startling</p>
                            <div style=""width:240px; margin: auto;"">
                                <img src=""images/Y_L_U_41_lightshift.png"" style= ""width:200px""alt=""img"">
                            </div>
                        </div>","116","","0","images/Y_L_U_41_lightshift.png","","","","startling","2","Y","L","U","lightshift","",""
"","","","","","html-slider-response","51","269251","0.0-47.0","wl5jbltu2w","1","NaN","<div style=""width:500px;"">
                            <p style=""font-size:50px; font-weight:bold;""
                            >startling</p>
                            <div style=""width:240px; margin: auto;"">
                                <img src=""images/R_L_U_7_lightshift.png"" style= ""width:200px""alt=""img"">
                            </div>
                        </div>","34","","0","images/R_L_U_7_lightshift.png","","","","startling","1","R","L","U","lightshift","",""
"","","","","","html-slider-response","52","271032","0.0-48.0","wl5jbltu2w","1","NaN","<div style=""width:500px;"">
                            <p style=""font-size:50px; font-weight:bold;""
                            >startling</p>
                            <div style=""width:240px; margin: auto;"">
                                <img src=""images/Y_D_S_44_lightshift.png"" style= ""width:200px""alt=""img"">
                            </div>
                        </div>","93","","0","images/Y_D_S_44_lightshift.png","","","","startling","1","Y","D","S","lightshift","",""
"","","","","","html-slider-response","53","273250","0.0-49.0","wl5jbltu2w","1","NaN","<div style=""width:500px;"">
                            <p style=""font-size:50px; font-weight:bold;""
                            >startling</p>
                            <div style=""width:240px; margin: auto;"">
                                <img src=""images/G_D_U_26_darkshift.png"" style= ""width:200px""alt=""img"">
                            </div>
                        </div>","15","","0","images/G_D_U_26_darkshift.png","","","","startling","2","G","D","U","darkshift","",""
"","","","","","html-slider-response","54","318272","0.0-50.0","wl5jbltu2w","1","NaN","<div style=""width:500px;"">
                            <p style=""font-size:50px; font-weight:bold;""
                            >startling</p>
                            <div style=""width:240px; margin: auto;"">
                                <img src=""images/G_L_U_15_lightshift.png"" style= ""width:200px""alt=""img"">
                            </div>
                        </div>","-32","","0","images/G_L_U_15_lightshift.png","","","","startling","1","G","L","U","lightshift","",""
"","","","","","html-slider-response","55","320399","0.0-51.0","wl5jbltu2w","1","NaN","<div style=""width:500px;"">
                            <p style=""font-size:50px; font-weight:bold;""
                            >startling</p>
                            <div style=""width:240px; margin: auto;"">
                                <img src=""images/Y_D_U_2_lightshift.png"" style= ""width:200px""alt=""img"">
                            </div>
                        </div>","44","","0","images/Y_D_U_2_lightshift.png","","","","startling","1","Y","D","U","lightshift","",""
"","","","","","html-slider-response","56","322675","0.0-52.0","wl5jbltu2w","1","NaN","<div style=""width:500px;"">
                            <p style=""font-size:50px; font-weight:bold;""
                            >startling</p>
                            <div style=""width:240px; margin: auto;"">
                                <img src=""images/B_D_U_33_lightshift.png"" style= ""width:200px""alt=""img"">
                            </div>
                        </div>","-17","","0","images/B_D_U_33_lightshift.png","","","","startling","2","B","D","U","lightshift","",""
"","","","","","html-slider-response","57","324425","0.0-53.0","wl5jbltu2w","1","NaN","<div style=""width:500px;"">
                            <p style=""font-size:50px; font-weight:bold;""
                            >startling</p>
                            <div style=""width:240px; margin: auto;"">
                                <img src=""images/B_L_U_28_lightshift.png"" style= ""width:200px""alt=""img"">
                            </div>
                        </div>","-15","","0","images/B_L_U_28_lightshift.png","","","","startling","2","B","L","U","lightshift","",""
"","","","","","html-slider-response","58","326468","0.0-54.0","wl5jbltu2w","1","NaN","<div style=""width:500px;"">
                            <p style=""font-size:50px; font-weight:bold;""
                            >startling</p>
                            <div style=""width:240px; margin: auto;"">
                                <img src=""images/B_L_U_28_darkshift.png"" style= ""width:200px""alt=""img"">
                            </div>
                        </div>","31","","0","images/B_L_U_28_darkshift.png","","","","startling","2","B","L","U","darkshift","",""
"","","","","","html-slider-response","59","332472","0.0-55.0","wl5jbltu2w","1","NaN","<div style=""width:500px;"">
                            <p style=""font-size:50px; font-weight:bold;""
                            >startling</p>
                            <div style=""width:240px; margin: auto;"">
                                <img src=""images/B_L_S_27_lightshift.png"" style= ""width:200px""alt=""img"">
                            </div>
                        </div>","-30","","0","images/B_L_S_27_lightshift.png","","","","startling","1","B","L","S","lightshift","",""
"","","","","","html-slider-response","60","334409","0.0-56.0","wl5jbltu2w","1","NaN","<div style=""width:500px;"">
                            <p style=""font-size:50px; font-weight:bold;""
                            >startling</p>
                            <div style=""width:240px; margin: auto;"">
                                <img src=""images/B_L_U_28_darkshift.png"" style= ""width:200px""alt=""img"">
                            </div>
                        </div>","14","","0","images/B_L_U_28_darkshift.png","","","","startling","1","B","L","U","darkshift","",""
"","","","","","html-slider-response","61","336182","0.0-57.0","wl5jbltu2w","1","NaN","<div style=""width:500px;"">
                            <p style=""font-size:50px; font-weight:bold;""
                            >startling</p>
                            <div style=""width:240px; margin: auto;"">
                                <img src=""images/R_D_U_12_lightshift.png"" style= ""width:200px""alt=""img"">
                            </div>
                        </div>","46","","0","images/R_D_U_12_lightshift.png","","","","startling","2","R","D","U","lightshift","",""
"","","","","","html-slider-response","62","337988","0.0-58.0","wl5jbltu2w","1","NaN","<div style=""width:500px;"">
                            <p style=""font-size:50px; font-weight:bold;""
                            >startling</p>
                            <div style=""width:240px; margin: auto;"">
                                <img src=""images/Y_D_S_44_darkshift.png"" style= ""width:200px""alt=""img"">
                            </div>
                        </div>","128","","0","images/Y_D_S_44_darkshift.png","","","","startling","1","Y","D","S","darkshift","",""
"","","","","","html-slider-response","63","339887","0.0-59.0","wl5jbltu2w","1","NaN","<div style=""width:500px;"">
                            <p style=""font-size:50px; font-weight:bold;""
                            >startling</p>
                            <div style=""width:240px; margin: auto;"">
                                <img src=""images/B_L_S_27_lightshift.png"" style= ""width:200px""alt=""img"">
                            </div>
                        </div>","-34","","0","images/B_L_S_27_lightshift.png","","","","startling","2","B","L","S","lightshift","",""
"","","","","","html-slider-response","64","341873","0.0-60.0","wl5jbltu2w","1","NaN","<div style=""width:500px;"">
                            <p style=""font-size:50px; font-weight:bold;""
                            >startling</p>
                            <div style=""width:240px; margin: auto;"">
                                <img src=""images/R_D_U_12_lightshift.png"" style= ""width:200px""alt=""img"">
                            </div>
                        </div>","40","","0","images/R_D_U_12_lightshift.png","","","","startling","1","R","D","U","lightshift","",""
"","","","","","html-slider-response","65","344280","0.0-61.0","wl5jbltu2w","1","NaN","<div style=""width:500px;"">
                            <p style=""font-size:50px; font-weight:bold;""
                            >startling</p>
                            <div style=""width:240px; margin: auto;"">
                                <img src=""images/Y_D_U_2_lightshift.png"" style= ""width:200px""alt=""img"">
                            </div>
                        </div>","39","","0","images/Y_D_U_2_lightshift.png","","","","startling","2","Y","D","U","lightshift","",""
"","","","","","html-slider-response","66","346498","0.0-62.0","wl5jbltu2w","1","NaN","<div style=""width:500px;"">
                            <p style=""font-size:50px; font-weight:bold;""
                            >startling</p>
                            <div style=""width:240px; margin: auto;"">
                                <img src=""images/G_L_U_15_lightshift.png"" style= ""width:200px""alt=""img"">
                            </div>
                        </div>","-36","","0","images/G_L_U_15_lightshift.png","","","","startling","2","G","L","U","lightshift","",""
"","","","","","html-slider-response","67","349425","0.0-63.0","wl5jbltu2w","1","NaN","<div style=""width:500px;"">
                            <p style=""font-size:50px; font-weight:bold;""
                            >startling</p>
                            <div style=""width:240px; margin: auto;"">
                                <img src=""images/G_D_U_26_darkshift.png"" style= ""width:200px""alt=""img"">
                            </div>
                        </div>","23","","0","images/G_D_U_26_darkshift.png","","","","startling","1","G","D","U","darkshift","",""
"","","","","","html-slider-response","68","351362","0.0-64.0","wl5jbltu2w","1","NaN","<div style=""width:500px;"">
                            <p style=""font-size:50px; font-weight:bold;""
                            >startling</p>
                            <div style=""width:240px; margin: auto;"">
                                <img src=""images/G_L_S_13_darkshift.png"" style= ""width:200px""alt=""img"">
                            </div>
                        </div>","-102","","0","images/G_L_S_13_darkshift.png","","","","startling","1","G","L","S","darkshift","",""
"","","","","","html-slider-response","69","352994","0.0-65.0","wl5jbltu2w","1","NaN","<div style=""width:500px;"">
                            <p style=""font-size:50px; font-weight:bold;""
                            >startling</p>
                            <div style=""width:240px; margin: auto;"">
                                <img src=""images/Y_L_U_41_darkshift.png"" style= ""width:200px""alt=""img"">
                            </div>
                        </div>","86","","0","images/Y_L_U_41_darkshift.png","","","","startling","2","Y","L","U","darkshift","",""
"","","","","","html-slider-response","70","354670","0.0-66.0","wl5jbltu2w","1","NaN","<div style=""width:500px;"">
                            <p style=""font-size:50px; font-weight:bold;""
                            >startling</p>
                            <div style=""width:240px; margin: auto;"">
                                <img src=""images/R_L_S_5_lightshift.png"" style= ""width:200px""alt=""img"">
                            </div>
                        </div>","-52","","0","images/R_L_S_5_lightshift.png","","","","startling","1","R","L","S","lightshift","",""
"","","","","","html-slider-response","71","356320","0.0-67.0","wl5jbltu2w","1","NaN","<div style=""width:500px;"">
                            <p style=""font-size:50px; font-weight:bold;""
                            >startling</p>
                            <div style=""width:240px; margin: auto;"">
                                <img src=""images/R_D_S_10_darkshift.png"" style= ""width:200px""alt=""img"">
                            </div>
                        </div>","-56","","0","images/R_D_S_10_darkshift.png","","","","startling","2","R","D","S","darkshift","",""
"","","","","","html-slider-response","72","358619","0.0-68.0","wl5jbltu2w","1","NaN","<div style=""width:500px;"">
                            <p style=""font-size:50px; font-weight:bold;""
                            >startling</p>
                            <div style=""width:240px; margin: auto;"">
                                <img src=""images/G_L_U_15_darkshift.png"" style= ""width:200px""alt=""img"">
                            </div>
                        </div>","-94","","0","images/G_L_U_15_darkshift.png","","","","startling","2","G","L","U","darkshift","",""
"","","","","","html-slider-response","73","360111","0.0-69.0","wl5jbltu2w","1","NaN","<div style=""width:500px;"">
                            <p style=""font-size:50px; font-weight:bold;""
                            >startling</p>
                            <div style=""width:240px; margin: auto;"">
                                <img src=""images/Y_L_S_37_darkshift.png"" style= ""width:200px""alt=""img"">
                            </div>
                        </div>","86","","0","images/Y_L_S_37_darkshift.png","","","","startling","1","Y","L","S","darkshift","",""
"","","","","","html-slider-response","74","361793","0.0-70.0","wl5jbltu2w","1","NaN","<div style=""width:500px;"">
                            <p style=""font-size:50px; font-weight:bold;""
                            >startling</p>
                            <div style=""width:240px; margin: auto;"">
                                <img src=""images/R_L_U_7_darkshift.png"" style= ""width:200px""alt=""img"">
                            </div>
                        </div>","22","","0","images/R_L_U_7_darkshift.png","","","","startling","1","R","L","U","darkshift","",""
"","","","","","html-slider-response","75","363392","0.0-71.0","wl5jbltu2w","1","NaN","<div style=""width:500px;"">
                            <p style=""font-size:50px; font-weight:bold;""
                            >startling</p>
                            <div style=""width:240px; margin: auto;"">
                                <img src=""images/Y_L_S_37_darkshift.png"" style= ""width:200px""alt=""img"">
                            </div>
                        </div>","91","","0","images/Y_L_S_37_darkshift.png","","","","startling","2","Y","L","S","darkshift","",""
"","","","","","html-slider-response","76","364828","0.0-72.0","wl5jbltu2w","1","NaN","<div style=""width:500px;"">
                            <p style=""font-size:50px; font-weight:bold;""
                            >startling</p>
                            <div style=""width:240px; margin: auto;"">
                                <img src=""images/B_D_U_33_darkshift.png"" style= ""width:200px""alt=""img"">
                            </div>
                        </div>","-26","","0","images/B_D_U_33_darkshift.png","","","","startling","2","B","D","U","darkshift","",""
"","","","","","html-slider-response","77","366353","0.0-73.0","wl5jbltu2w","1","NaN","<div style=""width:500px;"">
                            <p style=""font-size:50px; font-weight:bold;""
                            >startling</p>
                            <div style=""width:240px; margin: auto;"">
                                <img src=""images/G_D_S_23_lightshift.png"" style= ""width:200px""alt=""img"">
                            </div>
                        </div>","-46","","0","images/G_D_S_23_lightshift.png","","","","startling","1","G","D","S","lightshift","",""
"","","","","","html-slider-response","78","368249","0.0-74.0","wl5jbltu2w","1","NaN","<div style=""width:500px;"">
                            <p style=""font-size:50px; font-weight:bold;""
                            >startling</p>
                            <div style=""width:240px; margin: auto;"">
                                <img src=""images/R_L_S_5_lightshift.png"" style= ""width:200px""alt=""img"">
                            </div>
                        </div>","-65","","0","images/R_L_S_5_lightshift.png","","","","startling","2","R","L","S","lightshift","",""
"","","","","","html-slider-response","79","369856","0.0-75.0","wl5jbltu2w","1","NaN","<div style=""width:500px;"">
                            <p style=""font-size:50px; font-weight:bold;""
                            >startling</p>
                            <div style=""width:240px; margin: auto;"">
                                <img src=""images/Y_D_U_2_darkshift.png"" style= ""width:200px""alt=""img"">
                            </div>
                        </div>","106","","0","images/Y_D_U_2_darkshift.png","","","","startling","2","Y","D","U","darkshift","",""
"","","","","","html-slider-response","80","371548","0.0-76.0","wl5jbltu2w","1","NaN","<div style=""width:500px;"">
                            <p style=""font-size:50px; font-weight:bold;""
                            >startling</p>
                            <div style=""width:240px; margin: auto;"">
                                <img src=""images/Y_L_U_41_darkshift.png"" style= ""width:200px""alt=""img"">
                            </div>
                        </div>","125","","0","images/Y_L_U_41_darkshift.png","","","","startling","1","Y","L","U","darkshift","",""
"","","","","","html-slider-response","81","373057","0.0-77.0","wl5jbltu2w","1","NaN","<div style=""width:500px;"">
                            <p style=""font-size:50px; font-weight:bold;""
                            >startling</p>
                            <div style=""width:240px; margin: auto;"">
                                <img src=""images/Y_L_S_37_lightshift.png"" style= ""width:200px""alt=""img"">
                            </div>
                        </div>","134","","0","images/Y_L_S_37_lightshift.png","","","","startling","2","Y","L","S","lightshift","",""
"","","","","","html-button-response","82","375050","0.0-78.0","wl5jbltu2w","1","1491","<p>Great Job! You've finished block 1.<br></br> You have 3 block(s) left to go.<br></br></p>","0","","","","","","","","","","","","","",""
"","","","","","html-button-response","83","381010","0.0-79.0","wl5jbltu2w","1","5959","<p>In this block of trials, you will be asked to rate how much you associate each map with:</p > <p style = 'font-size:150%; font-weight: bold'>negative</p><br></br>","0","","","","","","","","","","","","","",""
"","","","","","html-slider-response","84","383131","0.0-80.0","wl5jbltu2w","1","NaN","<div style=""width:500px;"">
                            <p style=""font-size:50px; font-weight:bold;""
                            >negative</p>
                            <div style=""width:240px; margin: auto;"">
                                <img src=""images/G_L_S_13_darkshift.png"" style= ""width:200px""alt=""img"">
                            </div>
                        </div>","-145","","0","images/G_L_S_13_darkshift.png","","","","negative","2","G","L","S","darkshift","",""
"","","","","","html-slider-response","85","384616","0.0-81.0","wl5jbltu2w","1","NaN","<div style=""width:500px;"">
                            <p style=""font-size:50px; font-weight:bold;""
                            >negative</p>
                            <div style=""width:240px; margin: auto;"">
                                <img src=""images/Y_D_U_2_lightshift.png"" style= ""width:200px""alt=""img"">
                            </div>
                        </div>","34","","0","images/Y_D_U_2_lightshift.png","","","","negative","1","Y","D","U","lightshift","",""
"","","","","","html-slider-response","86","386019","0.0-82.0","wl5jbltu2w","1","NaN","<div style=""width:500px;"">
                            <p style=""font-size:50px; font-weight:bold;""
                            >negative</p>
                            <div style=""width:240px; margin: auto;"">
                                <img src=""images/Y_D_S_44_darkshift.png"" style= ""width:200px""alt=""img"">
                            </div>
                        </div>","66","","0","images/Y_D_S_44_darkshift.png","","","","negative","2","Y","D","S","darkshift","",""
"","","","","","html-slider-response","87","387518","0.0-83.0","wl5jbltu2w","1","NaN","<div style=""width:500px;"">
                            <p style=""font-size:50px; font-weight:bold;""
                            >negative</p>
                            <div style=""width:240px; margin: auto;"">
                                <img src=""images/G_D_U_26_lightshift.png"" style= ""width:200px""alt=""img"">
                            </div>
                        </div>","-106","","0","images/G_D_U_26_lightshift.png","","","","negative","2","G","D","U","lightshift","",""
"","","","","","html-slider-response","88","389002","0.0-84.0","wl5jbltu2w","1","NaN","<div style=""width:500px;"">
                            <p style=""font-size:50px; font-weight:bold;""
                            >negative</p>
                            <div style=""width:240px; margin: auto;"">
                                <img src=""images/Y_D_S_44_darkshift.png"" style= ""width:200px""alt=""img"">
                            </div>
                        </div>","65","","0","images/Y_D_S_44_darkshift.png","","","","negative","1","Y","D","S","darkshift","",""
"","","","","","html-slider-response","89","390603","0.0-85.0","wl5jbltu2w","1","NaN","<div style=""width:500px;"">
                            <p style=""font-size:50px; font-weight:bold;""
                            >negative</p>
                            <div style=""width:240px; margin: auto;"">
                                <img src=""images/B_L_S_27_darkshift.png"" style= ""width:200px""alt=""img"">
                            </div>
                        </div>","-122","","0","images/B_L_S_27_darkshift.png","","","","negative","1","B","L","S","darkshift","",""
"","","","","","html-slider-response","90","392202","0.0-86.0","wl5jbltu2w","1","NaN","<div style=""width:500px;"">
                            <p style=""font-size:50px; font-weight:bold;""
                            >negative</p>
                            <div style=""width:240px; margin: auto;"">
                                <img src=""images/R_L_U_7_darkshift.png"" style= ""width:200px""alt=""img"">
                            </div>
                        </div>","-66","","0","images/R_L_U_7_darkshift.png","","","","negative","1","R","L","U","darkshift","",""
"","","","","","html-slider-response","91","395222","0.0-87.0","wl5jbltu2w","1","NaN","<div style=""width:500px;"">
                            <p style=""font-size:50px; font-weight:bold;""
                            >negative</p>
                            <div style=""width:240px; margin: auto;"">
                                <img src=""images/R_L_U_7_lightshift.png"" style= ""width:200px""alt=""img"">
                            </div>
                        </div>","-68","","0","images/R_L_U_7_lightshift.png","","","","negative","2","R","L","U","lightshift","",""
"","","","","","html-slider-response","92","398441","0.0-88.0","wl5jbltu2w","1","NaN","<div style=""width:500px;"">
                            <p style=""font-size:50px; font-weight:bold;""
                            >negative</p>
                            <div style=""width:240px; margin: auto;"">
                                <img src=""images/Y_L_U_41_lightshift.png"" style= ""width:200px""alt=""img"">
                            </div>
                        </div>","23","","0","images/Y_L_U_41_lightshift.png","","","","negative","1","Y","L","U","lightshift","",""
"","","","","","html-slider-response","93","404060","0.0-89.0","wl5jbltu2w","1","NaN","<div style=""width:500px;"">
                            <p style=""font-size:50px; font-weight:bold;""
                            >negative</p>
                            <div style=""width:240px; margin: auto;"">
                                <img src=""images/B_D_U_33_darkshift.png"" style= ""width:200px""alt=""img"">
                            </div>
                        </div>","-98","","0","images/B_D_U_33_darkshift.png","","","","negative","1","B","D","U","darkshift","",""
"","","","","","html-slider-response","94","423171","0.0-90.0","wl5jbltu2w","1","NaN","<div style=""width:500px;"">
                            <p style=""font-size:50px; font-weight:bold;""
                            >negative</p>
                            <div style=""width:240px; margin: auto;"">
                                <img src=""images/R_L_U_7_darkshift.png"" style= ""width:200px""alt=""img"">
                            </div>
                        </div>","-91","","0","images/R_L_U_7_darkshift.png","","","","negative","2","R","L","U","darkshift","",""
"","","","","","html-slider-response","95","425192","0.0-91.0","wl5jbltu2w","1","NaN","<div style=""width:500px;"">
                            <p style=""font-size:50px; font-weight:bold;""
                            >negative</p>
                            <div style=""width:240px; margin: auto;"">
                                <img src=""images/Y_D_U_2_lightshift.png"" style= ""width:200px""alt=""img"">
                            </div>
                        </div>","68","","0","images/Y_D_U_2_lightshift.png","","","","negative","2","Y","D","U","lightshift","",""
"","","","","","html-slider-response","96","427072","0.0-92.0","wl5jbltu2w","1","NaN","<div style=""width:500px;"">
                            <p style=""font-size:50px; font-weight:bold;""
                            >negative</p>
                            <div style=""width:240px; margin: auto;"">
                                <img src=""images/R_D_S_10_darkshift.png"" style= ""width:200px""alt=""img"">
                            </div>
                        </div>","-27","","0","images/R_D_S_10_darkshift.png","","","","negative","1","R","D","S","darkshift","",""
"","","","","","html-slider-response","97","428720","0.0-93.0","wl5jbltu2w","1","NaN","<div style=""width:500px;"">
                            <p style=""font-size:50px; font-weight:bold;""
                            >negative</p>
                            <div style=""width:240px; margin: auto;"">
                                <img src=""images/Y_L_U_41_lightshift.png"" style= ""width:200px""alt=""img"">
                            </div>
                        </div>","30","","0","images/Y_L_U_41_lightshift.png","","","","negative","2","Y","L","U","lightshift","",""
"","","","","","html-slider-response","98","430239","0.0-94.0","wl5jbltu2w","1","NaN","<div style=""width:500px;"">
                            <p style=""font-size:50px; font-weight:bold;""
                            >negative</p>
                            <div style=""width:240px; margin: auto;"">
                                <img src=""images/B_L_S_27_lightshift.png"" style= ""width:200px""alt=""img"">
                            </div>
                        </div>","-35","","0","images/B_L_S_27_lightshift.png","","","","negative","2","B","L","S","lightshift","",""
"","","","","","html-slider-response","99","436901","0.0-95.0","wl5jbltu2w","1","NaN","<div style=""width:500px;"">
                            <p style=""font-size:50px; font-weight:bold;""
                            >negative</p>
                            <div style=""width:240px; margin: auto;"">
                                <img src=""images/R_D_U_12_lightshift.png"" style= ""width:200px""alt=""img"">
                            </div>
                        </div>","-51","","0","images/R_D_U_12_lightshift.png","","","","negative","1","R","D","U","lightshift","",""
"","","","","","html-slider-response","100","439283","0.0-96.0","wl5jbltu2w","1","NaN","<div style=""width:500px;"">
                            <p style=""font-size:50px; font-weight:bold;""
                            >negative</p>
                            <div style=""width:240px; margin: auto;"">
                                <img src=""images/G_L_S_13_lightshift.png"" style= ""width:200px""alt=""img"">
                            </div>
                        </div>","-82","","0","images/G_L_S_13_lightshift.png","","","","negative","1","G","L","S","lightshift","",""
"","","","","","html-slider-response","101","440939","0.0-97.0","wl5jbltu2w","1","NaN","<div style=""width:500px;"">
                            <p style=""font-size:50px; font-weight:bold;""
                            >negative</p>
                            <div style=""width:240px; margin: auto;"">
                                <img src=""images/G_D_S_23_lightshift.png"" style= ""width:200px""alt=""img"">
                            </div>
                        </div>","-126","","0","images/G_D_S_23_lightshift.png","","","","negative","2","G","D","S","lightshift","",""
"","","","","","html-slider-response","102","446333","0.0-98.0","wl5jbltu2w","1","NaN","<div style=""width:500px;"">
                            <p style=""font-size:50px; font-weight:bold;""
                            >negative</p>
                            <div style=""width:240px; margin: auto;"">
                                <img src=""images/B_L_U_28_darkshift.png"" style= ""width:200px""alt=""img"">
                            </div>
                        </div>","-85","","0","images/B_L_U_28_darkshift.png","","","","negative","2","B","L","U","darkshift","",""
"","","","","","html-slider-response","103","448137","0.0-99.0","wl5jbltu2w","1","NaN","<div style=""width:500px;"">
                            <p style=""font-size:50px; font-weight:bold;""
                            >negative</p>
                            <div style=""width:240px; margin: auto;"">
                                <img src=""images/B_D_U_33_lightshift.png"" style= ""width:200px""alt=""img"">
                            </div>
                        </div>","-76","","0","images/B_D_U_33_lightshift.png","","","","negative","1","B","D","U","lightshift","",""
"","","","","","html-slider-response","104","487429","0.0-100.0","wl5jbltu2w","1","NaN","<div style=""width:500px;"">
                            <p style=""font-size:50px; font-weight:bold;""
                            >negative</p>
                            <div style=""width:240px; margin: auto;"">
                                <img src=""images/B_L_S_27_darkshift.png"" style= ""width:200px""alt=""img"">
                            </div>
                        </div>","-79","","0","images/B_L_S_27_darkshift.png","","","","negative","2","B","L","S","darkshift","",""
"","","","","","html-slider-response","105","489746","0.0-101.0","wl5jbltu2w","1","NaN","<div style=""width:500px;"">
                            <p style=""font-size:50px; font-weight:bold;""
                            >negative</p>
                            <div style=""width:240px; margin: auto;"">
                                <img src=""images/R_D_U_12_darkshift.png"" style= ""width:200px""alt=""img"">
                            </div>
                        </div>","73","","0","images/R_D_U_12_darkshift.png","","","","negative","2","R","D","U","darkshift","",""
"","","","","","html-slider-response","106","491247","0.0-102.0","wl5jbltu2w","1","NaN","<div style=""width:500px;"">
                            <p style=""font-size:50px; font-weight:bold;""
                            >negative</p>
                            <div style=""width:240px; margin: auto;"">
                                <img src=""images/Y_D_S_44_lightshift.png"" style= ""width:200px""alt=""img"">
                            </div>
                        </div>","154","","0","images/Y_D_S_44_lightshift.png","","","","negative","2","Y","D","S","lightshift","",""
"","","","","","html-slider-response","107","492783","0.0-103.0","wl5jbltu2w","1","NaN","<div style=""width:500px;"">
                            <p style=""font-size:50px; font-weight:bold;""
                            >negative</p>
                            <div style=""width:240px; margin: auto;"">
                                <img src=""images/B_D_S_30_lightshift.png"" style= ""width:200px""alt=""img"">
                            </div>
                        </div>","23","","0","images/B_D_S_30_lightshift.png","","","","negative","1","B","D","S","lightshift","",""
"","","","","","html-slider-response","108","494265","0.0-104.0","wl5jbltu2w","1","NaN","<div style=""width:500px;"">
                            <p style=""font-size:50px; font-weight:bold;""
                            >negative</p>
                            <div style=""width:240px; margin: auto;"">
                                <img src=""images/B_L_S_27_lightshift.png"" style= ""width:200px""alt=""img"">
                            </div>
                        </div>","-43","","0","images/B_L_S_27_lightshift.png","","","","negative","1","B","L","S","lightshift","",""
"","","","","","html-slider-response","109","495675","0.0-105.0","wl5jbltu2w","1","NaN","<div style=""width:500px;"">
                            <p style=""font-size:50px; font-weight:bold;""
                            >negative</p>
                            <div style=""width:240px; margin: auto;"">
                                <img src=""images/Y_L_U_41_darkshift.png"" style= ""width:200px""alt=""img"">
                            </div>
                        </div>","141","","0","images/Y_L_U_41_darkshift.png","","","","negative","2","Y","L","U","darkshift","",""
"","","","","","html-slider-response","110","497052","0.0-106.0","wl5jbltu2w","1","NaN","<div style=""width:500px;"">
                            <p style=""font-size:50px; font-weight:bold;""
                            >negative</p>
                            <div style=""width:240px; margin: auto;"">
                                <img src=""images/R_D_S_10_lightshift.png"" style= ""width:200px""alt=""img"">
                            </div>
                        </div>","-70","","0","images/R_D_S_10_lightshift.png","","","","negative","2","R","D","S","lightshift","",""
"","","","","","html-slider-response","111","498543","0.0-107.0","wl5jbltu2w","1","NaN","<div style=""width:500px;"">
                            <p style=""font-size:50px; font-weight:bold;""
                            >negative</p>
                            <div style=""width:240px; margin: auto;"">
                                <img src=""images/G_D_S_23_lightshift.png"" style= ""width:200px""alt=""img"">
                            </div>
                        </div>","-82","","0","images/G_D_S_23_lightshift.png","","","","negative","1","G","D","S","lightshift","",""
"","","","","","html-slider-response","112","500063","0.0-108.0","wl5jbltu2w","1","NaN","<div style=""width:500px;"">
                            <p style=""font-size:50px; font-weight:bold;""
                            >negative</p>
                            <div style=""width:240px; margin: auto;"">
                                <img src=""images/R_L_S_5_darkshift.png"" style= ""width:200px""alt=""img"">
                            </div>
                        </div>","-18","","0","images/R_L_S_5_darkshift.png","","","","negative","1","R","L","S","darkshift","",""
"","","","","","html-slider-response","113","501619","0.0-109.0","wl5jbltu2w","1","NaN","<div style=""width:500px;"">
                            <p style=""font-size:50px; font-weight:bold;""
                            >negative</p>
                            <div style=""width:240px; margin: auto;"">
                                <img src=""images/R_L_S_5_lightshift.png"" style= ""width:200px""alt=""img"">
                            </div>
                        </div>","-16","","0","images/R_L_S_5_lightshift.png","","","","negative","2","R","L","S","lightshift","",""
"","","","","","html-slider-response","114","510234","0.0-110.0","wl5jbltu2w","1","NaN","<div style=""width:500px;"">
                            <p style=""font-size:50px; font-weight:bold;""
                            >negative</p>
                            <div style=""width:240px; margin: auto;"">
                                <img src=""images/Y_D_U_2_darkshift.png"" style= ""width:200px""alt=""img"">
                            </div>
                        </div>","157","","0","images/Y_D_U_2_darkshift.png","","","","negative","2","Y","D","U","darkshift","",""
"","","","","","html-slider-response","115","511948","0.0-111.0","wl5jbltu2w","1","NaN","<div style=""width:500px;"">
                            <p style=""font-size:50px; font-weight:bold;""
                            >negative</p>
                            <div style=""width:240px; margin: auto;"">
                                <img src=""images/Y_L_U_41_darkshift.png"" style= ""width:200px""alt=""img"">
                            </div>
                        </div>","76","","0","images/Y_L_U_41_darkshift.png","","","","negative","1","Y","L","U","darkshift","",""
"","","","","","html-slider-response","116","513452","0.0-112.0","wl5jbltu2w","1","NaN","<div style=""width:500px;"">
                            <p style=""font-size:50px; font-weight:bold;""
                            >negative</p>
                            <div style=""width:240px; margin: auto;"">
                                <img src=""images/Y_D_U_2_darkshift.png"" style= ""width:200px""alt=""img"">
                            </div>
                        </div>","53","","0","images/Y_D_U_2_darkshift.png","","","","negative","1","Y","D","U","darkshift","",""
"","","","","","html-slider-response","117","514819","0.0-113.0","wl5jbltu2w","1","NaN","<div style=""width:500px;"">
                            <p style=""font-size:50px; font-weight:bold;""
                            >negative</p>
                            <div style=""width:240px; margin: auto;"">
                                <img src=""images/B_L_U_28_lightshift.png"" style= ""width:200px""alt=""img"">
                            </div>
                        </div>","-33","","0","images/B_L_U_28_lightshift.png","","","","negative","1","B","L","U","lightshift","",""
"","","","","","html-slider-response","118","516080","0.0-114.0","wl5jbltu2w","1","NaN","<div style=""width:500px;"">
                            <p style=""font-size:50px; font-weight:bold;""
                            >negative</p>
                            <div style=""width:240px; margin: auto;"">
                                <img src=""images/G_L_S_13_lightshift.png"" style= ""width:200px""alt=""img"">
                            </div>
                        </div>","-77","","0","images/G_L_S_13_lightshift.png","","","","negative","2","G","L","S","lightshift","",""
"","","","","","html-slider-response","119","517521","0.0-115.0","wl5jbltu2w","1","NaN","<div style=""width:500px;"">
                            <p style=""font-size:50px; font-weight:bold;""
                            >negative</p>
                            <div style=""width:240px; margin: auto;"">
                                <img src=""images/G_L_U_15_lightshift.png"" style= ""width:200px""alt=""img"">
                            </div>
                        </div>","42","","0","images/G_L_U_15_lightshift.png","","","","negative","2","G","L","U","lightshift","",""
"","","","","","html-slider-response","120","519400","0.0-116.0","wl5jbltu2w","1","NaN","<div style=""width:500px;"">
                            <p style=""font-size:50px; font-weight:bold;""
                            >negative</p>
                            <div style=""width:240px; margin: auto;"">
                                <img src=""images/G_D_U_26_lightshift.png"" style= ""width:200px""alt=""img"">
                            </div>
                        </div>","106","","0","images/G_D_U_26_lightshift.png","","","","negative","1","G","D","U","lightshift","",""
"","","","","","html-slider-response","121","520902","0.0-117.0","wl5jbltu2w","1","NaN","<div style=""width:500px;"">
                            <p style=""font-size:50px; font-weight:bold;""
                            >negative</p>
                            <div style=""width:240px; margin: auto;"">
                                <img src=""images/R_L_S_5_darkshift.png"" style= ""width:200px""alt=""img"">
                            </div>
                        </div>","21","","0","images/R_L_S_5_darkshift.png","","","","negative","2","R","L","S","darkshift","",""
"","","","","","html-slider-response","122","522336","0.0-118.0","wl5jbltu2w","1","NaN","<div style=""width:500px;"">
                            <p style=""font-size:50px; font-weight:bold;""
                            >negative</p>
                            <div style=""width:240px; margin: auto;"">
                                <img src=""images/G_D_S_23_darkshift.png"" style= ""width:200px""alt=""img"">
                            </div>
                        </div>","58","","0","images/G_D_S_23_darkshift.png","","","","negative","1","G","D","S","darkshift","",""
"","","","","","html-slider-response","123","523615","0.0-119.0","wl5jbltu2w","1","NaN","<div style=""width:500px;"">
                            <p style=""font-size:50px; font-weight:bold;""
                            >negative</p>
                            <div style=""width:240px; margin: auto;"">
                                <img src=""images/G_L_S_13_darkshift.png"" style= ""width:200px""alt=""img"">
                            </div>
                        </div>","-90","","0","images/G_L_S_13_darkshift.png","","","","negative","1","G","L","S","darkshift","",""
"","","","","","html-slider-response","124","524934","0.0-120.0","wl5jbltu2w","1","NaN","<div style=""width:500px;"">
                            <p style=""font-size:50px; font-weight:bold;""
                            >negative</p>
                            <div style=""width:240px; margin: auto;"">
                                <img src=""images/B_D_S_30_darkshift.png"" style= ""width:200px""alt=""img"">
                            </div>
                        </div>","-114","","0","images/B_D_S_30_darkshift.png","","","","negative","2","B","D","S","darkshift","",""
"","","","","","html-slider-response","125","526367","0.0-121.0","wl5jbltu2w","1","NaN","<div style=""width:500px;"">
                            <p style=""font-size:50px; font-weight:bold;""
                            >negative</p>
                            <div style=""width:240px; margin: auto;"">
                                <img src=""images/B_D_U_33_darkshift.png"" style= ""width:200px""alt=""img"">
                            </div>
                        </div>","-136","","0","images/B_D_U_33_darkshift.png","","","","negative","2","B","D","U","darkshift","",""
"","","","","","html-slider-response","126","527934","0.0-122.0","wl5jbltu2w","1","NaN","<div style=""width:500px;"">
                            <p style=""font-size:50px; font-weight:bold;""
                            >negative</p>
                            <div style=""width:240px; margin: auto;"">
                                <img src=""images/R_D_S_10_lightshift.png"" style= ""width:200px""alt=""img"">
                            </div>
                        </div>","-21","","0","images/R_D_S_10_lightshift.png","","","","negative","1","R","D","S","lightshift","",""
"","","","","","html-slider-response","127","531538","0.0-123.0","wl5jbltu2w","1","NaN","<div style=""width:500px;"">
                            <p style=""font-size:50px; font-weight:bold;""
                            >negative</p>
                            <div style=""width:240px; margin: auto;"">
                                <img src=""images/B_L_U_28_darkshift.png"" style= ""width:200px""alt=""img"">
                            </div>
                        </div>","-55","","0","images/B_L_U_28_darkshift.png","","","","negative","1","B","L","U","darkshift","",""
"","","","","","html-slider-response","128","532898","0.0-124.0","wl5jbltu2w","1","NaN","<div style=""width:500px;"">
                            <p style=""font-size:50px; font-weight:bold;""
                            >negative</p>
                            <div style=""width:240px; margin: auto;"">
                                <img src=""images/R_D_U_12_darkshift.png"" style= ""width:200px""alt=""img"">
                            </div>
                        </div>","54","","0","images/R_D_U_12_darkshift.png","","","","negative","1","R","D","U","darkshift","",""
"","","","","","html-slider-response","129","534368","0.0-125.0","wl5jbltu2w","1","NaN","<div style=""width:500px;"">
                            <p style=""font-size:50px; font-weight:bold;""
                            >negative</p>
                            <div style=""width:240px; margin: auto;"">
                                <img src=""images/Y_D_S_44_lightshift.png"" style= ""width:200px""alt=""img"">
                            </div>
                        </div>","150","","0","images/Y_D_S_44_lightshift.png","","","","negative","1","Y","D","S","lightshift","",""
"","","","","","html-slider-response","130","535801","0.0-126.0","wl5jbltu2w","1","NaN","<div style=""width:500px;"">
                            <p style=""font-size:50px; font-weight:bold;""
                            >negative</p>
                            <div style=""width:240px; margin: auto;"">
                                <img src=""images/G_L_U_15_darkshift.png"" style= ""width:200px""alt=""img"">
                            </div>
                        </div>","-44","","0","images/G_L_U_15_darkshift.png","","","","negative","2","G","L","U","darkshift","",""
"","","","","","html-slider-response","131","537293","0.0-127.0","wl5jbltu2w","1","NaN","<div style=""width:500px;"">
                            <p style=""font-size:50px; font-weight:bold;""
                            >negative</p>
                            <div style=""width:240px; margin: auto;"">
                                <img src=""images/G_D_S_23_darkshift.png"" style= ""width:200px""alt=""img"">
                            </div>
                        </div>","73","","0","images/G_D_S_23_darkshift.png","","","","negative","2","G","D","S","darkshift","",""
"","","","","","html-slider-response","132","538615","0.0-128.0","wl5jbltu2w","1","NaN","<div style=""width:500px;"">
                            <p style=""font-size:50px; font-weight:bold;""
                            >negative</p>
                            <div style=""width:240px; margin: auto;"">
                                <img src=""images/R_L_U_7_lightshift.png"" style= ""width:200px""alt=""img"">
                            </div>
                        </div>","-75","","0","images/R_L_U_7_lightshift.png","","","","negative","1","R","L","U","lightshift","",""
"","","","","","html-slider-response","133","541984","0.0-129.0","wl5jbltu2w","1","NaN","<div style=""width:500px;"">
                            <p style=""font-size:50px; font-weight:bold;""
                            >negative</p>
                            <div style=""width:240px; margin: auto;"">
                                <img src=""images/G_L_U_15_lightshift.png"" style= ""width:200px""alt=""img"">
                            </div>
                        </div>","-66","","0","images/G_L_U_15_lightshift.png","","","","negative","1","G","L","U","lightshift","",""
"","","","","","html-slider-response","134","543381","0.0-130.0","wl5jbltu2w","1","NaN","<div style=""width:500px;"">
                            <p style=""font-size:50px; font-weight:bold;""
                            >negative</p>
                            <div style=""width:240px; margin: auto;"">
                                <img src=""images/G_L_U_15_darkshift.png"" style= ""width:200px""alt=""img"">
                            </div>
                        </div>","-118","","0","images/G_L_U_15_darkshift.png","","","","negative","1","G","L","U","darkshift","",""
"","","","","","html-slider-response","135","545266","0.0-131.0","wl5jbltu2w","1","NaN","<div style=""width:500px;"">
                            <p style=""font-size:50px; font-weight:bold;""
                            >negative</p>
                            <div style=""width:240px; margin: auto;"">
                                <img src=""images/Y_L_S_37_darkshift.png"" style= ""width:200px""alt=""img"">
                            </div>
                        </div>","122","","0","images/Y_L_S_37_darkshift.png","","","","negative","1","Y","L","S","darkshift","",""
"","","","","","html-slider-response","136","548508","0.0-132.0","wl5jbltu2w","1","NaN","<div style=""width:500px;"">
                            <p style=""font-size:50px; font-weight:bold;""
                            >negative</p>
                            <div style=""width:240px; margin: auto;"">
                                <img src=""images/B_D_S_30_darkshift.png"" style= ""width:200px""alt=""img"">
                            </div>
                        </div>","-75","","0","images/B_D_S_30_darkshift.png","","","","negative","1","B","D","S","darkshift","",""
"","","","","","html-slider-response","137","550496","0.0-133.0","wl5jbltu2w","1","NaN","<div style=""width:500px;"">
                            <p style=""font-size:50px; font-weight:bold;""
                            >negative</p>
                            <div style=""width:240px; margin: auto;"">
                                <img src=""images/R_L_S_5_lightshift.png"" style= ""width:200px""alt=""img"">
                            </div>
                        </div>","-36","","0","images/R_L_S_5_lightshift.png","","","","negative","1","R","L","S","lightshift","",""
"","","","","","html-slider-response","138","551851","0.0-134.0","wl5jbltu2w","1","NaN","<div style=""width:500px;"">
                            <p style=""font-size:50px; font-weight:bold;""
                            >negative</p>
                            <div style=""width:240px; margin: auto;"">
                                <img src=""images/Y_L_S_37_darkshift.png"" style= ""width:200px""alt=""img"">
                            </div>
                        </div>","83","","0","images/Y_L_S_37_darkshift.png","","","","negative","2","Y","L","S","darkshift","",""
"","","","","","html-slider-response","139","553192","0.0-135.0","wl5jbltu2w","1","NaN","<div style=""width:500px;"">
                            <p style=""font-size:50px; font-weight:bold;""
                            >negative</p>
                            <div style=""width:240px; margin: auto;"">
                                <img src=""images/Y_L_S_37_lightshift.png"" style= ""width:200px""alt=""img"">
                            </div>
                        </div>","112","","0","images/Y_L_S_37_lightshift.png","","","","negative","2","Y","L","S","lightshift","",""
"","","","","","html-slider-response","140","554803","0.0-136.0","wl5jbltu2w","1","NaN","<div style=""width:500px;"">
                            <p style=""font-size:50px; font-weight:bold;""
                            >negative</p>
                            <div style=""width:240px; margin: auto;"">
                                <img src=""images/B_D_S_30_lightshift.png"" style= ""width:200px""alt=""img"">
                            </div>
                        </div>","-49","","0","images/B_D_S_30_lightshift.png","","","","negative","2","B","D","S","lightshift","",""
"","","","","","html-slider-response","141","557142","0.0-137.0","wl5jbltu2w","1","NaN","<div style=""width:500px;"">
                            <p style=""font-size:50px; font-weight:bold;""
                            >negative</p>
                            <div style=""width:240px; margin: auto;"">
                                <img src=""images/G_D_U_26_darkshift.png"" style= ""width:200px""alt=""img"">
                            </div>
                        </div>","66","","0","images/G_D_U_26_darkshift.png","","","","negative","2","G","D","U","darkshift","",""
"","","","","","html-slider-response","142","561008","0.0-138.0","wl5jbltu2w","1","NaN","<div style=""width:500px;"">
                            <p style=""font-size:50px; font-weight:bold;""
                            >negative</p>
                            <div style=""width:240px; margin: auto;"">
                                <img src=""images/R_D_S_10_darkshift.png"" style= ""width:200px""alt=""img"">
                            </div>
                        </div>","-68","","0","images/R_D_S_10_darkshift.png","","","","negative","2","R","D","S","darkshift","",""
"","","","","","html-slider-response","143","565757","0.0-139.0","wl5jbltu2w","1","NaN","<div style=""width:500px;"">
                            <p style=""font-size:50px; font-weight:bold;""
                            >negative</p>
                            <div style=""width:240px; margin: auto;"">
                                <img src=""images/R_D_U_12_lightshift.png"" style= ""width:200px""alt=""img"">
                            </div>
                        </div>","-76","","0","images/R_D_U_12_lightshift.png","","","","negative","2","R","D","U","lightshift","",""
"","","","","","html-slider-response","144","569387","0.0-140.0","wl5jbltu2w","1","NaN","<div style=""width:500px;"">
                            <p style=""font-size:50px; font-weight:bold;""
                            >negative</p>
                            <div style=""width:240px; margin: auto;"">
                                <img src=""images/B_L_U_28_lightshift.png"" style= ""width:200px""alt=""img"">
                            </div>
                        </div>","29","","0","images/B_L_U_28_lightshift.png","","","","negative","2","B","L","U","lightshift","",""
"","","","","","html-slider-response","145","570804","0.0-141.0","wl5jbltu2w","1","NaN","<div style=""width:500px;"">
                            <p style=""font-size:50px; font-weight:bold;""
                            >negative</p>
                            <div style=""width:240px; margin: auto;"">
                                <img src=""images/G_D_U_26_darkshift.png"" style= ""width:200px""alt=""img"">
                            </div>
                        </div>","101","","0","images/G_D_U_26_darkshift.png","","","","negative","1","G","D","U","darkshift","",""
"","","","","","html-slider-response","146","572272","0.0-142.0","wl5jbltu2w","1","NaN","<div style=""width:500px;"">
                            <p style=""font-size:50px; font-weight:bold;""
                            >negative</p>
                            <div style=""width:240px; margin: auto;"">
                                <img src=""images/Y_L_S_37_lightshift.png"" style= ""width:200px""alt=""img"">
                            </div>
                        </div>","150","","0","images/Y_L_S_37_lightshift.png","","","","negative","1","Y","L","S","lightshift","",""
"","","","","","html-slider-response","147","573921","0.0-143.0","wl5jbltu2w","1","NaN","<div style=""width:500px;"">
                            <p style=""font-size:50px; font-weight:bold;""
                            >negative</p>
                            <div style=""width:240px; margin: auto;"">
                                <img src=""images/B_D_U_33_lightshift.png"" style= ""width:200px""alt=""img"">
                            </div>
                        </div>","48","","0","images/B_D_U_33_lightshift.png","","","","negative","2","B","D","U","lightshift","",""
"","","","","","html-button-response","148","575090","0.0-144.0","wl5jbltu2w","1","667","<p>Great Job! You've finished block 2.<br></br> You have 2 block(s) left to go.<br></br></p>","0","","","","","","","","","","","","","",""
"","","","","","html-button-response","149","575799","0.0-145.0","wl5jbltu2w","1","709","<p>In this block of trials, you will be asked to rate how much you associate each map with:</p > <p style = 'font-size:150%; font-weight: bold'>positive</p><br></br>","0","","","","","","","","","","","","","",""
"","","","","","html-slider-response","150","580147","0.0-146.0","wl5jbltu2w","1","NaN","<div style=""width:500px;"">
                            <p style=""font-size:50px; font-weight:bold;""
                            >positive</p>
                            <div style=""width:240px; margin: auto;"">
                                <img src=""images/G_D_U_26_darkshift.png"" style= ""width:200px""alt=""img"">
                            </div>
                        </div>","-103","","0","images/G_D_U_26_darkshift.png","","","","positive","2","G","D","U","darkshift","",""
"","","","","","html-slider-response","151","581768","0.0-147.0","wl5jbltu2w","1","NaN","<div style=""width:500px;"">
                            <p style=""font-size:50px; font-weight:bold;""
                            >positive</p>
                            <div style=""width:240px; margin: auto;"">
                                <img src=""images/G_D_U_26_lightshift.png"" style= ""width:200px""alt=""img"">
                            </div>
                        </div>","-22","","0","images/G_D_U_26_lightshift.png","","","","positive","1","G","D","U","lightshift","",""
"","","","","","html-slider-response","152","583245","0.0-148.0","wl5jbltu2w","1","NaN","<div style=""width:500px;"">
                            <p style=""font-size:50px; font-weight:bold;""
                            >positive</p>
                            <div style=""width:240px; margin: auto;"">
                                <img src=""images/G_L_U_15_lightshift.png"" style= ""width:200px""alt=""img"">
                            </div>
                        </div>","16","","0","images/G_L_U_15_lightshift.png","","","","positive","1","G","L","U","lightshift","",""
"","","","","","html-slider-response","153","584689","0.0-149.0","wl5jbltu2w","1","NaN","<div style=""width:500px;"">
                            <p style=""font-size:50px; font-weight:bold;""
                            >positive</p>
                            <div style=""width:240px; margin: auto;"">
                                <img src=""images/B_L_U_28_darkshift.png"" style= ""width:200px""alt=""img"">
                            </div>
                        </div>","31","","0","images/B_L_U_28_darkshift.png","","","","positive","2","B","L","U","darkshift","",""
"","","","","","html-slider-response","154","586257","0.0-150.0","wl5jbltu2w","1","NaN","<div style=""width:500px;"">
                            <p style=""font-size:50px; font-weight:bold;""
                            >positive</p>
                            <div style=""width:240px; margin: auto;"">
                                <img src=""images/R_L_U_7_darkshift.png"" style= ""width:200px""alt=""img"">
                            </div>
                        </div>","-36","","0","images/R_L_U_7_darkshift.png","","","","positive","2","R","L","U","darkshift","",""
"","","","","","html-slider-response","155","587710","0.0-151.0","wl5jbltu2w","1","NaN","<div style=""width:500px;"">
                            <p style=""font-size:50px; font-weight:bold;""
                            >positive</p>
                            <div style=""width:240px; margin: auto;"">
                                <img src=""images/G_D_U_26_lightshift.png"" style= ""width:200px""alt=""img"">
                            </div>
                        </div>","-28","","0","images/G_D_U_26_lightshift.png","","","","positive","2","G","D","U","lightshift","",""
"","","","","","html-slider-response","156","589379","0.0-152.0","wl5jbltu2w","1","NaN","<div style=""width:500px;"">
                            <p style=""font-size:50px; font-weight:bold;""
                            >positive</p>
                            <div style=""width:240px; margin: auto;"">
                                <img src=""images/Y_L_S_37_darkshift.png"" style= ""width:200px""alt=""img"">
                            </div>
                        </div>","-28","","0","images/Y_L_S_37_darkshift.png","","","","positive","1","Y","L","S","darkshift","",""
"","","","","","html-slider-response","157","593650","0.0-153.0","wl5jbltu2w","1","NaN","<div style=""width:500px;"">
                            <p style=""font-size:50px; font-weight:bold;""
                            >positive</p>
                            <div style=""width:240px; margin: auto;"">
                                <img src=""images/Y_D_S_44_darkshift.png"" style= ""width:200px""alt=""img"">
                            </div>
                        </div>","-181","","0","images/Y_D_S_44_darkshift.png","","","","positive","2","Y","D","S","darkshift","",""
"","","","","","html-slider-response","158","595340","0.0-154.0","wl5jbltu2w","1","NaN","<div style=""width:500px;"">
                            <p style=""font-size:50px; font-weight:bold;""
                            >positive</p>
                            <div style=""width:240px; margin: auto;"">
                                <img src=""images/Y_L_S_37_darkshift.png"" style= ""width:200px""alt=""img"">
                            </div>
                        </div>","-37","","0","images/Y_L_S_37_darkshift.png","","","","positive","2","Y","L","S","darkshift","",""
"","","","","","html-slider-response","159","596875","0.0-155.0","wl5jbltu2w","1","NaN","<div style=""width:500px;"">
                            <p style=""font-size:50px; font-weight:bold;""
                            >positive</p>
                            <div style=""width:240px; margin: auto;"">
                                <img src=""images/R_D_U_12_darkshift.png"" style= ""width:200px""alt=""img"">
                            </div>
                        </div>","-17","","0","images/R_D_U_12_darkshift.png","","","","positive","1","R","D","U","darkshift","",""
"","","","","","html-slider-response","160","598632","0.0-156.0","wl5jbltu2w","1","NaN","<div style=""width:500px;"">
                            <p style=""font-size:50px; font-weight:bold;""
                            >positive</p>
                            <div style=""width:240px; margin: auto;"">
                                <img src=""images/Y_D_U_2_lightshift.png"" style= ""width:200px""alt=""img"">
                            </div>
                        </div>","-153","","0","images/Y_D_U_2_lightshift.png","","","","positive","1","Y","D","U","lightshift","",""
"","","","","","html-slider-response","161","600477","0.0-157.0","wl5jbltu2w","1","NaN","<div style=""width:500px;"">
                            <p style=""font-size:50px; font-weight:bold;""
                            >positive</p>
                            <div style=""width:240px; margin: auto;"">
                                <img src=""images/Y_L_U_41_lightshift.png"" style= ""width:200px""alt=""img"">
                            </div>
                        </div>","11","","0","images/Y_L_U_41_lightshift.png","","","","positive","2","Y","L","U","lightshift","",""
"","","","","","html-slider-response","162","601821","0.0-158.0","wl5jbltu2w","1","NaN","<div style=""width:500px;"">
                            <p style=""font-size:50px; font-weight:bold;""
                            >positive</p>
                            <div style=""width:240px; margin: auto;"">
                                <img src=""images/B_L_U_28_lightshift.png"" style= ""width:200px""alt=""img"">
                            </div>
                        </div>","46","","0","images/B_L_U_28_lightshift.png","","","","positive","2","B","L","U","lightshift","",""
"","","","","","html-slider-response","163","603355","0.0-159.0","wl5jbltu2w","1","NaN","<div style=""width:500px;"">
                            <p style=""font-size:50px; font-weight:bold;""
                            >positive</p>
                            <div style=""width:240px; margin: auto;"">
                                <img src=""images/G_L_S_13_darkshift.png"" style= ""width:200px""alt=""img"">
                            </div>
                        </div>","76","","0","images/G_L_S_13_darkshift.png","","","","positive","2","G","L","S","darkshift","",""
"","","","","","html-slider-response","164","604873","0.0-160.0","wl5jbltu2w","1","NaN","<div style=""width:500px;"">
                            <p style=""font-size:50px; font-weight:bold;""
                            >positive</p>
                            <div style=""width:240px; margin: auto;"">
                                <img src=""images/B_D_U_33_lightshift.png"" style= ""width:200px""alt=""img"">
                            </div>
                        </div>","-18","","0","images/B_D_U_33_lightshift.png","","","","positive","1","B","D","U","lightshift","",""
"","","","","","html-slider-response","165","606414","0.0-161.0","wl5jbltu2w","1","NaN","<div style=""width:500px;"">
                            <p style=""font-size:50px; font-weight:bold;""
                            >positive</p>
                            <div style=""width:240px; margin: auto;"">
                                <img src=""images/R_L_S_5_darkshift.png"" style= ""width:200px""alt=""img"">
                            </div>
                        </div>","124","","0","images/R_L_S_5_darkshift.png","","","","positive","1","R","L","S","darkshift","",""
"","","","","","html-slider-response","166","607932","0.0-162.0","wl5jbltu2w","1","NaN","<div style=""width:500px;"">
                            <p style=""font-size:50px; font-weight:bold;""
                            >positive</p>
                            <div style=""width:240px; margin: auto;"">
                                <img src=""images/R_D_S_10_lightshift.png"" style= ""width:200px""alt=""img"">
                            </div>
                        </div>","106","","0","images/R_D_S_10_lightshift.png","","","","positive","2","R","D","S","lightshift","",""
"","","","","","html-slider-response","167","609250","0.0-163.0","wl5jbltu2w","1","NaN","<div style=""width:500px;"">
                            <p style=""font-size:50px; font-weight:bold;""
                            >positive</p>
                            <div style=""width:240px; margin: auto;"">
                                <img src=""images/B_D_S_30_lightshift.png"" style= ""width:200px""alt=""img"">
                            </div>
                        </div>","-26","","0","images/B_D_S_30_lightshift.png","","","","positive","2","B","D","S","lightshift","",""
"","","","","","html-slider-response","168","611065","0.0-164.0","wl5jbltu2w","1","NaN","<div style=""width:500px;"">
                            <p style=""font-size:50px; font-weight:bold;""
                            >positive</p>
                            <div style=""width:240px; margin: auto;"">
                                <img src=""images/R_L_U_7_lightshift.png"" style= ""width:200px""alt=""img"">
                            </div>
                        </div>","14","","0","images/R_L_U_7_lightshift.png","","","","positive","1","R","L","U","lightshift","",""
"","","","","","html-slider-response","169","612360","0.0-165.0","wl5jbltu2w","1","NaN","<div style=""width:500px;"">
                            <p style=""font-size:50px; font-weight:bold;""
                            >positive</p>
                            <div style=""width:240px; margin: auto;"">
                                <img src=""images/B_L_U_28_lightshift.png"" style= ""width:200px""alt=""img"">
                            </div>
                        </div>","12","","0","images/B_L_U_28_lightshift.png","","","","positive","1","B","L","U","lightshift","",""
"","","","","","html-slider-response","170","613811","0.0-166.0","wl5jbltu2w","1","NaN","<div style=""width:500px;"">
                            <p style=""font-size:50px; font-weight:bold;""
                            >positive</p>
                            <div style=""width:240px; margin: auto;"">
                                <img src=""images/Y_L_S_37_lightshift.png"" style= ""width:200px""alt=""img"">
                            </div>
                        </div>","50","","0","images/Y_L_S_37_lightshift.png","","","","positive","1","Y","L","S","lightshift","",""
"","","","","","html-slider-response","171","615460","0.0-167.0","wl5jbltu2w","1","NaN","<div style=""width:500px;"">
                            <p style=""font-size:50px; font-weight:bold;""
                            >positive</p>
                            <div style=""width:240px; margin: auto;"">
                                <img src=""images/G_L_S_13_lightshift.png"" style= ""width:200px""alt=""img"">
                            </div>
                        </div>","54","","0","images/G_L_S_13_lightshift.png","","","","positive","2","G","L","S","lightshift","",""
"","","","","","html-slider-response","172","616943","0.0-168.0","wl5jbltu2w","1","NaN","<div style=""width:500px;"">
                            <p style=""font-size:50px; font-weight:bold;""
                            >positive</p>
                            <div style=""width:240px; margin: auto;"">
                                <img src=""images/Y_L_U_41_darkshift.png"" style= ""width:200px""alt=""img"">
                            </div>
