"success","timeout","failed_images","failed_audio","failed_video","trial_type","trial_index","time_elapsed","internal_node_id","subject_id","condition_num","rt","stimulus","response","question_order","slider_start","image_path","practiceTrial","practiceTrialNum","correct","concept","repetition","hue","lightness","saturation","shift","ishihara_plate","correct_response"
"true","false","[]","[]","[]","preload","0","234","0.0-0.0","x8pr6nbhdd","6","","","","","","","","","","","","","","","","",""
"","","","","","html-button-response","1","4597","0.0-1.0","x8pr6nbhdd","6","4361","Welcome to our experiment!<p>At the bottom of this screen, you will see a button that says ""Begin Experiment"".<br>Please only click that button when you are ready to complete the 25 minute experiment in one sitting.</p><p> Once you click that button, it will not be possible to restart the experiment.","0","","","","","","","","","","","","","",""
"true","","","","","fullscreen","2","7566","0.0-2.0","x8pr6nbhdd","6","1966","","","","","","","","","","","","","","","",""
"","","","","","survey-multi-select","3","38654","0.0-3.0","x8pr6nbhdd","6","31083","","{""Consent"":[""<strong>I consent</strong>""]}","[0]","","","","","","","","","","","","",""
"","","","","","html-button-response","4","39932","0.0-4.0","x8pr6nbhdd","6","1277","Welcome! <p> This experiment involves two parts: demographic information, followed by the experimental task.<p> It will take about 25 minutes to complete both parts.","0","","","","","","","","","","","","","",""
"","","","","","survey-text","5","50904","0.0-5.0","x8pr6nbhdd","6","10966","","{""Age"":""18"",""Gender"":""Female"",""Race/ethnicity"":""White"",""Languages"":""English""}","","","","","","","","","","","","","",""
"","","","","","html-slider-response","6","87825","0.0-6.0","x8pr6nbhdd","6","36919","
                            <div style='text-align:left; font-size:20px; line-height:25px; width: 1400px;'>
                                During this experiment you will be asked to rate how much you associate maps with                    different concepts.<br> Below, you can see some examples of the maps you will be asked to rate. Next to the maps
                    is the list of concepts.<br>You will be asked                    to rate how much you associate each map with each concept on a scale from 'not at all' to 'very much' like the
                    one below. <br><br>
                    Now, please look at the list of concepts and maps. For each concept, think about the map you associate 'very
                    much' with the concept.<br>                     When you see that map during the experiment, please rate it near the 'very much' endpoint of the
                    scale.<br>Now, please think about which map you associate 'not at all'                     with each concept. When you see that map during the experiment, please rate it near the 'not at all' endpoint
                    of the scale.<br>
                    Please use the full range of the scale. That is, if a map is somewhat associated with the concept, you would
                    click partway between the middle point and right side of the scale.                    You will be asked to rate each map for a given concept before moving on to the next concept.<br><br>Press the
                    'Continue' button for instructions on how to use the slider.                    <br><br>
                </div>

                <div style=""width: 500px; margin: 0 auto;"">
                    <!-- Centered text paragraphs -->
                    <div style=""text-align: center; width: 500px;"">
                        <p style=""font-size:25px; line-height:18px;"">calm</p>
                        <p style=""font-size:25px; line-height:18px;"">positive</p>
                        <p style=""font-size:25px;line-height:18px;"">negative</p>
                        <p style=""font-size:25px;line-height:18px;"">startling</p>
                    </div>

                    <!-- Grid section -->
                   <div style=""display: flex; justify-content: center; padding-top: 15px;"">
                    <div style=""display: grid; grid-template-columns: repeat(8, 80px); grid-gap: 5px; width: auto;"">
                        <img src=""images/G_L_S_28_darkshift.png"" alt=""map"" style=""width: 100%;""><img src=""images/G_D_U_37_darkshift.png"" alt=""map"" style=""width: 100%;""><img src=""images/R_D_S_26_darkshift.png"" alt=""map"" style=""width: 100%;""><img src=""images/R_L_S_15_lightshift.png"" alt=""map"" style=""width: 100%;""><img src=""images/Y_L_U_10_lightshift.png"" alt=""map"" style=""width: 100%;""><img src=""images/Y_D_S_12_lightshift.png"" alt=""map"" style=""width: 100%;""><img src=""images/G_D_S_33_darkshift.png"" alt=""map"" style=""width: 100%;""><img src=""images/R_D_U_27_darkshift.png"" alt=""map"" style=""width: 100%;""><img src=""images/Y_L_U_10_darkshift.png"" alt=""map"" style=""width: 100%;""><img src=""images/G_L_S_28_lightshift.png"" alt=""map"" style=""width: 100%;""><img src=""images/B_L_U_44_darkshift.png"" alt=""map"" style=""width: 100%;""><img src=""images/R_D_S_26_lightshift.png"" alt=""map"" style=""width: 100%;""><img src=""images/R_D_U_27_lightshift.png"" alt=""map"" style=""width: 100%;""><img src=""images/B_D_S_2_darkshift.png"" alt=""map"" style=""width: 100%;""><img src=""images/R_L_U_23_lightshift.png"" alt=""map"" style=""width: 100%;""><img src=""images/B_D_U_5_darkshift.png"" alt=""map"" style=""width: 100%;""><img src=""images/Y_L_S_7_darkshift.png"" alt=""map"" style=""width: 100%;""><img src=""images/R_L_U_23_darkshift.png"" alt=""map"" style=""width: 100%;""><img src=""images/G_L_U_30_lightshift.png"" alt=""map"" style=""width: 100%;""><img src=""images/B_D_U_5_lightshift.png"" alt=""map"" style=""width: 100%;""><img src=""images/Y_D_U_13_lightshift.png"" alt=""map"" style=""width: 100%;""><img src=""images/G_D_U_37_lightshift.png"" alt=""map"" style=""width: 100%;""><img src=""images/B_L_U_44_lightshift.png"" alt=""map"" style=""width: 100%;""><img src=""images/B_D_S_2_lightshift.png"" alt=""map"" style=""width: 100%;""><img src=""images/B_L_S_41_lightshift.png"" alt=""map"" style=""width: 100%;""><img src=""images/R_L_S_15_darkshift.png"" alt=""map"" style=""width: 100%;""><img src=""images/Y_D_U_13_darkshift.png"" alt=""map"" style=""width: 100%;""><img src=""images/B_L_S_41_darkshift.png"" alt=""map"" style=""width: 100%;""><img src=""images/Y_D_S_12_darkshift.png"" alt=""map"" style=""width: 100%;""><img src=""images/Y_L_S_7_lightshift.png"" alt=""map"" style=""width: 100%;""><img src=""images/G_D_S_33_lightshift.png"" alt=""map"" style=""width: 100%;""><img src=""images/G_L_U_30_darkshift.png"" alt=""map"" style=""width: 100%;"">
                    </div>
                </div>

                    <!-- Clear floats -->
                    <div style=""clear: both;""></div>
                </div>
                            ","null","","0","maps_anchoring.png","true","","","","","","","","","",""
"","","","","","html-button-response","7","89960","0.0-7.0","x8pr6nbhdd","6","2134","<div style=""width:800px;""><p style=""text-align:left"">To move the slider, click and drag your cursor to the location of the scale where you would like to make your rating and then let go. When you let go of the slider, your response will be recorded and the next trial will begin. <br>
                    We are interested in your initial impressions of each map for the given concept, so please go with your first intuition. <br>
                    Before you begin the experiment, there will be four training trials for you to practice using the scale. <br>
                     When you are ready to start the training trials, please click ""Continue"".</p><br></div>","0","","","","","","","","","","","","","",""
"","","","","","html-slider-response","8","92831","0.0-8.0-0.0","x8pr6nbhdd","6","NaN","<div style=""width:500px;"">
                                    <p style=""font-size:25px;"">Please move the slider all the way to the <br> right endpoint of the scale</p>

                                    </div>
                                </div>","200","","0","","true","0","true","","","","","","","",""
"","","","","","html-button-response","9","94205","0.0-8.0-1.0","x8pr6nbhdd","6","872","<p align='center'><b>Good job!</b> Click on 'Continue' to proceed.</p>","0","","","","","","","","","","","","","",""
"","","","","","html-slider-response","10","95838","0.0-9.0-0.0","x8pr6nbhdd","6","NaN","<div style=""width:500px;"">
                                    <p style=""font-size:25px;"">Please move the slider all the way to the <br> left endpoint of the scale</p>

                                    </div>
                                </div>","-200","","0","","true","1","true","","","","","","","",""
"","","","","","html-button-response","11","97195","0.0-9.0-1.0","x8pr6nbhdd","6","855","<p align='center'><b>Good job!</b> Click on 'Continue' to proceed.</p>","0","","","","","","","","","","","","","",""
"","","","","","html-slider-response","12","99836","0.0-10.0-0.0","x8pr6nbhdd","6","NaN","<div style=""width:500px;"">
                                    <p style=""font-size:25px;"">Please move the slider halfway between the center and right endpoint of the scale</p>

                                    </div>
                                </div>","81","","0","","true","2","true","","","","","","","",""
"","","","","","html-button-response","13","101009","0.0-10.0-1.0","x8pr6nbhdd","6","671","<p align='center'><b>Good job!</b> Click on 'Continue' to proceed.</p>","0","","","","","","","","","","","","","",""
"","","","","","html-slider-response","14","102762","0.0-11.0-0.0","x8pr6nbhdd","6","NaN","<div style=""width:500px;"">
                                    <p style=""font-size:25px;"">Please move the slider halfway between the center and left endpoint of the scale</p>

                                    </div>
                                </div>","-106","","0","","true","3","true","","","","","","","",""
"","","","","","html-button-response","15","103991","0.0-11.0-1.0","x8pr6nbhdd","6","727","<p align='center'><b>Good job!</b> Click on 'Continue' to proceed.</p>","0","","","","","","","","","","","","","",""
"","","","","","html-button-response","16","106118","0.0-12.0","x8pr6nbhdd","6","2126","<p>Great job! You've completed the practice trials. Now you will begin the main task.</p>","0","","","","","","","","","","","","","",""
"","","","","","html-button-response","17","109692","0.0-13.0","x8pr6nbhdd","6","3573","<p>In this block of trials, you will be asked to rate how much you associate each map with:</p > <p style = 'font-size:150%; font-weight: bold'>calm</p><br></br>","0","","","","","","","","","","","","","",""
"","","","","","html-slider-response","18","113357","0.0-14.0","x8pr6nbhdd","6","NaN","<div style=""width:500px;"">
                            <p style=""font-size:50px; font-weight:bold;""
                            >calm</p>
                            <div style=""width:240px; margin: auto;"">
                                <img src=""images/G_D_S_33_lightshift.png"" style= ""width:200px""alt=""img"">
                            </div>
                        </div>","17","","0","images/G_D_S_33_lightshift.png","","","","calm","2","G","D","S","lightshift","",""
"","","","","","html-slider-response","19","118273","0.0-15.0","x8pr6nbhdd","6","NaN","<div style=""width:500px;"">
                            <p style=""font-size:50px; font-weight:bold;""
                            >calm</p>
                            <div style=""width:240px; margin: auto;"">
                                <img src=""images/G_L_S_28_darkshift.png"" style= ""width:200px""alt=""img"">
                            </div>
                        </div>","22","","0","images/G_L_S_28_darkshift.png","","","","calm","2","G","L","S","darkshift","",""
"","","","","","html-slider-response","20","120937","0.0-16.0","x8pr6nbhdd","6","NaN","<div style=""width:500px;"">
                            <p style=""font-size:50px; font-weight:bold;""
                            >calm</p>
                            <div style=""width:240px; margin: auto;"">
                                <img src=""images/R_D_U_27_lightshift.png"" style= ""width:200px""alt=""img"">
                            </div>
                        </div>","-78","","0","images/R_D_U_27_lightshift.png","","","","calm","1","R","D","U","lightshift","",""
"","","","","","html-slider-response","21","123662","0.0-17.0","x8pr6nbhdd","6","NaN","<div style=""width:500px;"">
                            <p style=""font-size:50px; font-weight:bold;""
                            >calm</p>
                            <div style=""width:240px; margin: auto;"">
                                <img src=""images/Y_L_S_7_darkshift.png"" style= ""width:200px""alt=""img"">
                            </div>
                        </div>","-53","","0","images/Y_L_S_7_darkshift.png","","","","calm","2","Y","L","S","darkshift","",""
"","","","","","html-slider-response","22","125980","0.0-18.0","x8pr6nbhdd","6","NaN","<div style=""width:500px;"">
                            <p style=""font-size:50px; font-weight:bold;""
                            >calm</p>
                            <div style=""width:240px; margin: auto;"">
                                <img src=""images/B_D_U_5_lightshift.png"" style= ""width:200px""alt=""img"">
                            </div>
                        </div>","80","","0","images/B_D_U_5_lightshift.png","","","","calm","1","B","D","U","lightshift","",""
"","","","","","html-slider-response","23","128897","0.0-19.0","x8pr6nbhdd","6","NaN","<div style=""width:500px;"">
                            <p style=""font-size:50px; font-weight:bold;""
                            >calm</p>
                            <div style=""width:240px; margin: auto;"">
                                <img src=""images/R_L_S_15_lightshift.png"" style= ""width:200px""alt=""img"">
                            </div>
                        </div>","62","","0","images/R_L_S_15_lightshift.png","","","","calm","1","R","L","S","lightshift","",""
"","","","","","html-slider-response","24","132567","0.0-20.0","x8pr6nbhdd","6","NaN","<div style=""width:500px;"">
                            <p style=""font-size:50px; font-weight:bold;""
                            >calm</p>
                            <div style=""width:240px; margin: auto;"">
                                <img src=""images/R_L_S_15_darkshift.png"" style= ""width:200px""alt=""img"">
                            </div>
                        </div>","-43","","0","images/R_L_S_15_darkshift.png","","","","calm","1","R","L","S","darkshift","",""
"","","","","","html-slider-response","25","135262","0.0-21.0","x8pr6nbhdd","6","NaN","<div style=""width:500px;"">
                            <p style=""font-size:50px; font-weight:bold;""
                            >calm</p>
                            <div style=""width:240px; margin: auto;"">
                                <img src=""images/B_L_S_41_darkshift.png"" style= ""width:200px""alt=""img"">
                            </div>
                        </div>","65","","0","images/B_L_S_41_darkshift.png","","","","calm","1","B","L","S","darkshift","",""
"","","","","","html-slider-response","26","139426","0.0-22.0","x8pr6nbhdd","6","NaN","<div style=""width:500px;"">
                            <p style=""font-size:50px; font-weight:bold;""
                            >calm</p>
                            <div style=""width:240px; margin: auto;"">
                                <img src=""images/Y_L_U_10_darkshift.png"" style= ""width:200px""alt=""img"">
                            </div>
                        </div>","200","","0","images/Y_L_U_10_darkshift.png","","","","calm","2","Y","L","U","darkshift","",""
"","","","","","html-slider-response","27","142057","0.0-23.0","x8pr6nbhdd","6","NaN","<div style=""width:500px;"">
                            <p style=""font-size:50px; font-weight:bold;""
                            >calm</p>
                            <div style=""width:240px; margin: auto;"">
                                <img src=""images/B_D_U_5_darkshift.png"" style= ""width:200px""alt=""img"">
                            </div>
                        </div>","200","","0","images/B_D_U_5_darkshift.png","","","","calm","2","B","D","U","darkshift","",""
"","","","","","html-slider-response","28","144775","0.0-24.0","x8pr6nbhdd","6","NaN","<div style=""width:500px;"">
                            <p style=""font-size:50px; font-weight:bold;""
                            >calm</p>
                            <div style=""width:240px; margin: auto;"">
                                <img src=""images/G_D_S_33_darkshift.png"" style= ""width:200px""alt=""img"">
                            </div>
                        </div>","71","","0","images/G_D_S_33_darkshift.png","","","","calm","2","G","D","S","darkshift","",""
"","","","","","html-slider-response","29","147813","0.0-25.0","x8pr6nbhdd","6","NaN","<div style=""width:500px;"">
                            <p style=""font-size:50px; font-weight:bold;""
                            >calm</p>
                            <div style=""width:240px; margin: auto;"">
                                <img src=""images/Y_D_S_12_darkshift.png"" style= ""width:200px""alt=""img"">
                            </div>
                        </div>","46","","0","images/Y_D_S_12_darkshift.png","","","","calm","2","Y","D","S","darkshift","",""
"","","","","","html-slider-response","30","150692","0.0-26.0","x8pr6nbhdd","6","NaN","<div style=""width:500px;"">
                            <p style=""font-size:50px; font-weight:bold;""
                            >calm</p>
                            <div style=""width:240px; margin: auto;"">
                                <img src=""images/B_D_U_5_darkshift.png"" style= ""width:200px""alt=""img"">
                            </div>
                        </div>","94","","0","images/B_D_U_5_darkshift.png","","","","calm","1","B","D","U","darkshift","",""
"","","","","","html-slider-response","31","154041","0.0-27.0","x8pr6nbhdd","6","NaN","<div style=""width:500px;"">
                            <p style=""font-size:50px; font-weight:bold;""
                            >calm</p>
                            <div style=""width:240px; margin: auto;"">
                                <img src=""images/B_L_S_41_lightshift.png"" style= ""width:200px""alt=""img"">
                            </div>
                        </div>","-36","","0","images/B_L_S_41_lightshift.png","","","","calm","2","B","L","S","lightshift","",""
"","","","","","html-slider-response","32","156280","0.0-28.0","x8pr6nbhdd","6","NaN","<div style=""width:500px;"">
                            <p style=""font-size:50px; font-weight:bold;""
                            >calm</p>
                            <div style=""width:240px; margin: auto;"">
                                <img src=""images/B_L_S_41_lightshift.png"" style= ""width:200px""alt=""img"">
                            </div>
                        </div>","-45","","0","images/B_L_S_41_lightshift.png","","","","calm","1","B","L","S","lightshift","",""
"","","","","","html-slider-response","33","159471","0.0-29.0","x8pr6nbhdd","6","NaN","<div style=""width:500px;"">
                            <p style=""font-size:50px; font-weight:bold;""
                            >calm</p>
                            <div style=""width:240px; margin: auto;"">
                                <img src=""images/B_L_U_44_lightshift.png"" style= ""width:200px""alt=""img"">
                            </div>
                        </div>","-54","","0","images/B_L_U_44_lightshift.png","","","","calm","1","B","L","U","lightshift","",""
"","","","","","html-slider-response","34","161483","0.0-30.0","x8pr6nbhdd","6","NaN","<div style=""width:500px;"">
                            <p style=""font-size:50px; font-weight:bold;""
                            >calm</p>
                            <div style=""width:240px; margin: auto;"">
                                <img src=""images/R_D_S_26_darkshift.png"" style= ""width:200px""alt=""img"">
                            </div>
                        </div>","51","","0","images/R_D_S_26_darkshift.png","","","","calm","1","R","D","S","darkshift","",""
"","","","","","html-slider-response","35","163562","0.0-31.0","x8pr6nbhdd","6","NaN","<div style=""width:500px;"">
                            <p style=""font-size:50px; font-weight:bold;""
                            >calm</p>
                            <div style=""width:240px; margin: auto;"">
                                <img src=""images/G_L_S_28_lightshift.png"" style= ""width:200px""alt=""img"">
                            </div>
                        </div>","54","","0","images/G_L_S_28_lightshift.png","","","","calm","1","G","L","S","lightshift","",""
"","","","","","html-slider-response","36","165944","0.0-32.0","x8pr6nbhdd","6","NaN","<div style=""width:500px;"">
                            <p style=""font-size:50px; font-weight:bold;""
                            >calm</p>
                            <div style=""width:240px; margin: auto;"">
                                <img src=""images/B_D_S_2_darkshift.png"" style= ""width:200px""alt=""img"">
                            </div>
                        </div>","130","","0","images/B_D_S_2_darkshift.png","","","","calm","2","B","D","S","darkshift","",""
"","","","","","html-slider-response","37","168424","0.0-33.0","x8pr6nbhdd","6","NaN","<div style=""width:500px;"">
                            <p style=""font-size:50px; font-weight:bold;""
                            >calm</p>
                            <div style=""width:240px; margin: auto;"">
                                <img src=""images/G_D_U_37_lightshift.png"" style= ""width:200px""alt=""img"">
                            </div>
                        </div>","62","","0","images/G_D_U_37_lightshift.png","","","","calm","2","G","D","U","lightshift","",""
"","","","","","html-slider-response","38","171629","0.0-34.0","x8pr6nbhdd","6","NaN","<div style=""width:500px;"">
                            <p style=""font-size:50px; font-weight:bold;""
                            >calm</p>
                            <div style=""width:240px; margin: auto;"">
                                <img src=""images/B_L_S_41_darkshift.png"" style= ""width:200px""alt=""img"">
                            </div>
                        </div>","111","","0","images/B_L_S_41_darkshift.png","","","","calm","2","B","L","S","darkshift","",""
"","","","","","html-slider-response","39","173892","0.0-35.0","x8pr6nbhdd","6","NaN","<div style=""width:500px;"">
                            <p style=""font-size:50px; font-weight:bold;""
                            >calm</p>
                            <div style=""width:240px; margin: auto;"">
                                <img src=""images/R_L_U_23_lightshift.png"" style= ""width:200px""alt=""img"">
                            </div>
                        </div>","-200","","0","images/R_L_U_23_lightshift.png","","","","calm","1","R","L","U","lightshift","",""
"","","","","","html-slider-response","40","176130","0.0-36.0","x8pr6nbhdd","6","NaN","<div style=""width:500px;"">
                            <p style=""font-size:50px; font-weight:bold;""
                            >calm</p>
                            <div style=""width:240px; margin: auto;"">
                                <img src=""images/Y_D_U_13_darkshift.png"" style= ""width:200px""alt=""img"">
                            </div>
                        </div>","42","","0","images/Y_D_U_13_darkshift.png","","","","calm","2","Y","D","U","darkshift","",""
"","","","","","html-slider-response","41","178209","0.0-37.0","x8pr6nbhdd","6","NaN","<div style=""width:500px;"">
                            <p style=""font-size:50px; font-weight:bold;""
                            >calm</p>
                            <div style=""width:240px; margin: auto;"">
                                <img src=""images/G_L_U_30_darkshift.png"" style= ""width:200px""alt=""img"">
                            </div>
                        </div>","58","","0","images/G_L_U_30_darkshift.png","","","","calm","1","G","L","U","darkshift","",""
"","","","","","html-slider-response","42","182320","0.0-38.0","x8pr6nbhdd","6","NaN","<div style=""width:500px;"">
                            <p style=""font-size:50px; font-weight:bold;""
                            >calm</p>
                            <div style=""width:240px; margin: auto;"">
                                <img src=""images/G_L_U_30_lightshift.png"" style= ""width:200px""alt=""img"">
                            </div>
                        </div>","-98","","0","images/G_L_U_30_lightshift.png","","","","calm","1","G","L","U","lightshift","",""
"","","","","","html-slider-response","43","185038","0.0-39.0","x8pr6nbhdd","6","NaN","<div style=""width:500px;"">
                            <p style=""font-size:50px; font-weight:bold;""
                            >calm</p>
                            <div style=""width:240px; margin: auto;"">
                                <img src=""images/Y_D_S_12_lightshift.png"" style= ""width:200px""alt=""img"">
                            </div>
                        </div>","200","","0","images/Y_D_S_12_lightshift.png","","","","calm","1","Y","D","S","lightshift","",""
"","","","","","html-slider-response","44","189672","0.0-40.0","x8pr6nbhdd","6","NaN","<div style=""width:500px;"">
                            <p style=""font-size:50px; font-weight:bold;""
                            >calm</p>
                            <div style=""width:240px; margin: auto;"">
                                <img src=""images/Y_D_U_13_lightshift.png"" style= ""width:200px""alt=""img"">
                            </div>
                        </div>","-30","","0","images/Y_D_U_13_lightshift.png","","","","calm","1","Y","D","U","lightshift","",""
"","","","","","html-slider-response","45","191782","0.0-41.0","x8pr6nbhdd","6","NaN","<div style=""width:500px;"">
                            <p style=""font-size:50px; font-weight:bold;""
                            >calm</p>
                            <div style=""width:240px; margin: auto;"">
                                <img src=""images/G_D_U_37_lightshift.png"" style= ""width:200px""alt=""img"">
                            </div>
                        </div>","-107","","0","images/G_D_U_37_lightshift.png","","","","calm","1","G","D","U","lightshift","",""
"","","","","","html-slider-response","46","193646","0.0-42.0","x8pr6nbhdd","6","NaN","<div style=""width:500px;"">
                            <p style=""font-size:50px; font-weight:bold;""
                            >calm</p>
                            <div style=""width:240px; margin: auto;"">
                                <img src=""images/G_L_U_30_lightshift.png"" style= ""width:200px""alt=""img"">
                            </div>
                        </div>","-77","","0","images/G_L_U_30_lightshift.png","","","","calm","2","G","L","U","lightshift","",""
"","","","","","html-slider-response","47","196714","0.0-43.0","x8pr6nbhdd","6","NaN","<div style=""width:500px;"">
                            <p style=""font-size:50px; font-weight:bold;""
                            >calm</p>
                            <div style=""width:240px; margin: auto;"">
                                <img src=""images/G_D_U_37_darkshift.png"" style= ""width:200px""alt=""img"">
                            </div>
                        </div>","42","","0","images/G_D_U_37_darkshift.png","","","","calm","1","G","D","U","darkshift","",""
"","","","","","html-slider-response","48","198937","0.0-44.0","x8pr6nbhdd","6","NaN","<div style=""width:500px;"">
                            <p style=""font-size:50px; font-weight:bold;""
                            >calm</p>
                            <div style=""width:240px; margin: auto;"">
                                <img src=""images/R_D_U_27_lightshift.png"" style= ""width:200px""alt=""img"">
                            </div>
                        </div>","-200","","0","images/R_D_U_27_lightshift.png","","","","calm","2","R","D","U","lightshift","",""
"","","","","","html-slider-response","49","201160","0.0-45.0","x8pr6nbhdd","6","NaN","<div style=""width:500px;"">
                            <p style=""font-size:50px; font-weight:bold;""
                            >calm</p>
                            <div style=""width:240px; margin: auto;"">
                                <img src=""images/B_D_S_2_lightshift.png"" style= ""width:200px""alt=""img"">
                            </div>
                        </div>","79","","0","images/B_D_S_2_lightshift.png","","","","calm","2","B","D","S","lightshift","",""
"","","","","","html-slider-response","50","203070","0.0-46.0","x8pr6nbhdd","6","NaN","<div style=""width:500px;"">
                            <p style=""font-size:50px; font-weight:bold;""
                            >calm</p>
                            <div style=""width:240px; margin: auto;"">
                                <img src=""images/R_D_S_26_lightshift.png"" style= ""width:200px""alt=""img"">
                            </div>
                        </div>","-74","","0","images/R_D_S_26_lightshift.png","","","","calm","2","R","D","S","lightshift","",""
"","","","","","html-slider-response","51","204919","0.0-47.0","x8pr6nbhdd","6","NaN","<div style=""width:500px;"">
                            <p style=""font-size:50px; font-weight:bold;""
                            >calm</p>
                            <div style=""width:240px; margin: auto;"">
                                <img src=""images/B_D_U_5_lightshift.png"" style= ""width:200px""alt=""img"">
                            </div>
                        </div>","47","","0","images/B_D_U_5_lightshift.png","","","","calm","2","B","D","U","lightshift","",""
"","","","","","html-slider-response","52","207803","0.0-48.0","x8pr6nbhdd","6","NaN","<div style=""width:500px;"">
                            <p style=""font-size:50px; font-weight:bold;""
                            >calm</p>
                            <div style=""width:240px; margin: auto;"">
                                <img src=""images/R_D_U_27_darkshift.png"" style= ""width:200px""alt=""img"">
                            </div>
                        </div>","-66","","0","images/R_D_U_27_darkshift.png","","","","calm","2","R","D","U","darkshift","",""
"","","","","","html-slider-response","53","210420","0.0-49.0","x8pr6nbhdd","6","NaN","<div style=""width:500px;"">
                            <p style=""font-size:50px; font-weight:bold;""
                            >calm</p>
                            <div style=""width:240px; margin: auto;"">
                                <img src=""images/R_L_U_23_darkshift.png"" style= ""width:200px""alt=""img"">
                            </div>
                        </div>","-137","","0","images/R_L_U_23_darkshift.png","","","","calm","1","R","L","U","darkshift","",""
"","","","","","html-slider-response","54","212592","0.0-50.0","x8pr6nbhdd","6","NaN","<div style=""width:500px;"">
                            <p style=""font-size:50px; font-weight:bold;""
                            >calm</p>
                            <div style=""width:240px; margin: auto;"">
                                <img src=""images/G_D_U_37_darkshift.png"" style= ""width:200px""alt=""img"">
                            </div>
                        </div>","-166","","0","images/G_D_U_37_darkshift.png","","","","calm","2","G","D","U","darkshift","",""
"","","","","","html-slider-response","55","214839","0.0-51.0","x8pr6nbhdd","6","NaN","<div style=""width:500px;"">
                            <p style=""font-size:50px; font-weight:bold;""
                            >calm</p>
                            <div style=""width:240px; margin: auto;"">
                                <img src=""images/Y_L_U_10_lightshift.png"" style= ""width:200px""alt=""img"">
                            </div>
                        </div>","-64","","0","images/Y_L_U_10_lightshift.png","","","","calm","2","Y","L","U","lightshift","",""
"","","","","","html-slider-response","56","217660","0.0-52.0","x8pr6nbhdd","6","NaN","<div style=""width:500px;"">
                            <p style=""font-size:50px; font-weight:bold;""
                            >calm</p>
                            <div style=""width:240px; margin: auto;"">
                                <img src=""images/Y_L_U_10_darkshift.png"" style= ""width:200px""alt=""img"">
                            </div>
                        </div>","200","","0","images/Y_L_U_10_darkshift.png","","","","calm","1","Y","L","U","darkshift","",""
"","","","","","html-slider-response","57","220459","0.0-53.0","x8pr6nbhdd","6","NaN","<div style=""width:500px;"">
                            <p style=""font-size:50px; font-weight:bold;""
                            >calm</p>
                            <div style=""width:240px; margin: auto;"">
                                <img src=""images/Y_D_S_12_lightshift.png"" style= ""width:200px""alt=""img"">
                            </div>
                        </div>","25","","0","images/Y_D_S_12_lightshift.png","","","","calm","2","Y","D","S","lightshift","",""
"","","","","","html-slider-response","58","222904","0.0-54.0","x8pr6nbhdd","6","NaN","<div style=""width:500px;"">
                            <p style=""font-size:50px; font-weight:bold;""
                            >calm</p>
                            <div style=""width:240px; margin: auto;"">
                                <img src=""images/R_D_S_26_lightshift.png"" style= ""width:200px""alt=""img"">
                            </div>
                        </div>","-90","","0","images/R_D_S_26_lightshift.png","","","","calm","1","R","D","S","lightshift","",""
"","","","","","html-slider-response","59","225647","0.0-55.0","x8pr6nbhdd","6","NaN","<div style=""width:500px;"">
                            <p style=""font-size:50px; font-weight:bold;""
                            >calm</p>
                            <div style=""width:240px; margin: auto;"">
                                <img src=""images/B_D_S_2_lightshift.png"" style= ""width:200px""alt=""img"">
                            </div>
                        </div>","85","","0","images/B_D_S_2_lightshift.png","","","","calm","1","B","D","S","lightshift","",""
"","","","","","html-slider-response","60","227526","0.0-56.0","x8pr6nbhdd","6","NaN","<div style=""width:500px;"">
                            <p style=""font-size:50px; font-weight:bold;""
                            >calm</p>
                            <div style=""width:240px; margin: auto;"">
                                <img src=""images/B_L_U_44_darkshift.png"" style= ""width:200px""alt=""img"">
                            </div>
                        </div>","200","","0","images/B_L_U_44_darkshift.png","","","","calm","2","B","L","U","darkshift","",""
"","","","","","html-slider-response","61","230676","0.0-57.0","x8pr6nbhdd","6","NaN","<div style=""width:500px;"">
                            <p style=""font-size:50px; font-weight:bold;""
                            >calm</p>
                            <div style=""width:240px; margin: auto;"">
                                <img src=""images/Y_D_U_13_lightshift.png"" style= ""width:200px""alt=""img"">
                            </div>
                        </div>","-42","","0","images/Y_D_U_13_lightshift.png","","","","calm","2","Y","D","U","lightshift","",""
"","","","","","html-slider-response","62","232986","0.0-58.0","x8pr6nbhdd","6","NaN","<div style=""width:500px;"">
                            <p style=""font-size:50px; font-weight:bold;""
                            >calm</p>
                            <div style=""width:240px; margin: auto;"">
                                <img src=""images/Y_D_S_12_darkshift.png"" style= ""width:200px""alt=""img"">
                            </div>
                        </div>","-200","","0","images/Y_D_S_12_darkshift.png","","","","calm","1","Y","D","S","darkshift","",""
"","","","","","html-slider-response","63","236888","0.0-59.0","x8pr6nbhdd","6","NaN","<div style=""width:500px;"">
                            <p style=""font-size:50px; font-weight:bold;""
                            >calm</p>
                            <div style=""width:240px; margin: auto;"">
                                <img src=""images/B_L_U_44_lightshift.png"" style= ""width:200px""alt=""img"">
                            </div>
                        </div>","33","","0","images/B_L_U_44_lightshift.png","","","","calm","2","B","L","U","lightshift","",""
"","","","","","html-slider-response","64","238998","0.0-60.0","x8pr6nbhdd","6","NaN","<div style=""width:500px;"">
                            <p style=""font-size:50px; font-weight:bold;""
                            >calm</p>
                            <div style=""width:240px; margin: auto;"">
                                <img src=""images/R_D_S_26_darkshift.png"" style= ""width:200px""alt=""img"">
                            </div>
                        </div>","-88","","0","images/R_D_S_26_darkshift.png","","","","calm","2","R","D","S","darkshift","",""
"","","","","","html-slider-response","65","241132","0.0-61.0","x8pr6nbhdd","6","NaN","<div style=""width:500px;"">
                            <p style=""font-size:50px; font-weight:bold;""
                            >calm</p>
                            <div style=""width:240px; margin: auto;"">
                                <img src=""images/G_L_S_28_darkshift.png"" style= ""width:200px""alt=""img"">
                            </div>
                        </div>","77","","0","images/G_L_S_28_darkshift.png","","","","calm","1","G","L","S","darkshift","",""
"","","","","","html-slider-response","66","243891","0.0-62.0","x8pr6nbhdd","6","NaN","<div style=""width:500px;"">
                            <p style=""font-size:50px; font-weight:bold;""
                            >calm</p>
                            <div style=""width:240px; margin: auto;"">
                                <img src=""images/Y_L_S_7_lightshift.png"" style= ""width:200px""alt=""img"">
                            </div>
                        </div>","-110","","0","images/Y_L_S_7_lightshift.png","","","","calm","2","Y","L","S","lightshift","",""
"","","","","","html-slider-response","67","246393","0.0-63.0","x8pr6nbhdd","6","NaN","<div style=""width:500px;"">
                            <p style=""font-size:50px; font-weight:bold;""
                            >calm</p>
                            <div style=""width:240px; margin: auto;"">
                                <img src=""images/G_D_S_33_darkshift.png"" style= ""width:200px""alt=""img"">
                            </div>
                        </div>","82","","0","images/G_D_S_33_darkshift.png","","","","calm","1","G","D","S","darkshift","",""
"","","","","","html-slider-response","68","248886","0.0-64.0","x8pr6nbhdd","6","NaN","<div style=""width:500px;"">
                            <p style=""font-size:50px; font-weight:bold;""
                            >calm</p>
                            <div style=""width:240px; margin: auto;"">
                                <img src=""images/R_L_S_15_darkshift.png"" style= ""width:200px""alt=""img"">
                            </div>
                        </div>","40","","0","images/R_L_S_15_darkshift.png","","","","calm","2","R","L","S","darkshift","",""
"","","","","","html-slider-response","69","251221","0.0-65.0","x8pr6nbhdd","6","NaN","<div style=""width:500px;"">
                            <p style=""font-size:50px; font-weight:bold;""
                            >calm</p>
                            <div style=""width:240px; margin: auto;"">
                                <img src=""images/G_D_S_33_lightshift.png"" style= ""width:200px""alt=""img"">
                            </div>
                        </div>","-73","","0","images/G_D_S_33_lightshift.png","","","","calm","1","G","D","S","lightshift","",""
"","","","","","html-slider-response","70","253314","0.0-66.0","x8pr6nbhdd","6","NaN","<div style=""width:500px;"">
                            <p style=""font-size:50px; font-weight:bold;""
                            >calm</p>
                            <div style=""width:240px; margin: auto;"">
                                <img src=""images/Y_L_S_7_lightshift.png"" style= ""width:200px""alt=""img"">
                            </div>
                        </div>","-75","","0","images/Y_L_S_7_lightshift.png","","","","calm","1","Y","L","S","lightshift","",""
"","","","","","html-slider-response","71","255194","0.0-67.0","x8pr6nbhdd","6","NaN","<div style=""width:500px;"">
                            <p style=""font-size:50px; font-weight:bold;""
                            >calm</p>
                            <div style=""width:240px; margin: auto;"">
                                <img src=""images/R_D_U_27_darkshift.png"" style= ""width:200px""alt=""img"">
                            </div>
                        </div>","-200","","0","images/R_D_U_27_darkshift.png","","","","calm","1","R","D","U","darkshift","",""
"","","","","","html-slider-response","72","257193","0.0-68.0","x8pr6nbhdd","6","NaN","<div style=""width:500px;"">
                            <p style=""font-size:50px; font-weight:bold;""
                            >calm</p>
                            <div style=""width:240px; margin: auto;"">
                                <img src=""images/R_L_S_15_lightshift.png"" style= ""width:200px""alt=""img"">
                            </div>
                        </div>","-53","","0","images/R_L_S_15_lightshift.png","","","","calm","2","R","L","S","lightshift","",""
"","","","","","html-slider-response","73","259479","0.0-69.0","x8pr6nbhdd","6","NaN","<div style=""width:500px;"">
                            <p style=""font-size:50px; font-weight:bold;""
                            >calm</p>
                            <div style=""width:240px; margin: auto;"">
                                <img src=""images/Y_L_U_10_lightshift.png"" style= ""width:200px""alt=""img"">
                            </div>
                        </div>","-38","","0","images/Y_L_U_10_lightshift.png","","","","calm","1","Y","L","U","lightshift","",""
"","","","","","html-slider-response","74","261541","0.0-70.0","x8pr6nbhdd","6","NaN","<div style=""width:500px;"">
                            <p style=""font-size:50px; font-weight:bold;""
                            >calm</p>
                            <div style=""width:240px; margin: auto;"">
                                <img src=""images/Y_L_S_7_darkshift.png"" style= ""width:200px""alt=""img"">
                            </div>
                        </div>","200","","0","images/Y_L_S_7_darkshift.png","","","","calm","1","Y","L","S","darkshift","",""
"","","","","","html-slider-response","75","263731","0.0-71.0","x8pr6nbhdd","6","NaN","<div style=""width:500px;"">
                            <p style=""font-size:50px; font-weight:bold;""
                            >calm</p>
                            <div style=""width:240px; margin: auto;"">
                                <img src=""images/B_L_U_44_darkshift.png"" style= ""width:200px""alt=""img"">
                            </div>
                        </div>","200","","0","images/B_L_U_44_darkshift.png","","","","calm","1","B","L","U","darkshift","",""
"","","","","","html-slider-response","76","266130","0.0-72.0","x8pr6nbhdd","6","NaN","<div style=""width:500px;"">
                            <p style=""font-size:50px; font-weight:bold;""
                            >calm</p>
                            <div style=""width:240px; margin: auto;"">
                                <img src=""images/R_L_U_23_darkshift.png"" style= ""width:200px""alt=""img"">
                            </div>
                        </div>","28","","0","images/R_L_U_23_darkshift.png","","","","calm","2","R","L","U","darkshift","",""
"","","","","","html-slider-response","77","268264","0.0-73.0","x8pr6nbhdd","6","NaN","<div style=""width:500px;"">
                            <p style=""font-size:50px; font-weight:bold;""
                            >calm</p>
                            <div style=""width:240px; margin: auto;"">
                                <img src=""images/B_D_S_2_darkshift.png"" style= ""width:200px""alt=""img"">
                            </div>
                        </div>","51","","0","images/B_D_S_2_darkshift.png","","","","calm","1","B","D","S","darkshift","",""
"","","","","","html-slider-response","78","271106","0.0-74.0","x8pr6nbhdd","6","NaN","<div style=""width:500px;"">
                            <p style=""font-size:50px; font-weight:bold;""
                            >calm</p>
                            <div style=""width:240px; margin: auto;"">
                                <img src=""images/G_L_U_30_darkshift.png"" style= ""width:200px""alt=""img"">
                            </div>
                        </div>","174","","0","images/G_L_U_30_darkshift.png","","","","calm","2","G","L","U","darkshift","",""
"","","","","","html-slider-response","79","273125","0.0-75.0","x8pr6nbhdd","6","NaN","<div style=""width:500px;"">
                            <p style=""font-size:50px; font-weight:bold;""
                            >calm</p>
                            <div style=""width:240px; margin: auto;"">
                                <img src=""images/G_L_S_28_lightshift.png"" style= ""width:200px""alt=""img"">
                            </div>
                        </div>","-118","","0","images/G_L_S_28_lightshift.png","","","","calm","2","G","L","S","lightshift","",""
"","","","","","html-slider-response","80","275286","0.0-76.0","x8pr6nbhdd","6","NaN","<div style=""width:500px;"">
                            <p style=""font-size:50px; font-weight:bold;""
                            >calm</p>
                            <div style=""width:240px; margin: auto;"">
                                <img src=""images/R_L_U_23_lightshift.png"" style= ""width:200px""alt=""img"">
                            </div>
                        </div>","-105","","0","images/R_L_U_23_lightshift.png","","","","calm","2","R","L","U","lightshift","",""
"","","","","","html-slider-response","81","277754","0.0-77.0","x8pr6nbhdd","6","NaN","<div style=""width:500px;"">
                            <p style=""font-size:50px; font-weight:bold;""
                            >calm</p>
                            <div style=""width:240px; margin: auto;"">
                                <img src=""images/Y_D_U_13_darkshift.png"" style= ""width:200px""alt=""img"">
                            </div>
                        </div>","-200","","0","images/Y_D_U_13_darkshift.png","","","","calm","1","Y","D","U","darkshift","",""
"","","","","","html-button-response","82","279973","0.0-78.0","x8pr6nbhdd","6","1716","<p>Great Job! You've finished block 1.<br></br> You have 3 block(s) left to go.<br></br></p>","0","","","","","","","","","","","","","",""
"","","","","","html-button-response","83","280924","0.0-79.0","x8pr6nbhdd","6","951","<p>In this block of trials, you will be asked to rate how much you associate each map with:</p > <p style = 'font-size:150%; font-weight: bold'>positive</p><br></br>","0","","","","","","","","","","","","","",""
"","","","","","html-slider-response","84","282750","0.0-80.0","x8pr6nbhdd","6","NaN","<div style=""width:500px;"">
                            <p style=""font-size:50px; font-weight:bold;""
                            >positive</p>
                            <div style=""width:240px; margin: auto;"">
                                <img src=""images/B_D_S_2_lightshift.png"" style= ""width:200px""alt=""img"">
                            </div>
                        </div>","121","","0","images/B_D_S_2_lightshift.png","","","","positive","1","B","D","S","lightshift","",""
"","","","","","html-slider-response","85","285621","0.0-81.0","x8pr6nbhdd","6","NaN","<div style=""width:500px;"">
                            <p style=""font-size:50px; font-weight:bold;""
                            >positive</p>
                            <div style=""width:240px; margin: auto;"">
                                <img src=""images/Y_L_U_10_lightshift.png"" style= ""width:200px""alt=""img"">
                            </div>
                        </div>","-58","","0","images/Y_L_U_10_lightshift.png","","","","positive","2","Y","L","U","lightshift","",""
"","","","","","html-slider-response","86","290721","0.0-82.0","x8pr6nbhdd","6","NaN","<div style=""width:500px;"">
                            <p style=""font-size:50px; font-weight:bold;""
                            >positive</p>
                            <div style=""width:240px; margin: auto;"">
                                <img src=""images/Y_D_S_12_lightshift.png"" style= ""width:200px""alt=""img"">
                            </div>
                        </div>","-63","","0","images/Y_D_S_12_lightshift.png","","","","positive","1","Y","D","S","lightshift","",""
"","","","","","html-slider-response","87","292704","0.0-83.0","x8pr6nbhdd","6","NaN","<div style=""width:500px;"">
                            <p style=""font-size:50px; font-weight:bold;""
                            >positive</p>
                            <div style=""width:240px; margin: auto;"">
                                <img src=""images/R_D_U_27_darkshift.png"" style= ""width:200px""alt=""img"">
                            </div>
                        </div>","-200","","0","images/R_D_U_27_darkshift.png","","","","positive","1","R","D","U","darkshift","",""
"","","","","","html-slider-response","88","295438","0.0-84.0","x8pr6nbhdd","6","NaN","<div style=""width:500px;"">
                            <p style=""font-size:50px; font-weight:bold;""
                            >positive</p>
                            <div style=""width:240px; margin: auto;"">
                                <img src=""images/R_L_U_23_lightshift.png"" style= ""width:200px""alt=""img"">
                            </div>
                        </div>","-142","","0","images/R_L_U_23_lightshift.png","","","","positive","1","R","L","U","lightshift","",""
"","","","","","html-slider-response","89","297681","0.0-85.0","x8pr6nbhdd","6","NaN","<div style=""width:500px;"">
                            <p style=""font-size:50px; font-weight:bold;""
                            >positive</p>
                            <div style=""width:240px; margin: auto;"">
                                <img src=""images/G_D_S_33_lightshift.png"" style= ""width:200px""alt=""img"">
                            </div>
                        </div>","-27","","0","images/G_D_S_33_lightshift.png","","","","positive","1","G","D","S","lightshift","",""
"","","","","","html-slider-response","90","300072","0.0-86.0","x8pr6nbhdd","6","NaN","<div style=""width:500px;"">
                            <p style=""font-size:50px; font-weight:bold;""
                            >positive</p>
                            <div style=""width:240px; margin: auto;"">
                                <img src=""images/R_D_U_27_lightshift.png"" style= ""width:200px""alt=""img"">
                            </div>
                        </div>","-200","","0","images/R_D_U_27_lightshift.png","","","","positive","2","R","D","U","lightshift","",""
"","","","","","html-slider-response","91","302144","0.0-87.0","x8pr6nbhdd","6","NaN","<div style=""width:500px;"">
                            <p style=""font-size:50px; font-weight:bold;""
                            >positive</p>
                            <div style=""width:240px; margin: auto;"">
                                <img src=""images/B_L_U_44_lightshift.png"" style= ""width:200px""alt=""img"">
                            </div>
                        </div>","26","","0","images/B_L_U_44_lightshift.png","","","","positive","2","B","L","U","lightshift","",""
"","","","","","html-slider-response","92","304957","0.0-88.0","x8pr6nbhdd","6","NaN","<div style=""width:500px;"">
                            <p style=""font-size:50px; font-weight:bold;""
                            >positive</p>
                            <div style=""width:240px; margin: auto;"">
                                <img src=""images/B_D_U_5_darkshift.png"" style= ""width:200px""alt=""img"">
                            </div>
                        </div>","-57","","0","images/B_D_U_5_darkshift.png","","","","positive","1","B","D","U","darkshift","",""
"","","","","","html-slider-response","93","307195","0.0-89.0","x8pr6nbhdd","6","NaN","<div style=""width:500px;"">
                            <p style=""font-size:50px; font-weight:bold;""
                            >positive</p>
                            <div style=""width:240px; margin: auto;"">
                                <img src=""images/R_L_S_15_lightshift.png"" style= ""width:200px""alt=""img"">
                            </div>
                        </div>","80","","0","images/R_L_S_15_lightshift.png","","","","positive","1","R","L","S","lightshift","",""
"","","","","","html-slider-response","94","309513","0.0-90.0","x8pr6nbhdd","6","NaN","<div style=""width:500px;"">
                            <p style=""font-size:50px; font-weight:bold;""
                            >positive</p>
                            <div style=""width:240px; margin: auto;"">
                                <img src=""images/R_L_S_15_darkshift.png"" style= ""width:200px""alt=""img"">
                            </div>
                        </div>","84","","0","images/R_L_S_15_darkshift.png","","","","positive","2","R","L","S","darkshift","",""
"","","","","","html-slider-response","95","312495","0.0-91.0","x8pr6nbhdd","6","NaN","<div style=""width:500px;"">
                            <p style=""font-size:50px; font-weight:bold;""
                            >positive</p>
                            <div style=""width:240px; margin: auto;"">
                                <img src=""images/Y_L_S_7_lightshift.png"" style= ""width:200px""alt=""img"">
                            </div>
                        </div>","200","","0","images/Y_L_S_7_lightshift.png","","","","positive","1","Y","L","S","lightshift","",""
"","","","","","html-slider-response","96","315141","0.0-92.0","x8pr6nbhdd","6","NaN","<div style=""width:500px;"">
                            <p style=""font-size:50px; font-weight:bold;""
                            >positive</p>
                            <div style=""width:240px; margin: auto;"">
                                <img src=""images/G_L_U_30_lightshift.png"" style= ""width:200px""alt=""img"">
                            </div>
                        </div>","23","","0","images/G_L_U_30_lightshift.png","","","","positive","1","G","L","U","lightshift","",""
"","","","","","html-slider-response","97","317288","0.0-93.0","x8pr6nbhdd","6","NaN","<div style=""width:500px;"">
                            <p style=""font-size:50px; font-weight:bold;""
                            >positive</p>
                            <div style=""width:240px; margin: auto;"">
                                <img src=""images/Y_L_U_10_lightshift.png"" style= ""width:200px""alt=""img"">
                            </div>
                        </div>","-49","","0","images/Y_L_U_10_lightshift.png","","","","positive","1","Y","L","U","lightshift","",""
"","","","","","html-slider-response","98","319234","0.0-94.0","x8pr6nbhdd","6","NaN","<div style=""width:500px;"">
                            <p style=""font-size:50px; font-weight:bold;""
                            >positive</p>
                            <div style=""width:240px; margin: auto;"">
                                <img src=""images/R_D_S_26_lightshift.png"" style= ""width:200px""alt=""img"">
                            </div>
                        </div>","92","","0","images/R_D_S_26_lightshift.png","","","","positive","1","R","D","S","lightshift","",""
"","","","","","html-slider-response","99","321129","0.0-95.0","x8pr6nbhdd","6","NaN","<div style=""width:500px;"">
                            <p style=""font-size:50px; font-weight:bold;""
                            >positive</p>
                            <div style=""width:240px; margin: auto;"">
                                <img src=""images/G_D_S_33_darkshift.png"" style= ""width:200px""alt=""img"">
                            </div>
                        </div>","-37","","0","images/G_D_S_33_darkshift.png","","","","positive","1","G","D","S","darkshift","",""
"","","","","","html-slider-response","100","323121","0.0-96.0","x8pr6nbhdd","6","NaN","<div style=""width:500px;"">
                            <p style=""font-size:50px; font-weight:bold;""
                            >positive</p>
                            <div style=""width:240px; margin: auto;"">
                                <img src=""images/B_D_U_5_darkshift.png"" style= ""width:200px""alt=""img"">
                            </div>
                        </div>","-66","","0","images/B_D_U_5_darkshift.png","","","","positive","2","B","D","U","darkshift","",""
"","","","","","html-slider-response","101","325165","0.0-97.0","x8pr6nbhdd","6","NaN","<div style=""width:500px;"">
                            <p style=""font-size:50px; font-weight:bold;""
                            >positive</p>
                            <div style=""width:240px; margin: auto;"">
                                <img src=""images/B_D_U_5_lightshift.png"" style= ""width:200px""alt=""img"">
                            </div>
                        </div>","-74","","0","images/B_D_U_5_lightshift.png","","","","positive","1","B","D","U","lightshift","",""
"","","","","","html-slider-response","102","328156","0.0-98.0","x8pr6nbhdd","6","NaN","<div style=""width:500px;"">
                            <p style=""font-size:50px; font-weight:bold;""
                            >positive</p>
                            <div style=""width:240px; margin: auto;"">
                                <img src=""images/R_D_S_26_darkshift.png"" style= ""width:200px""alt=""img"">
                            </div>
                        </div>","36","","0","images/R_D_S_26_darkshift.png","","","","positive","1","R","D","S","darkshift","",""
"","","","","","html-slider-response","103","329821","0.0-99.0","x8pr6nbhdd","6","NaN","<div style=""width:500px;"">
                            <p style=""font-size:50px; font-weight:bold;""
                            >positive</p>
                            <div style=""width:240px; margin: auto;"">
                                <img src=""images/Y_D_S_12_lightshift.png"" style= ""width:200px""alt=""img"">
                            </div>
                        </div>","-38","","0","images/Y_D_S_12_lightshift.png","","","","positive","2","Y","D","S","lightshift","",""
"","","","","","html-slider-response","104","331961","0.0-100.0","x8pr6nbhdd","6","NaN","<div style=""width:500px;"">
                            <p style=""font-size:50px; font-weight:bold;""
                            >positive</p>
                            <div style=""width:240px; margin: auto;"">
                                <img src=""images/G_L_U_30_darkshift.png"" style= ""width:200px""alt=""img"">
                            </div>
                        </div>","111","","0","images/G_L_U_30_darkshift.png","","","","positive","2","G","L","U","darkshift","",""
"","","","","","html-slider-response","105","333894","0.0-101.0","x8pr6nbhdd","6","NaN","<div style=""width:500px;"">
                            <p style=""font-size:50px; font-weight:bold;""
                            >positive</p>
                            <div style=""width:240px; margin: auto;"">
                                <img src=""images/G_L_S_28_lightshift.png"" style= ""width:200px""alt=""img"">
                            </div>
                        </div>","-62","","0","images/G_L_S_28_lightshift.png","","","","positive","2","G","L","S","lightshift","",""
"","","","","","html-slider-response","106","335920","0.0-102.0","x8pr6nbhdd","6","NaN","<div style=""width:500px;"">
                            <p style=""font-size:50px; font-weight:bold;""
                            >positive</p>
                            <div style=""width:240px; margin: auto;"">
                                <img src=""images/R_D_S_26_lightshift.png"" style= ""width:200px""alt=""img"">
                            </div>
                        </div>","126","","0","images/R_D_S_26_lightshift.png","","","","positive","2","R","D","S","lightshift","",""
"","","","","","html-slider-response","107","338203","0.0-103.0","x8pr6nbhdd","6","NaN","<div style=""width:500px;"">
                            <p style=""font-size:50px; font-weight:bold;""
                            >positive</p>
                            <div style=""width:240px; margin: auto;"">
                                <img src=""images/B_L_U_44_darkshift.png"" style= ""width:200px""alt=""img"">
                            </div>
                        </div>","158","","0","images/B_L_U_44_darkshift.png","","","","positive","1","B","L","U","darkshift","",""
"","","","","","html-slider-response","108","340338","0.0-104.0","x8pr6nbhdd","6","NaN","<div style=""width:500px;"">
                            <p style=""font-size:50px; font-weight:bold;""
                            >positive</p>
                            <div style=""width:240px; margin: auto;"">
                                <img src=""images/B_D_S_2_darkshift.png"" style= ""width:200px""alt=""img"">
                            </div>
                        </div>","142","","0","images/B_D_S_2_darkshift.png","","","","positive","1","B","D","S","darkshift","",""
"","","","","","html-slider-response","109","342583","0.0-105.0","x8pr6nbhdd","6","NaN","<div style=""width:500px;"">
                            <p style=""font-size:50px; font-weight:bold;""
                            >positive</p>
                            <div style=""width:240px; margin: auto;"">
                                <img src=""images/Y_L_U_10_darkshift.png"" style= ""width:200px""alt=""img"">
                            </div>
                        </div>","62","","0","images/Y_L_U_10_darkshift.png","","","","positive","2","Y","L","U","darkshift","",""
"","","","","","html-slider-response","110","344830","0.0-106.0","x8pr6nbhdd","6","NaN","<div style=""width:500px;"">
                            <p style=""font-size:50px; font-weight:bold;""
                            >positive</p>
                            <div style=""width:240px; margin: auto;"">
                                <img src=""images/B_L_S_41_lightshift.png"" style= ""width:200px""alt=""img"">
                            </div>
                        </div>","80","","0","images/B_L_S_41_lightshift.png","","","","positive","1","B","L","S","lightshift","",""
"","","","","","html-slider-response","111","347076","0.0-107.0","x8pr6nbhdd","6","NaN","<div style=""width:500px;"">
                            <p style=""font-size:50px; font-weight:bold;""
                            >positive</p>
                            <div style=""width:240px; margin: auto;"">
                                <img src=""images/R_L_U_23_lightshift.png"" style= ""width:200px""alt=""img"">
                            </div>
                        </div>","-87","","0","images/R_L_U_23_lightshift.png","","","","positive","2","R","L","U","lightshift","",""
"","","","","","html-slider-response","112","349139","0.0-108.0","x8pr6nbhdd","6","NaN","<div style=""width:500px;"">
                            <p style=""font-size:50px; font-weight:bold;""
                            >positive</p>
                            <div style=""width:240px; margin: auto;"">
                                <img src=""images/Y_D_U_13_darkshift.png"" style= ""width:200px""alt=""img"">
                            </div>
                        </div>","-200","","0","images/Y_D_U_13_darkshift.png","","","","positive","2","Y","D","U","darkshift","",""
"","","","","","html-slider-response","113","350994","0.0-109.0","x8pr6nbhdd","6","NaN","<div style=""width:500px;"">
                            <p style=""font-size:50px; font-weight:bold;""
                            >positive</p>
                            <div style=""width:240px; margin: auto;"">
                                <img src=""images/Y_D_S_12_darkshift.png"" style= ""width:200px""alt=""img"">
                            </div>
                        </div>","-200","","0","images/Y_D_S_12_darkshift.png","","","","positive","1","Y","D","S","darkshift","",""
"","","","","","html-slider-response","114","352872","0.0-110.0","x8pr6nbhdd","6","NaN","<div style=""width:500px;"">
                            <p style=""font-size:50px; font-weight:bold;""
                            >positive</p>
                            <div style=""width:240px; margin: auto;"">
                                <img src=""images/G_D_S_33_darkshift.png"" style= ""width:200px""alt=""img"">
                            </div>
                        </div>","-65","","0","images/G_D_S_33_darkshift.png","","","","positive","2","G","D","S","darkshift","",""
"","","","","","html-slider-response","115","355174","0.0-111.0","x8pr6nbhdd","6","NaN","<div style=""width:500px;"">
                            <p style=""font-size:50px; font-weight:bold;""
                            >positive</p>
                            <div style=""width:240px; margin: auto;"">
                                <img src=""images/B_D_U_5_lightshift.png"" style= ""width:200px""alt=""img"">
                            </div>
                        </div>","-51","","0","images/B_D_U_5_lightshift.png","","","","positive","2","B","D","U","lightshift","",""
"","","","","","html-slider-response","116","357237","0.0-112.0","x8pr6nbhdd","6","NaN","<div style=""width:500px;"">
                            <p style=""font-size:50px; font-weight:bold;""
                            >positive</p>
                            <div style=""width:240px; margin: auto;"">
                                <img src=""images/Y_L_S_7_darkshift.png"" style= ""width:200px""alt=""img"">
                            </div>
                        </div>","200","","0","images/Y_L_S_7_darkshift.png","","","","positive","2","Y","L","S","darkshift","",""
"","","","","","html-slider-response","117","359162","0.0-113.0","x8pr6nbhdd","6","NaN","<div style=""width:500px;"">
                            <p style=""font-size:50px; font-weight:bold;""
                            >positive</p>
                            <div style=""width:240px; margin: auto;"">
                                <img src=""images/B_L_U_44_darkshift.png"" style= ""width:200px""alt=""img"">
                            </div>
                        </div>","200","","0","images/B_L_U_44_darkshift.png","","","","positive","2","B","L","U","darkshift","",""
"","","","","","html-slider-response","118","361105","0.0-114.0","x8pr6nbhdd","6","NaN","<div style=""width:500px;"">
                            <p style=""font-size:50px; font-weight:bold;""
                            >positive</p>
                            <div style=""width:240px; margin: auto;"">
                                <img src=""images/B_L_S_41_darkshift.png"" style= ""width:200px""alt=""img"">
                            </div>
                        </div>","129","","0","images/B_L_S_41_darkshift.png","","","","positive","1","B","L","S","darkshift","",""
"","","","","","html-slider-response","119","362992","0.0-115.0","x8pr6nbhdd","6","NaN","<div style=""width:500px;"">
                            <p style=""font-size:50px; font-weight:bold;""
                            >positive</p>
                            <div style=""width:240px; margin: auto;"">
                                <img src=""images/Y_L_S_7_lightshift.png"" style= ""width:200px""alt=""img"">
                            </div>
                        </div>","109","","0","images/Y_L_S_7_lightshift.png","","","","positive","2","Y","L","S","lightshift","",""
"","","","","","html-slider-response","120","364854","0.0-116.0","x8pr6nbhdd","6","NaN","<div style=""width:500px;"">
                            <p style=""font-size:50px; font-weight:bold;""
                            >positive</p>
                            <div style=""width:240px; margin: auto;"">
                                <img src=""images/G_D_U_37_lightshift.png"" style= ""width:200px""alt=""img"">
                            </div>
                        </div>","33","","0","images/G_D_U_37_lightshift.png","","","","positive","1","G","D","U","lightshift","",""
"","","","","","html-slider-response","121","366573","0.0-117.0","x8pr6nbhdd","6","NaN","<div style=""width:500px;"">
                            <p style=""font-size:50px; font-weight:bold;""
                            >positive</p>
                            <div style=""width:240px; margin: auto;"">
                                <img src=""images/Y_L_S_7_darkshift.png"" style= ""width:200px""alt=""img"">
                            </div>
                        </div>","200","","0","images/Y_L_S_7_darkshift.png","","","","positive","1","Y","L","S","darkshift","",""
"","","","","","html-slider-response","122","368525","0.0-118.0","x8pr6nbhdd","6","NaN","<div style=""width:500px;"">
                            <p style=""font-size:50px; font-weight:bold;""
                            >positive</p>
                            <div style=""width:240px; margin: auto;"">
                                <img src=""images/B_L_S_41_lightshift.png"" style= ""width:200px""alt=""img"">
                            </div>
                        </div>","30","","0","images/B_L_S_41_lightshift.png","","","","positive","2","B","L","S","lightshift","",""
"","","","","","html-slider-response","123","370571","0.0-119.0","x8pr6nbhdd","6","NaN","<div style=""width:500px;"">
                            <p style=""font-size:50px; font-weight:bold;""
                            >positive</p>
                            <div style=""width:240px; margin: auto;"">
                                <img src=""images/G_L_U_30_lightshift.png"" style= ""width:200px""alt=""img"">
                            </div>
                        </div>","26","","0","images/G_L_U_30_lightshift.png","","","","positive","2","G","L","U","lightshift","",""
"","","","","","html-slider-response","124","372504","0.0-120.0","x8pr6nbhdd","6","NaN","<div style=""width:500px;"">
                            <p style=""font-size:50px; font-weight:bold;""
                            >positive</p>
                            <div style=""width:240px; margin: auto;"">
                                <img src=""images/G_D_U_37_darkshift.png"" style= ""width:200px""alt=""img"">
                            </div>
                        </div>","-162","","0","images/G_D_U_37_darkshift.png","","","","positive","2","G","D","U","darkshift","",""
"","","","","","html-slider-response","125","374423","0.0-121.0","x8pr6nbhdd","6","NaN","<div style=""width:500px;"">
                            <p style=""font-size:50px; font-weight:bold;""
                            >positive</p>
                            <div style=""width:240px; margin: auto;"">
                                <img src=""images/R_L_S_15_lightshift.png"" style= ""width:200px""alt=""img"">
                            </div>
                        </div>","-97","","0","images/R_L_S_15_lightshift.png","","","","positive","2","R","L","S","lightshift","",""
"","","","","","html-slider-response","126","376836","0.0-122.0","x8pr6nbhdd","6","NaN","<div style=""width:500px;"">
                            <p style=""font-size:50px; font-weight:bold;""
                            >positive</p>
                            <div style=""width:240px; margin: auto;"">
                                <img src=""images/R_L_U_23_darkshift.png"" style= ""width:200px""alt=""img"">
                            </div>
                        </div>","29","","0","images/R_L_U_23_darkshift.png","","","","positive","2","R","L","U","darkshift","",""
"","","","","","html-slider-response","127","378795","0.0-123.0","x8pr6nbhdd","6","NaN","<div style=""width:500px;"">
                            <p style=""font-size:50px; font-weight:bold;""
                            >positive</p>
                            <div style=""width:240px; margin: auto;"">
                                <img src=""images/G_D_S_33_lightshift.png"" style= ""width:200px""alt=""img"">
                            </div>
                        </div>","94","","0","images/G_D_S_33_lightshift.png","","","","positive","2","G","D","S","lightshift","",""
"","","","","","html-slider-response","128","380802","0.0-124.0","x8pr6nbhdd","6","NaN","<div style=""width:500px;"">
                            <p style=""font-size:50px; font-weight:bold;""
                            >positive</p>
                            <div style=""width:240px; margin: auto;"">
                                <img src=""images/R_L_S_15_darkshift.png"" style= ""width:200px""alt=""img"">
                            </div>
                        </div>","140","","0","images/R_L_S_15_darkshift.png","","","","positive","1","R","L","S","darkshift","",""
"","","","","","html-slider-response","129","382632","0.0-125.0","x8pr6nbhdd","6","NaN","<div style=""width:500px;"">
                            <p style=""font-size:50px; font-weight:bold;""
                            >positive</p>
                            <div style=""width:240px; margin: auto;"">
                                <img src=""images/G_L_U_30_darkshift.png"" style= ""width:200px""alt=""img"">
                            </div>
                        </div>","146","","0","images/G_L_U_30_darkshift.png","","","","positive","1","G","L","U","darkshift","",""
"","","","","","html-slider-response","130","384255","0.0-126.0","x8pr6nbhdd","6","NaN","<div style=""width:500px;"">
                            <p style=""font-size:50px; font-weight:bold;""
                            >positive</p>
                            <div style=""width:240px; margin: auto;"">
                                <img src=""images/B_L_U_44_lightshift.png"" style= ""width:200px""alt=""img"">
                            </div>
                        </div>","21","","0","images/B_L_U_44_lightshift.png","","","","positive","1","B","L","U","lightshift","",""
"","","","","","html-slider-response","131","385839","0.0-127.0","x8pr6nbhdd","6","NaN","<div style=""width:500px;"">
                            <p style=""font-size:50px; font-weight:bold;""
                            >positive</p>
                            <div style=""width:240px; margin: auto;"">
                                <img src=""images/Y_D_S_12_darkshift.png"" style= ""width:200px""alt=""img"">
                            </div>
                        </div>","-200","","0","images/Y_D_S_12_darkshift.png","","","","positive","2","Y","D","S","darkshift","",""
"","","","","","html-slider-response","132","387731","0.0-128.0","x8pr6nbhdd","6","NaN","<div style=""width:500px;"">
                            <p style=""font-size:50px; font-weight:bold;""
                            >positive</p>
                            <div style=""width:240px; margin: auto;"">
                                <img src=""images/G_D_U_37_darkshift.png"" style= ""width:200px""alt=""img"">
                            </div>
                        </div>","-197","","0","images/G_D_U_37_darkshift.png","","","","positive","1","G","D","U","darkshift","",""
"","","","","","html-slider-response","133","389650","0.0-129.0","x8pr6nbhdd","6","NaN","<div style=""width:500px;"">
                            <p style=""font-size:50px; font-weight:bold;""
                            >positive</p>
                            <div style=""width:240px; margin: auto;"">
                                <img src=""images/Y_L_U_10_darkshift.png"" style= ""width:200px""alt=""img"">
                            </div>
                        </div>","35","","0","images/Y_L_U_10_darkshift.png","","","","positive","1","Y","L","U","darkshift","",""
"","","","","","html-slider-response","134","391704","0.0-130.0","x8pr6nbhdd","6","NaN","<div style=""width:500px;"">
                            <p style=""font-size:50px; font-weight:bold;""
                            >positive</p>
                            <div style=""width:240px; margin: auto;"">
                                <img src=""images/R_D_S_26_darkshift.png"" style= ""width:200px""alt=""img"">
                            </div>
                        </div>","25","","0","images/R_D_S_26_darkshift.png","","","","positive","2","R","D","S","darkshift","",""
"","","","","","html-slider-response","135","393391","0.0-131.0","x8pr6nbhdd","6","NaN","<div style=""width:500px;"">
                            <p style=""font-size:50px; font-weight:bold;""
                            >positive</p>
                            <div style=""width:240px; margin: auto;"">
                                <img src=""images/Y_D_U_13_darkshift.png"" style= ""width:200px""alt=""img"">
                            </div>
                        </div>","-98","","0","images/Y_D_U_13_darkshift.png","","","","positive","1","Y","D","U","darkshift","",""
"","","","","","html-slider-response","136","395053","0.0-132.0","x8pr6nbhdd","6","NaN","<div style=""width:500px;"">
                            <p style=""font-size:50px; font-weight:bold;""
                            >positive</p>
                            <div style=""width:240px; margin: auto;"">
                                <img src=""images/R_D_U_27_lightshift.png"" style= ""width:200px""alt=""img"">
                            </div>
                        </div>","-83","","0","images/R_D_U_27_lightshift.png","","","","positive","1","R","D","U","lightshift","",""
"","","","","","html-slider-response","137","396876","0.0-133.0","x8pr6nbhdd","6","NaN","<div style=""width:500px;"">
                            <p style=""font-size:50px; font-weight:bold;""
                            >positive</p>
                            <div style=""width:240px; margin: auto;"">
                                <img src=""images/B_D_S_2_lightshift.png"" style= ""width:200px""alt=""img"">
                            </div>
                        </div>","12","","0","images/B_D_S_2_lightshift.png","","","","positive","2","B","D","S","lightshift","",""
"","","","","","html-slider-response","138","398882","0.0-134.0","x8pr6nbhdd","6","NaN","<div style=""width:500px;"">
                            <p style=""font-size:50px; font-weight:bold;""
                            >positive</p>
                            <div style=""width:240px; margin: auto;"">
                                <img src=""images/R_D_U_27_darkshift.png"" style= ""width:200px""alt=""img"">
                            </div>
                        </div>","-109","","0","images/R_D_U_27_darkshift.png","","","","positive","2","R","D","U","darkshift","",""
"","","","","","html-slider-response","139","400490","0.0-135.0","x8pr6nbhdd","6","NaN","<div style=""width:500px;"">
                            <p style=""font-size:50px; font-weight:bold;""
                            >positive</p>
                            <div style=""width:240px; margin: auto;"">
                                <img src=""images/Y_D_U_13_lightshift.png"" style= ""width:200px""alt=""img"">
                            </div>
                        </div>","-50","","0","images/Y_D_U_13_lightshift.png","","","","positive","2","Y","D","U","lightshift","",""
"","","","","","html-slider-response","140","402371","0.0-136.0","x8pr6nbhdd","6","NaN","<div style=""width:500px;"">
                            <p style=""font-size:50px; font-weight:bold;""
                            >positive</p>
                            <div style=""width:240px; margin: auto;"">
                                <img src=""images/B_L_S_41_darkshift.png"" style= ""width:200px""alt=""img"">
                            </div>
                        </div>","166","","0","images/B_L_S_41_darkshift.png","","","","positive","2","B","L","S","darkshift","",""
"","","","","","html-slider-response","141","404342","0.0-137.0","x8pr6nbhdd","6","NaN","<div style=""width:500px;"">
                            <p style=""font-size:50px; font-weight:bold;""
                            >positive</p>
                            <div style=""width:240px; margin: auto;"">
                                <img src=""images/R_L_U_23_darkshift.png"" style= ""width:200px""alt=""img"">
                            </div>
                        </div>","98","","0","images/R_L_U_23_darkshift.png","","","","positive","1","R","L","U","darkshift","",""
"","","","","","html-slider-response","142","406212","0.0-138.0","x8pr6nbhdd","6","NaN","<div style=""width:500px;"">
                            <p style=""font-size:50px; font-weight:bold;""
                            >positive</p>
                            <div style=""width:240px; margin: auto;"">
                                <img src=""images/G_L_S_28_darkshift.png"" style= ""width:200px""alt=""img"">
                            </div>
                        </div>","97","","0","images/G_L_S_28_darkshift.png","","","","positive","1","G","L","S","darkshift","",""
"","","","","","html-slider-response","143","408059","0.0-139.0","x8pr6nbhdd","6","NaN","<div style=""width:500px;"">
                            <p style=""font-size:50px; font-weight:bold;""
                            >positive</p>
                            <div style=""width:240px; margin: auto;"">
                                <img src=""images/B_D_S_2_darkshift.png"" style= ""width:200px""alt=""img"">
                            </div>
                        </div>","75","","0","images/B_D_S_2_darkshift.png","","","","positive","2","B","D","S","darkshift","",""
"","","","","","html-slider-response","144","410041","0.0-140.0","x8pr6nbhdd","6","NaN","<div style=""width:500px;"">
                            <p style=""font-size:50px; font-weight:bold;""
                            >positive</p>
                            <div style=""width:240px; margin: auto;"">
                                <img src=""images/Y_D_U_13_lightshift.png"" style= ""width:200px""alt=""img"">
                            </div>
                        </div>","-56","","0","images/Y_D_U_13_lightshift.png","","","","positive","1","Y","D","U","lightshift","",""
"","","","","","html-slider-response","145","411903","0.0-141.0","x8pr6nbhdd","6","NaN","<div style=""width:500px;"">
                            <p style=""font-size:50px; font-weight:bold;""
                            >positive</p>
                            <div style=""width:240px; margin: auto;"">
                                <img src=""images/G_L_S_28_lightshift.png"" style= ""width:200px""alt=""img"">
                            </div>
                        </div>","-42","","0","images/G_L_S_28_lightshift.png","","","","positive","1","G","L","S","lightshift","",""
"","","","","","html-slider-response","146","413830","0.0-142.0","x8pr6nbhdd","6","NaN","<div style=""width:500px;"">
                            <p style=""font-size:50px; font-weight:bold;""
                            >positive</p>
                            <div style=""width:240px; margin: auto;"">
                                <img src=""images/G_D_U_37_lightshift.png"" style= ""width:200px""alt=""img"">
                            </div>
                        </div>","-31","","0","images/G_D_U_37_lightshift.png","","","","positive","2","G","D","U","lightshift","",""
"","","","","","html-slider-response","147","415789","0.0-143.0","x8pr6nbhdd","6","NaN","<div style=""width:500px;"">
                            <p style=""font-size:50px; font-weight:bold;""
                            >positive</p>
                            <div style=""width:240px; margin: auto;"">
                                <img src=""images/G_L_S_28_darkshift.png"" style= ""width:200px""alt=""img"">
                            </div>
                        </div>","66","","0","images/G_L_S_28_darkshift.png","","","","positive","2","G","L","S","darkshift","",""
"","","","","","html-button-response","148","417185","0.0-144.0","x8pr6nbhdd","6","894","<p>Great Job! You've finished block 2.<br></br> You have 2 block(s) left to go.<br></br></p>","0","","","","","","","","","","","","","",""
"","","","","","html-button-response","149","418056","0.0-145.0","x8pr6nbhdd","6","871","<p>In this block of trials, you will be asked to rate how much you associate each map with:</p > <p style = 'font-size:150%; font-weight: bold'>negative</p><br></br>","0","","","","","","","","","","","","","",""
"","","","","","html-slider-response","150","420356","0.0-146.0","x8pr6nbhdd","6","NaN","<div style=""width:500px;"">
                            <p style=""font-size:50px; font-weight:bold;""
                            >negative</p>
                            <div style=""width:240px; margin: auto;"">
                                <img src=""images/Y_L_U_10_lightshift.png"" style= ""width:200px""alt=""img"">
                            </div>
                        </div>","60","","0","images/Y_L_U_10_lightshift.png","","","","negative","2","Y","L","U","lightshift","",""
"","","","","","html-slider-response","151","426845","0.0-147.0","x8pr6nbhdd","6","NaN","<div style=""width:500px;"">
                            <p style=""font-size:50px; font-weight:bold;""
                            >negative</p>
                            <div style=""width:240px; margin: auto;"">
                                <img src=""images/B_D_U_5_lightshift.png"" style= ""width:200px""alt=""img"">
                            </div>
                        </div>","24","","0","images/B_D_U_5_lightshift.png","","","","negative","2","B","D","U","lightshift","",""
"","","","","","html-slider-response","152","429633","0.0-148.0","x8pr6nbhdd","6","NaN","<div style=""width:500px;"">
                            <p style=""font-size:50px; font-weight:bold;""
                            >negative</p>
                            <div style=""width:240px; margin: auto;"">
                                <img src=""images/G_D_U_37_lightshift.png"" style= ""width:200px""alt=""img"">
                            </div>
                        </div>","26","","0","images/G_D_U_37_lightshift.png","","","","negative","1","G","D","U","lightshift","",""
"","","","","","html-slider-response","153","431672","0.0-149.0","x8pr6nbhdd","6","NaN","<div style=""width:500px;"">
                            <p style=""font-size:50px; font-weight:bold;""
                            >negative</p>
                            <div style=""width:240px; margin: auto;"">
                                <img src=""images/G_L_S_28_darkshift.png"" style= ""width:200px""alt=""img"">
                            </div>
                        </div>","-115","","0","images/G_L_S_28_darkshift.png","","","","negative","2","G","L","S","darkshift","",""
"","","","","","html-slider-response","154","435796","0.0-150.0","x8pr6nbhdd","6","NaN","<div style=""width:500px;"">
                            <p style=""font-size:50px; font-weight:bold;""
                            >negative</p>
                            <div style=""width:240px; margin: auto;"">
                                <img src=""images/Y_L_U_10_darkshift.png"" style= ""width:200px""alt=""img"">
                            </div>
                        </div>","-83","","0","images/Y_L_U_10_darkshift.png","","","","negative","2","Y","L","U","darkshift","",""
"","","","","","html-slider-response","155","438442","0.0-151.0","x8pr6nbhdd","6","NaN","<div style=""width:500px;"">
                            <p style=""font-size:50px; font-weight:bold;""
                            >negative</p>
                            <div style=""width:240px; margin: auto;"">
                                <img src=""images/B_D_U_5_lightshift.png"" style= ""width:200px""alt=""img"">
                            </div>
                        </div>","45","","0","images/B_D_U_5_lightshift.png","","","","negative","1","B","D","U","lightshift","",""
"","","","","","html-slider-response","156","443990","0.0-152.0","x8pr6nbhdd","6","NaN","<div style=""width:500px;"">
                            <p style=""font-size:50px; font-weight:bold;""
                            >negative</p>
                            <div style=""width:240px; margin: auto;"">
                                <img src=""images/B_D_S_2_darkshift.png"" style= ""width:200px""alt=""img"">
                            </div>
                        </div>","-31","","0","images/B_D_S_2_darkshift.png","","","","negative","1","B","D","S","darkshift","",""
"","","","","","html-slider-response","157","446716","0.0-153.0","x8pr6nbhdd","6","NaN","<div style=""width:500px;"">
                            <p style=""font-size:50px; font-weight:bold;""
                            >negative</p>
                            <div style=""width:240px; margin: auto;"">
                                <img src=""images/G_D_U_37_darkshift.png"" style= ""width:200px""alt=""img"">
                            </div>
                        </div>","146","","0","images/G_D_U_37_darkshift.png","","","","negative","1","G","D","U","darkshift","",""
"","","","","","html-slider-response","158","448842","0.0-154.0","x8pr6nbhdd","6","NaN","<div style=""width:500px;"">
                            <p style=""font-size:50px; font-weight:bold;""
                            >negative</p>
                            <div style=""width:240px; margin: auto;"">
                                <img src=""images/G_D_S_33_lightshift.png"" style= ""width:200px""alt=""img"">
                            </div>
                        </div>","46","","0","images/G_D_S_33_lightshift.png","","","","negative","1","G","D","S","lightshift","",""
"","","","","","html-slider-response","159","450760","0.0-155.0","x8pr6nbhdd","6","NaN","<div style=""width:500px;"">
                            <p style=""font-size:50px; font-weight:bold;""
                            >negative</p>
                            <div style=""width:240px; margin: auto;"">
                                <img src=""images/B_L_U_44_darkshift.png"" style= ""width:200px""alt=""img"">
                            </div>
                        </div>","-54","","0","images/B_L_U_44_darkshift.png","","","","negative","2","B","L","U","darkshift","",""
"","","","","","html-slider-response","160","452766","0.0-156.0","x8pr6nbhdd","6","NaN","<div style=""width:500px;"">
                            <p style=""font-size:50px; font-weight:bold;""
                            >negative</p>
                            <div style=""width:240px; margin: auto;"">
                                <img src=""images/B_L_U_44_lightshift.png"" style= ""width:200px""alt=""img"">
                            </div>
                        </div>","21","","0","images/B_L_U_44_lightshift.png","","","","negative","1","B","L","U","lightshift","",""
"","","","","","html-slider-response","161","454941","0.0-157.0","x8pr6nbhdd","6","NaN","<div style=""width:500px;"">
                            <p style=""font-size:50px; font-weight:bold;""
                            >negative</p>
                            <div style=""width:240px; margin: auto;"">
                                <img src=""images/R_D_U_27_lightshift.png"" style= ""width:200px""alt=""img"">
                            </div>
                        </div>","18","","0","images/R_D_U_27_lightshift.png","","","","negative","2","R","D","U","lightshift","",""
"","","","","","html-slider-response","162","456779","0.0-158.0","x8pr6nbhdd","6","NaN","<div style=""width:500px;"">
                            <p style=""font-size:50px; font-weight:bold;""
                            >negative</p>
                            <div style=""width:240px; margin: auto;"">
                                <img src=""images/B_L_U_44_lightshift.png"" style= ""width:200px""alt=""img"">
                            </div>
                        </div>","18","","0","images/B_L_U_44_lightshift.png","","","","negative","2","B","L","U","lightshift","",""
"","","","","","html-slider-response","163","459712","0.0-159.0","x8pr6nbhdd","6","NaN","<div style=""width:500px;"">
                            <p style=""font-size:50px; font-weight:bold;""
                            >negative</p>
                            <div style=""width:240px; margin: auto;"">
                                <img src=""images/B_D_U_5_darkshift.png"" style= ""width:200px""alt=""img"">
                            </div>
                        </div>","82","","0","images/B_D_U_5_darkshift.png","","","","negative","1","B","D","U","darkshift","",""
"","","","","","html-slider-response","164","461591","0.0-160.0","x8pr6nbhdd","6","NaN","<div style=""width:500px;"">
                            <p style=""font-size:50px; font-weight:bold;""
                            >negative</p>
                            <div style=""width:240px; margin: auto;"">
                                <img src=""images/R_L_S_15_darkshift.png"" style= ""width:200px""alt=""img"">
                            </div>
                        </div>","-68","","0","images/R_L_S_15_darkshift.png","","","","negative","1","R","L","S","darkshift","",""
"","","","","","html-slider-response","165","463596","0.0-161.0","x8pr6nbhdd","6","NaN","<div style=""width:500px;"">
                            <p style=""font-size:50px; font-weight:bold;""
                            >negative</p>
                            <div style=""width:240px; margin: auto;"">
                                <img src=""images/Y_L_S_7_darkshift.png"" style= ""width:200px""alt=""img"">
                            </div>
                        </div>","-200","","0","images/Y_L_S_7_darkshift.png","","","","negative","1","Y","L","S","darkshift","",""
"","","","","","html-slider-response","166","466004","0.0-162.0","x8pr6nbhdd","6","NaN","<div style=""width:500px;"">
                            <p style=""font-size:50px; font-weight:bold;""
                            >negative</p>
                            <div style=""width:240px; margin: auto;"">
                                <img src=""images/R_L_U_23_lightshift.png"" style= ""width:200px""alt=""img"">
                            </div>
                        </div>","14","","0","images/R_L_U_23_lightshift.png","","","","negative","1","R","L","U","lightshift","",""
"","","","","","html-slider-response","167","470241","0.0-163.0","x8pr6nbhdd","6","NaN","<div style=""width:500px;"">
                            <p style=""font-size:50px; font-weight:bold;""
                            >negative</p>
                            <div style=""width:240px; margin: auto;"">
                                <img src=""images/G_D_S_33_darkshift.png"" style= ""width:200px""alt=""img"">
                            </div>
                        </div>","62","","0","images/G_D_S_33_darkshift.png","","","","negative","1","G","D","S","darkshift","",""
"","","","","","html-slider-response","168","472790","0.0-164.0","x8pr6nbhdd","6","NaN","<div style=""width:500px;"">
                            <p style=""font-size:50px; font-weight:bold;""
                            >negative</p>
                            <div style=""width:240px; margin: auto;"">
                                <img src=""images/G_D_U_37_lightshift.png"" style= ""width:200px""alt=""img"">
                            </div>
                        </div>","-33","","0","images/G_D_U_37_lightshift.png","","","","negative","2","G","D","U","lightshift","",""
"","","","","","html-slider-response","169","475428","0.0-165.0","x8pr6nbhdd","6","NaN","<div style=""width:500px;"">
                            <p style=""font-size:50px; font-weight:bold;""
                            >negative</p>
                            <div style=""width:240px; margin: auto;"">
                                <img src=""images/G_L_S_28_lightshift.png"" style= ""width:200px""alt=""img"">
                            </div>
                        </div>","-78","","0","images/G_L_S_28_lightshift.png","","","","negative","2","G","L","S","lightshift","",""
"","","","","","html-slider-response","170","477259","0.0-166.0","x8pr6nbhdd","6","NaN","<div style=""width:500px;"">
                            <p style=""font-size:50px; font-weight:bold;""
                            >negative</p>
                            <div style=""width:240px; margin: auto;"">
                                <img src=""images/B_D_S_2_darkshift.png"" style= ""width:200px""alt=""img"">
                            </div>
                        </div>","67","","0","images/B_D_S_2_darkshift.png","","","","negative","2","B","D","S","darkshift","",""
"","","","","","html-slider-response","171","479009","0.0-167.0","x8pr6nbhdd","6","NaN","<div style=""width:500px;"">
                            <p style=""font-size:50px; font-weight:bold;""
                            >negative</p>
                            <div style=""width:240px; margin: auto;"">
                                <img src=""images/R_L_S_15_lightshift.png"" style= ""width:200px""alt=""img"">
                            </div>
                        </div>","-58","","0","images/R_L_S_15_lightshift.png","","","","negative","1","R","L","S","lightshift","",""
"","","","","","html-slider-response","172","480704","0.0-168.0","x8pr6nbhdd","6","NaN","<div style=""width:500px;"">
                            <p style=""font-size:50px; font-weight:bold;""
                            >negative</p>
                            <div style=""width:240px; margin: auto;"">
                                <img src=""images/R_L_U_23_darkshift.png"" style= ""width:200px""alt=""img"">
                            </div>
                        </div>","47","","0","images/R_L_U_23_darkshift.png","","","","negative","2","R","L","U","darkshift","",""
"","","","","","html-slider-response","173","483904","0.0-169.0","x8pr6nbhdd","6","NaN","<div style=""width:500px;"">
                            <p style=""font-size:50px; font-weight:bold;""
                            >negative</p>
                            <div style=""width:240px; margin: auto;"">
                                <img src=""images/Y_D_U_13_lightshift.png"" style= ""width:200px""alt=""img"">
                            </div>
