"success","timeout","failed_images","failed_audio","failed_video","trial_type","trial_index","time_elapsed","internal_node_id","subject_id","condition_num","rt","stimulus","response","question_order","slider_start","image_path","practiceTrial","practiceTrialNum","correct","concept","repetition","hue","lightness","saturation","shift","ishihara_plate","correct_response"
"true","false","[]","[]","[]","preload","0","254","0.0-0.0","yn33rxavn1","2","","","","","","","","","","","","","","","","",""
"","","","","","html-button-response","1","15291606","0.0-1.0","yn33rxavn1","2","3535235","Welcome to our experiment!<p>At the bottom of this screen, you will see a button that says ""Begin Experiment"".<br>Please only click that button when you are ready to complete the 25 minute experiment in one sitting.</p><p> Once you click that button, it will not be possible to restart the experiment.","0","","","","","","","","","","","","","",""
"true","","","","","fullscreen","2","15293567","0.0-2.0","yn33rxavn1","2","957","","","","","","","","","","","","","","","",""
"","","","","","survey-multi-select","3","15299495","0.0-3.0","yn33rxavn1","2","5924","","{""Consent"":[""<strong>I consent</strong>""]}","[0]","","","","","","","","","","","","",""
"","","","","","html-button-response","4","15302428","0.0-4.0","yn33rxavn1","2","2930","Welcome! <p> This experiment involves two parts: demographic information, followed by the experimental task.<p> It will take about 25 minutes to complete both parts.","0","","","","","","","","","","","","","",""
"","","","","","survey-text","5","15318260","0.0-5.0","yn33rxavn1","2","15822","","{""Age"":""21"",""Gender"":""male"",""Race/ethnicity"":""southeast asian/hmong"",""Languages"":""english\nhmong""}","","","","","","","","","","","","","",""
"","","","","","html-slider-response","6","16705149","0.0-6.0","yn33rxavn1","2","1386887","
                            <div style='text-align:left; font-size:20px; line-height:25px; width: 1400px;'>
                                During this experiment you will be asked to rate how much you associate maps with                    different concepts.<br> Below, you can see some examples of the maps you will be asked to rate. Next to the maps
                    is the list of concepts.<br>You will be asked                    to rate how much you associate each map with each concept on a scale from 'not at all' to 'very much' like the
                    one below. <br><br>
                    Now, please look at the list of concepts and maps. For each concept, think about the map you associate 'very
                    much' with the concept.<br>                     When you see that map during the experiment, please rate it near the 'very much' endpoint of the
                    scale.<br>Now, please think about which map you associate 'not at all'                     with each concept. When you see that map during the experiment, please rate it near the 'not at all' endpoint
                    of the scale.<br>
                    Please use the full range of the scale. That is, if a map is somewhat associated with the concept, you would
                    click partway between the middle point and right side of the scale.                    You will be asked to rate each map for a given concept before moving on to the next concept.<br><br>Press the
                    'Continue' button for instructions on how to use the slider.                    <br><br>
                </div>

                <div style=""width: 500px; margin: 0 auto;"">
                    <!-- Centered text paragraphs -->
                    <div style=""text-align: center; width: 500px;"">
                        <p style=""font-size:25px; line-height:18px;"">calm</p>
                        <p style=""font-size:25px; line-height:18px;"">positive</p>
                        <p style=""font-size:25px;line-height:18px;"">negative</p>
                        <p style=""font-size:25px;line-height:18px;"">startling</p>
                    </div>

                    <!-- Grid section -->
                   <div style=""display: flex; justify-content: center; padding-top: 15px;"">
                    <div style=""display: grid; grid-template-columns: repeat(8, 80px); grid-gap: 5px; width: auto;"">
                        <img src=""images/R_L_U_10_lightshift.png"" alt=""map"" style=""width: 100%;""><img src=""images/Y_D_S_2_lightshift.png"" alt=""map"" style=""width: 100%;""><img src=""images/B_D_U_37_lightshift.png"" alt=""map"" style=""width: 100%;""><img src=""images/R_L_U_10_darkshift.png"" alt=""map"" style=""width: 100%;""><img src=""images/Y_L_S_41_darkshift.png"" alt=""map"" style=""width: 100%;""><img src=""images/G_L_S_15_darkshift.png"" alt=""map"" style=""width: 100%;""><img src=""images/Y_D_S_2_darkshift.png"" alt=""map"" style=""width: 100%;""><img src=""images/B_L_U_30_darkshift.png"" alt=""map"" style=""width: 100%;""><img src=""images/R_L_S_7_darkshift.png"" alt=""map"" style=""width: 100%;""><img src=""images/Y_L_U_44_darkshift.png"" alt=""map"" style=""width: 100%;""><img src=""images/G_D_S_26_darkshift.png"" alt=""map"" style=""width: 100%;""><img src=""images/G_L_U_23_lightshift.png"" alt=""map"" style=""width: 100%;""><img src=""images/G_L_U_23_darkshift.png"" alt=""map"" style=""width: 100%;""><img src=""images/R_L_S_7_lightshift.png"" alt=""map"" style=""width: 100%;""><img src=""images/Y_L_U_44_lightshift.png"" alt=""map"" style=""width: 100%;""><img src=""images/R_D_S_12_lightshift.png"" alt=""map"" style=""width: 100%;""><img src=""images/R_D_U_13_darkshift.png"" alt=""map"" style=""width: 100%;""><img src=""images/B_L_U_30_lightshift.png"" alt=""map"" style=""width: 100%;""><img src=""images/Y_D_U_5_darkshift.png"" alt=""map"" style=""width: 100%;""><img src=""images/B_D_S_33_darkshift.png"" alt=""map"" style=""width: 100%;""><img src=""images/B_D_U_37_darkshift.png"" alt=""map"" style=""width: 100%;""><img src=""images/G_D_S_26_lightshift.png"" alt=""map"" style=""width: 100%;""><img src=""images/B_D_S_33_lightshift.png"" alt=""map"" style=""width: 100%;""><img src=""images/B_L_S_28_lightshift.png"" alt=""map"" style=""width: 100%;""><img src=""images/G_D_U_27_lightshift.png"" alt=""map"" style=""width: 100%;""><img src=""images/R_D_S_12_darkshift.png"" alt=""map"" style=""width: 100%;""><img src=""images/G_L_S_15_lightshift.png"" alt=""map"" style=""width: 100%;""><img src=""images/Y_L_S_41_lightshift.png"" alt=""map"" style=""width: 100%;""><img src=""images/Y_D_U_5_lightshift.png"" alt=""map"" style=""width: 100%;""><img src=""images/R_D_U_13_lightshift.png"" alt=""map"" style=""width: 100%;""><img src=""images/B_L_S_28_darkshift.png"" alt=""map"" style=""width: 100%;""><img src=""images/G_D_U_27_darkshift.png"" alt=""map"" style=""width: 100%;"">
                    </div>
                </div>

                    <!-- Clear floats -->
                    <div style=""clear: both;""></div>
                </div>
                            ","null","","0","maps_anchoring.png","true","","","","","","","","","",""
"","","","","","html-button-response","7","16706919","0.0-7.0","yn33rxavn1","2","1767","<div style=""width:800px;""><p style=""text-align:left"">To move the slider, click and drag your cursor to the location of the scale where you would like to make your rating and then let go. When you let go of the slider, your response will be recorded and the next trial will begin. <br>
                    We are interested in your initial impressions of each map for the given concept, so please go with your first intuition. <br>
                    Before you begin the experiment, there will be four training trials for you to practice using the scale. <br>
                     When you are ready to start the training trials, please click ""Continue"".</p><br></div>","0","","","","","","","","","","","","","",""
"","","","","","html-slider-response","8","16709216","0.0-8.0-0.0","yn33rxavn1","2","NaN","<div style=""width:500px;"">
                                    <p style=""font-size:25px;"">Please move the slider all the way to the <br> right endpoint of the scale</p>

                                    </div>
                                </div>","200","","0","","true","0","true","","","","","","","",""
"","","","","","html-button-response","9","16710357","0.0-8.0-1.0","yn33rxavn1","2","637","<p align='center'><b>Good job!</b> Click on 'Continue' to proceed.</p>","0","","","","","","","","","","","","","",""
"","","","","","html-slider-response","10","16711705","0.0-9.0-0.0","yn33rxavn1","2","NaN","<div style=""width:500px;"">
                                    <p style=""font-size:25px;"">Please move the slider all the way to the <br> left endpoint of the scale</p>

                                    </div>
                                </div>","-200","","0","","true","1","true","","","","","","","",""
"","","","","","html-button-response","11","16712745","0.0-9.0-1.0","yn33rxavn1","2","538","<p align='center'><b>Good job!</b> Click on 'Continue' to proceed.</p>","0","","","","","","","","","","","","","",""
"","","","","","html-slider-response","12","16715073","0.0-10.0-0.0","yn33rxavn1","2","NaN","<div style=""width:500px;"">
                                    <p style=""font-size:25px;"">Please move the slider halfway between the center and right endpoint of the scale</p>

                                    </div>
                                </div>","119","","0","","true","2","false","","","","","","","",""
"","","","","","html-button-response","13","16716367","0.0-10.0-1.0","yn33rxavn1","2","790","<p align='center'><b>Not quite!</b> The slider was not placed near the instructed located. Click on 'Continue' to try again. </p>","0","","","","","","","","","","","","","",""
"","","","","","html-slider-response","14","16719161","0.0-10.1-0.1","yn33rxavn1","2","NaN","<div style=""width:500px;"">
                                    <p style=""font-size:25px;"">Please move the slider halfway between the center and right endpoint of the scale</p>

                                    </div>
                                </div>","92","","0","","true","2","true","","","","","","","",""
"","","","","","html-button-response","15","16720313","0.0-10.1-1.1","yn33rxavn1","2","648","<p align='center'><b>Good job!</b> Click on 'Continue' to proceed.</p>","0","","","","","","","","","","","","","",""
"","","","","","html-slider-response","16","16722807","0.0-11.0-0.0","yn33rxavn1","2","NaN","<div style=""width:500px;"">
                                    <p style=""font-size:25px;"">Please move the slider halfway between the center and left endpoint of the scale</p>

                                    </div>
                                </div>","-98","","0","","true","3","true","","","","","","","",""
"","","","","","html-button-response","17","16724108","0.0-11.0-1.0","yn33rxavn1","2","797","<p align='center'><b>Good job!</b> Click on 'Continue' to proceed.</p>","0","","","","","","","","","","","","","",""
"","","","","","html-button-response","18","16724748","0.0-12.0","yn33rxavn1","2","639","<p>Great job! You've completed the practice trials. Now you will begin the main task.</p>","0","","","","","","","","","","","","","",""
"","","","","","html-button-response","19","16726321","0.0-13.0","yn33rxavn1","2","1571","<p>In this block of trials, you will be asked to rate how much you associate each map with:</p > <p style = 'font-size:150%; font-weight: bold'>startling</p><br></br>","0","","","","","","","","","","","","","",""
"","","","","","html-slider-response","20","16729415","0.0-14.0","yn33rxavn1","2","NaN","<div style=""width:500px;"">
                            <p style=""font-size:50px; font-weight:bold;""
                            >startling</p>
                            <div style=""width:240px; margin: auto;"">
                                <img src=""images/G_L_U_23_lightshift.png"" style= ""width:200px""alt=""img"">
                            </div>
                        </div>","-200","","0","images/G_L_U_23_lightshift.png","","","","startling","2","G","L","U","lightshift","",""
"","","","","","html-slider-response","21","16734980","0.0-15.0","yn33rxavn1","2","NaN","<div style=""width:500px;"">
                            <p style=""font-size:50px; font-weight:bold;""
                            >startling</p>
                            <div style=""width:240px; margin: auto;"">
                                <img src=""images/G_D_S_26_lightshift.png"" style= ""width:200px""alt=""img"">
                            </div>
                        </div>","54","","0","images/G_D_S_26_lightshift.png","","","","startling","2","G","D","S","lightshift","",""
"","","","","","html-slider-response","22","16741707","0.0-16.0","yn33rxavn1","2","NaN","<div style=""width:500px;"">
                            <p style=""font-size:50px; font-weight:bold;""
                            >startling</p>
                            <div style=""width:240px; margin: auto;"">
                                <img src=""images/G_L_U_23_darkshift.png"" style= ""width:200px""alt=""img"">
                            </div>
                        </div>","-51","","0","images/G_L_U_23_darkshift.png","","","","startling","2","G","L","U","darkshift","",""
"","","","","","html-slider-response","23","16744245","0.0-17.0","yn33rxavn1","2","NaN","<div style=""width:500px;"">
                            <p style=""font-size:50px; font-weight:bold;""
                            >startling</p>
                            <div style=""width:240px; margin: auto;"">
                                <img src=""images/G_D_S_26_darkshift.png"" style= ""width:200px""alt=""img"">
                            </div>
                        </div>","200","","0","images/G_D_S_26_darkshift.png","","","","startling","1","G","D","S","darkshift","",""
"","","","","","html-slider-response","24","16748318","0.0-18.0","yn33rxavn1","2","NaN","<div style=""width:500px;"">
                            <p style=""font-size:50px; font-weight:bold;""
                            >startling</p>
                            <div style=""width:240px; margin: auto;"">
                                <img src=""images/Y_L_S_41_lightshift.png"" style= ""width:200px""alt=""img"">
                            </div>
                        </div>","38","","0","images/Y_L_S_41_lightshift.png","","","","startling","2","Y","L","S","lightshift","",""
"","","","","","html-slider-response","25","16752793","0.0-19.0","yn33rxavn1","2","NaN","<div style=""width:500px;"">
                            <p style=""font-size:50px; font-weight:bold;""
                            >startling</p>
                            <div style=""width:240px; margin: auto;"">
                                <img src=""images/G_D_S_26_lightshift.png"" style= ""width:200px""alt=""img"">
                            </div>
                        </div>","-145","","0","images/G_D_S_26_lightshift.png","","","","startling","1","G","D","S","lightshift","",""
"","","","","","html-slider-response","26","16757482","0.0-20.0","yn33rxavn1","2","NaN","<div style=""width:500px;"">
                            <p style=""font-size:50px; font-weight:bold;""
                            >startling</p>
                            <div style=""width:240px; margin: auto;"">
                                <img src=""images/R_D_U_13_lightshift.png"" style= ""width:200px""alt=""img"">
                            </div>
                        </div>","21","","0","images/R_D_U_13_lightshift.png","","","","startling","1","R","D","U","lightshift","",""
"","","","","","html-slider-response","27","16760603","0.0-21.0","yn33rxavn1","2","NaN","<div style=""width:500px;"">
                            <p style=""font-size:50px; font-weight:bold;""
                            >startling</p>
                            <div style=""width:240px; margin: auto;"">
                                <img src=""images/B_D_S_33_darkshift.png"" style= ""width:200px""alt=""img"">
                            </div>
                        </div>","105","","0","images/B_D_S_33_darkshift.png","","","","startling","1","B","D","S","darkshift","",""
"","","","","","html-slider-response","28","16765300","0.0-22.0","yn33rxavn1","2","NaN","<div style=""width:500px;"">
                            <p style=""font-size:50px; font-weight:bold;""
                            >startling</p>
                            <div style=""width:240px; margin: auto;"">
                                <img src=""images/B_D_S_33_lightshift.png"" style= ""width:200px""alt=""img"">
                            </div>
                        </div>","-4","","0","images/B_D_S_33_lightshift.png","","","","startling","2","B","D","S","lightshift","",""
"","","","","","html-slider-response","29","16770973","0.0-23.0","yn33rxavn1","2","NaN","<div style=""width:500px;"">
                            <p style=""font-size:50px; font-weight:bold;""
                            >startling</p>
                            <div style=""width:240px; margin: auto;"">
                                <img src=""images/R_L_S_7_lightshift.png"" style= ""width:200px""alt=""img"">
                            </div>
                        </div>","32","","0","images/R_L_S_7_lightshift.png","","","","startling","1","R","L","S","lightshift","",""
"","","","","","html-slider-response","30","16772759","0.0-24.0","yn33rxavn1","2","NaN","<div style=""width:500px;"">
                            <p style=""font-size:50px; font-weight:bold;""
                            >startling</p>
                            <div style=""width:240px; margin: auto;"">
                                <img src=""images/Y_L_U_44_darkshift.png"" style= ""width:200px""alt=""img"">
                            </div>
                        </div>","6","","0","images/Y_L_U_44_darkshift.png","","","","startling","2","Y","L","U","darkshift","",""
"","","","","","html-slider-response","31","16777206","0.0-25.0","yn33rxavn1","2","NaN","<div style=""width:500px;"">
                            <p style=""font-size:50px; font-weight:bold;""
                            >startling</p>
                            <div style=""width:240px; margin: auto;"">
                                <img src=""images/G_L_S_15_lightshift.png"" style= ""width:200px""alt=""img"">
                            </div>
                        </div>","-200","","0","images/G_L_S_15_lightshift.png","","","","startling","2","G","L","S","lightshift","",""
"","","","","","html-slider-response","32","16781745","0.0-26.0","yn33rxavn1","2","NaN","<div style=""width:500px;"">
                            <p style=""font-size:50px; font-weight:bold;""
                            >startling</p>
                            <div style=""width:240px; margin: auto;"">
                                <img src=""images/B_D_U_37_lightshift.png"" style= ""width:200px""alt=""img"">
                            </div>
                        </div>","-171","","0","images/B_D_U_37_lightshift.png","","","","startling","2","B","D","U","lightshift","",""
"","","","","","html-slider-response","33","16785659","0.0-27.0","yn33rxavn1","2","NaN","<div style=""width:500px;"">
                            <p style=""font-size:50px; font-weight:bold;""
                            >startling</p>
                            <div style=""width:240px; margin: auto;"">
                                <img src=""images/R_D_U_13_lightshift.png"" style= ""width:200px""alt=""img"">
                            </div>
                        </div>","27","","0","images/R_D_U_13_lightshift.png","","","","startling","2","R","D","U","lightshift","",""
"","","","","","html-slider-response","34","16789011","0.0-28.0","yn33rxavn1","2","NaN","<div style=""width:500px;"">
                            <p style=""font-size:50px; font-weight:bold;""
                            >startling</p>
                            <div style=""width:240px; margin: auto;"">
                                <img src=""images/R_D_S_12_lightshift.png"" style= ""width:200px""alt=""img"">
                            </div>
                        </div>","170","","0","images/R_D_S_12_lightshift.png","","","","startling","1","R","D","S","lightshift","",""
"","","","","","html-slider-response","35","16792380","0.0-29.0","yn33rxavn1","2","NaN","<div style=""width:500px;"">
                            <p style=""font-size:50px; font-weight:bold;""
                            >startling</p>
                            <div style=""width:240px; margin: auto;"">
                                <img src=""images/R_D_U_13_darkshift.png"" style= ""width:200px""alt=""img"">
                            </div>
                        </div>","200","","0","images/R_D_U_13_darkshift.png","","","","startling","1","R","D","U","darkshift","",""
"","","","","","html-slider-response","36","16795882","0.0-30.0","yn33rxavn1","2","NaN","<div style=""width:500px;"">
                            <p style=""font-size:50px; font-weight:bold;""
                            >startling</p>
                            <div style=""width:240px; margin: auto;"">
                                <img src=""images/B_L_U_30_lightshift.png"" style= ""width:200px""alt=""img"">
                            </div>
                        </div>","31","","0","images/B_L_U_30_lightshift.png","","","","startling","1","B","L","U","lightshift","",""
"","","","","","html-slider-response","37","16797914","0.0-31.0","yn33rxavn1","2","NaN","<div style=""width:500px;"">
                            <p style=""font-size:50px; font-weight:bold;""
                            >startling</p>
                            <div style=""width:240px; margin: auto;"">
                                <img src=""images/B_D_U_37_darkshift.png"" style= ""width:200px""alt=""img"">
                            </div>
                        </div>","199","","0","images/B_D_U_37_darkshift.png","","","","startling","2","B","D","U","darkshift","",""
"","","","","","html-slider-response","38","16800490","0.0-32.0","yn33rxavn1","2","NaN","<div style=""width:500px;"">
                            <p style=""font-size:50px; font-weight:bold;""
                            >startling</p>
                            <div style=""width:240px; margin: auto;"">
                                <img src=""images/R_L_S_7_darkshift.png"" style= ""width:200px""alt=""img"">
                            </div>
                        </div>","140","","0","images/R_L_S_7_darkshift.png","","","","startling","1","R","L","S","darkshift","",""
"","","","","","html-slider-response","39","16803187","0.0-33.0","yn33rxavn1","2","NaN","<div style=""width:500px;"">
                            <p style=""font-size:50px; font-weight:bold;""
                            >startling</p>
                            <div style=""width:240px; margin: auto;"">
                                <img src=""images/G_D_U_27_darkshift.png"" style= ""width:200px""alt=""img"">
                            </div>
                        </div>","190","","0","images/G_D_U_27_darkshift.png","","","","startling","1","G","D","U","darkshift","",""
"","","","","","html-slider-response","40","16804982","0.0-34.0","yn33rxavn1","2","NaN","<div style=""width:500px;"">
                            <p style=""font-size:50px; font-weight:bold;""
                            >startling</p>
                            <div style=""width:240px; margin: auto;"">
                                <img src=""images/Y_L_S_41_darkshift.png"" style= ""width:200px""alt=""img"">
                            </div>
                        </div>","194","","0","images/Y_L_S_41_darkshift.png","","","","startling","1","Y","L","S","darkshift","",""
"","","","","","html-slider-response","41","16806499","0.0-35.0","yn33rxavn1","2","NaN","<div style=""width:500px;"">
                            <p style=""font-size:50px; font-weight:bold;""
                            >startling</p>
                            <div style=""width:240px; margin: auto;"">
                                <img src=""images/Y_D_S_2_lightshift.png"" style= ""width:200px""alt=""img"">
                            </div>
                        </div>","165","","0","images/Y_D_S_2_lightshift.png","","","","startling","1","Y","D","S","lightshift","",""
"","","","","","html-slider-response","42","16808104","0.0-36.0","yn33rxavn1","2","NaN","<div style=""width:500px;"">
                            <p style=""font-size:50px; font-weight:bold;""
                            >startling</p>
                            <div style=""width:240px; margin: auto;"">
                                <img src=""images/R_L_U_10_darkshift.png"" style= ""width:200px""alt=""img"">
                            </div>
                        </div>","186","","0","images/R_L_U_10_darkshift.png","","","","startling","2","R","L","U","darkshift","",""
"","","","","","html-slider-response","43","16810620","0.0-37.0","yn33rxavn1","2","NaN","<div style=""width:500px;"">
                            <p style=""font-size:50px; font-weight:bold;""
                            >startling</p>
                            <div style=""width:240px; margin: auto;"">
                                <img src=""images/B_L_S_28_lightshift.png"" style= ""width:200px""alt=""img"">
                            </div>
                        </div>","-200","","0","images/B_L_S_28_lightshift.png","","","","startling","1","B","L","S","lightshift","",""
"","","","","","html-slider-response","44","16813653","0.0-38.0","yn33rxavn1","2","NaN","<div style=""width:500px;"">
                            <p style=""font-size:50px; font-weight:bold;""
                            >startling</p>
                            <div style=""width:240px; margin: auto;"">
                                <img src=""images/G_L_S_15_darkshift.png"" style= ""width:200px""alt=""img"">
                            </div>
                        </div>","-120","","0","images/G_L_S_15_darkshift.png","","","","startling","2","G","L","S","darkshift","",""
"","","","","","html-slider-response","45","16816800","0.0-39.0","yn33rxavn1","2","NaN","<div style=""width:500px;"">
                            <p style=""font-size:50px; font-weight:bold;""
                            >startling</p>
                            <div style=""width:240px; margin: auto;"">
                                <img src=""images/R_L_U_10_lightshift.png"" style= ""width:200px""alt=""img"">
                            </div>
                        </div>","-25","","0","images/R_L_U_10_lightshift.png","","","","startling","1","R","L","U","lightshift","",""
"","","","","","html-slider-response","46","16819979","0.0-40.0","yn33rxavn1","2","NaN","<div style=""width:500px;"">
                            <p style=""font-size:50px; font-weight:bold;""
                            >startling</p>
                            <div style=""width:240px; margin: auto;"">
                                <img src=""images/R_L_S_7_darkshift.png"" style= ""width:200px""alt=""img"">
                            </div>
                        </div>","1","","0","images/R_L_S_7_darkshift.png","","","","startling","2","R","L","S","darkshift","",""
"","","","","","html-slider-response","47","16822485","0.0-41.0","yn33rxavn1","2","NaN","<div style=""width:500px;"">
                            <p style=""font-size:50px; font-weight:bold;""
                            >startling</p>
                            <div style=""width:240px; margin: auto;"">
                                <img src=""images/Y_L_U_44_lightshift.png"" style= ""width:200px""alt=""img"">
                            </div>
                        </div>","-15","","0","images/Y_L_U_44_lightshift.png","","","","startling","2","Y","L","U","lightshift","",""
"","","","","","html-slider-response","48","16824279","0.0-42.0","yn33rxavn1","2","NaN","<div style=""width:500px;"">
                            <p style=""font-size:50px; font-weight:bold;""
                            >startling</p>
                            <div style=""width:240px; margin: auto;"">
                                <img src=""images/R_D_U_13_darkshift.png"" style= ""width:200px""alt=""img"">
                            </div>
                        </div>","116","","0","images/R_D_U_13_darkshift.png","","","","startling","2","R","D","U","darkshift","",""
"","","","","","html-slider-response","49","16827054","0.0-43.0","yn33rxavn1","2","NaN","<div style=""width:500px;"">
                            <p style=""font-size:50px; font-weight:bold;""
                            >startling</p>
                            <div style=""width:240px; margin: auto;"">
                                <img src=""images/G_L_S_15_lightshift.png"" style= ""width:200px""alt=""img"">
                            </div>
                        </div>","-194","","0","images/G_L_S_15_lightshift.png","","","","startling","1","G","L","S","lightshift","",""
"","","","","","html-slider-response","50","16830107","0.0-44.0","yn33rxavn1","2","NaN","<div style=""width:500px;"">
                            <p style=""font-size:50px; font-weight:bold;""
                            >startling</p>
                            <div style=""width:240px; margin: auto;"">
                                <img src=""images/Y_L_S_41_darkshift.png"" style= ""width:200px""alt=""img"">
                            </div>
                        </div>","109","","0","images/Y_L_S_41_darkshift.png","","","","startling","2","Y","L","S","darkshift","",""
"","","","","","html-slider-response","51","16833442","0.0-45.0","yn33rxavn1","2","NaN","<div style=""width:500px;"">
                            <p style=""font-size:50px; font-weight:bold;""
                            >startling</p>
                            <div style=""width:240px; margin: auto;"">
                                <img src=""images/B_D_U_37_darkshift.png"" style= ""width:200px""alt=""img"">
                            </div>
                        </div>","-50","","0","images/B_D_U_37_darkshift.png","","","","startling","1","B","D","U","darkshift","",""
"","","","","","html-slider-response","52","16835539","0.0-46.0","yn33rxavn1","2","NaN","<div style=""width:500px;"">
                            <p style=""font-size:50px; font-weight:bold;""
                            >startling</p>
                            <div style=""width:240px; margin: auto;"">
                                <img src=""images/B_D_S_33_darkshift.png"" style= ""width:200px""alt=""img"">
                            </div>
                        </div>","-42","","0","images/B_D_S_33_darkshift.png","","","","startling","2","B","D","S","darkshift","",""
"","","","","","html-slider-response","53","16837514","0.0-47.0","yn33rxavn1","2","NaN","<div style=""width:500px;"">
                            <p style=""font-size:50px; font-weight:bold;""
                            >startling</p>
                            <div style=""width:240px; margin: auto;"">
                                <img src=""images/Y_L_U_44_lightshift.png"" style= ""width:200px""alt=""img"">
                            </div>
                        </div>","-18","","0","images/Y_L_U_44_lightshift.png","","","","startling","1","Y","L","U","lightshift","",""
"","","","","","html-slider-response","54","16839412","0.0-48.0","yn33rxavn1","2","NaN","<div style=""width:500px;"">
                            <p style=""font-size:50px; font-weight:bold;""
                            >startling</p>
                            <div style=""width:240px; margin: auto;"">
                                <img src=""images/R_D_S_12_darkshift.png"" style= ""width:200px""alt=""img"">
                            </div>
                        </div>","151","","0","images/R_D_S_12_darkshift.png","","","","startling","2","R","D","S","darkshift","",""
"","","","","","html-slider-response","55","16841468","0.0-49.0","yn33rxavn1","2","NaN","<div style=""width:500px;"">
                            <p style=""font-size:50px; font-weight:bold;""
                            >startling</p>
                            <div style=""width:240px; margin: auto;"">
                                <img src=""images/Y_D_S_2_darkshift.png"" style= ""width:200px""alt=""img"">
                            </div>
                        </div>","195","","0","images/Y_D_S_2_darkshift.png","","","","startling","1","Y","D","S","darkshift","",""
"","","","","","html-slider-response","56","16843191","0.0-50.0","yn33rxavn1","2","NaN","<div style=""width:500px;"">
                            <p style=""font-size:50px; font-weight:bold;""
                            >startling</p>
                            <div style=""width:240px; margin: auto;"">
                                <img src=""images/Y_D_S_2_lightshift.png"" style= ""width:200px""alt=""img"">
                            </div>
                        </div>","193","","0","images/Y_D_S_2_lightshift.png","","","","startling","2","Y","D","S","lightshift","",""
"","","","","","html-slider-response","57","16844725","0.0-51.0","yn33rxavn1","2","NaN","<div style=""width:500px;"">
                            <p style=""font-size:50px; font-weight:bold;""
                            >startling</p>
                            <div style=""width:240px; margin: auto;"">
                                <img src=""images/Y_D_U_5_lightshift.png"" style= ""width:200px""alt=""img"">
                            </div>
                        </div>","186","","0","images/Y_D_U_5_lightshift.png","","","","startling","2","Y","D","U","lightshift","",""
"","","","","","html-slider-response","58","16845983","0.0-52.0","yn33rxavn1","2","NaN","<div style=""width:500px;"">
                            <p style=""font-size:50px; font-weight:bold;""
                            >startling</p>
                            <div style=""width:240px; margin: auto;"">
                                <img src=""images/R_D_S_12_darkshift.png"" style= ""width:200px""alt=""img"">
                            </div>
                        </div>","191","","0","images/R_D_S_12_darkshift.png","","","","startling","1","R","D","S","darkshift","",""
"","","","","","html-slider-response","59","16847951","0.0-53.0","yn33rxavn1","2","NaN","<div style=""width:500px;"">
                            <p style=""font-size:50px; font-weight:bold;""
                            >startling</p>
                            <div style=""width:240px; margin: auto;"">
                                <img src=""images/B_L_S_28_lightshift.png"" style= ""width:200px""alt=""img"">
                            </div>
                        </div>","-191","","0","images/B_L_S_28_lightshift.png","","","","startling","2","B","L","S","lightshift","",""
"","","","","","html-slider-response","60","16849959","0.0-54.0","yn33rxavn1","2","NaN","<div style=""width:500px;"">
                            <p style=""font-size:50px; font-weight:bold;""
                            >startling</p>
                            <div style=""width:240px; margin: auto;"">
                                <img src=""images/Y_D_U_5_darkshift.png"" style= ""width:200px""alt=""img"">
                            </div>
                        </div>","194","","0","images/Y_D_U_5_darkshift.png","","","","startling","1","Y","D","U","darkshift","",""
"","","","","","html-slider-response","61","16851437","0.0-55.0","yn33rxavn1","2","NaN","<div style=""width:500px;"">
                            <p style=""font-size:50px; font-weight:bold;""
                            >startling</p>
                            <div style=""width:240px; margin: auto;"">
                                <img src=""images/Y_D_S_2_darkshift.png"" style= ""width:200px""alt=""img"">
                            </div>
                        </div>","198","","0","images/Y_D_S_2_darkshift.png","","","","startling","2","Y","D","S","darkshift","",""
"","","","","","html-slider-response","62","16856229","0.0-56.0","yn33rxavn1","2","NaN","<div style=""width:500px;"">
                            <p style=""font-size:50px; font-weight:bold;""
                            >startling</p>
                            <div style=""width:240px; margin: auto;"">
                                <img src=""images/Y_L_U_44_darkshift.png"" style= ""width:200px""alt=""img"">
                            </div>
                        </div>","-29","","0","images/Y_L_U_44_darkshift.png","","","","startling","1","Y","L","U","darkshift","",""
"","","","","","html-slider-response","63","16858189","0.0-57.0","yn33rxavn1","2","NaN","<div style=""width:500px;"">
                            <p style=""font-size:50px; font-weight:bold;""
                            >startling</p>
                            <div style=""width:240px; margin: auto;"">
                                <img src=""images/B_D_U_37_lightshift.png"" style= ""width:200px""alt=""img"">
                            </div>
                        </div>","-200","","0","images/B_D_U_37_lightshift.png","","","","startling","1","B","D","U","lightshift","",""
"","","","","","html-slider-response","64","16859955","0.0-58.0","yn33rxavn1","2","NaN","<div style=""width:500px;"">
                            <p style=""font-size:50px; font-weight:bold;""
                            >startling</p>
                            <div style=""width:240px; margin: auto;"">
                                <img src=""images/B_L_U_30_darkshift.png"" style= ""width:200px""alt=""img"">
                            </div>
                        </div>","-200","","0","images/B_L_U_30_darkshift.png","","","","startling","1","B","L","U","darkshift","",""
"","","","","","html-slider-response","65","16861707","0.0-59.0","yn33rxavn1","2","NaN","<div style=""width:500px;"">
                            <p style=""font-size:50px; font-weight:bold;""
                            >startling</p>
                            <div style=""width:240px; margin: auto;"">
                                <img src=""images/B_L_U_30_darkshift.png"" style= ""width:200px""alt=""img"">
                            </div>
                        </div>","-200","","0","images/B_L_U_30_darkshift.png","","","","startling","2","B","L","U","darkshift","",""
"","","","","","html-slider-response","66","16863249","0.0-60.0","yn33rxavn1","2","NaN","<div style=""width:500px;"">
                            <p style=""font-size:50px; font-weight:bold;""
                            >startling</p>
                            <div style=""width:240px; margin: auto;"">
                                <img src=""images/Y_D_U_5_lightshift.png"" style= ""width:200px""alt=""img"">
                            </div>
                        </div>","200","","0","images/Y_D_U_5_lightshift.png","","","","startling","1","Y","D","U","lightshift","",""
"","","","","","html-slider-response","67","16866926","0.0-61.0","yn33rxavn1","2","NaN","<div style=""width:500px;"">
                            <p style=""font-size:50px; font-weight:bold;""
                            >startling</p>
                            <div style=""width:240px; margin: auto;"">
                                <img src=""images/G_L_S_15_darkshift.png"" style= ""width:200px""alt=""img"">
                            </div>
                        </div>","-200","","0","images/G_L_S_15_darkshift.png","","","","startling","1","G","L","S","darkshift","",""
"","","","","","html-slider-response","68","16868751","0.0-62.0","yn33rxavn1","2","NaN","<div style=""width:500px;"">
                            <p style=""font-size:50px; font-weight:bold;""
                            >startling</p>
                            <div style=""width:240px; margin: auto;"">
                                <img src=""images/Y_D_U_5_darkshift.png"" style= ""width:200px""alt=""img"">
                            </div>
                        </div>","200","","0","images/Y_D_U_5_darkshift.png","","","","startling","2","Y","D","U","darkshift","",""
"","","","","","html-slider-response","69","16871101","0.0-63.0","yn33rxavn1","2","NaN","<div style=""width:500px;"">
                            <p style=""font-size:50px; font-weight:bold;""
                            >startling</p>
                            <div style=""width:240px; margin: auto;"">
                                <img src=""images/B_L_S_28_darkshift.png"" style= ""width:200px""alt=""img"">
                            </div>
                        </div>","-200","","0","images/B_L_S_28_darkshift.png","","","","startling","2","B","L","S","darkshift","",""
"","","","","","html-slider-response","70","16872752","0.0-64.0","yn33rxavn1","2","NaN","<div style=""width:500px;"">
                            <p style=""font-size:50px; font-weight:bold;""
                            >startling</p>
                            <div style=""width:240px; margin: auto;"">
                                <img src=""images/Y_L_S_41_lightshift.png"" style= ""width:200px""alt=""img"">
                            </div>
                        </div>","-44","","0","images/Y_L_S_41_lightshift.png","","","","startling","1","Y","L","S","lightshift","",""
"","","","","","html-slider-response","71","16874791","0.0-65.0","yn33rxavn1","2","NaN","<div style=""width:500px;"">
                            <p style=""font-size:50px; font-weight:bold;""
                            >startling</p>
                            <div style=""width:240px; margin: auto;"">
                                <img src=""images/G_L_U_23_lightshift.png"" style= ""width:200px""alt=""img"">
                            </div>
                        </div>","-46","","0","images/G_L_U_23_lightshift.png","","","","startling","1","G","L","U","lightshift","",""
"","","","","","html-slider-response","72","16876200","0.0-66.0","yn33rxavn1","2","NaN","<div style=""width:500px;"">
                            <p style=""font-size:50px; font-weight:bold;""
                            >startling</p>
                            <div style=""width:240px; margin: auto;"">
                                <img src=""images/B_D_S_33_lightshift.png"" style= ""width:200px""alt=""img"">
                            </div>
                        </div>","-98","","0","images/B_D_S_33_lightshift.png","","","","startling","1","B","D","S","lightshift","",""
"","","","","","html-slider-response","73","16878161","0.0-67.0","yn33rxavn1","2","NaN","<div style=""width:500px;"">
                            <p style=""font-size:50px; font-weight:bold;""
                            >startling</p>
                            <div style=""width:240px; margin: auto;"">
                                <img src=""images/G_D_S_26_darkshift.png"" style= ""width:200px""alt=""img"">
                            </div>
                        </div>","-4","","0","images/G_D_S_26_darkshift.png","","","","startling","2","G","D","S","darkshift","",""
"","","","","","html-slider-response","74","16880389","0.0-68.0","yn33rxavn1","2","NaN","<div style=""width:500px;"">
                            <p style=""font-size:50px; font-weight:bold;""
                            >startling</p>
                            <div style=""width:240px; margin: auto;"">
                                <img src=""images/R_L_U_10_lightshift.png"" style= ""width:200px""alt=""img"">
                            </div>
                        </div>","2","","0","images/R_L_U_10_lightshift.png","","","","startling","2","R","L","U","lightshift","",""
"","","","","","html-slider-response","75","16883315","0.0-69.0","yn33rxavn1","2","NaN","<div style=""width:500px;"">
                            <p style=""font-size:50px; font-weight:bold;""
                            >startling</p>
                            <div style=""width:240px; margin: auto;"">
                                <img src=""images/G_D_U_27_darkshift.png"" style= ""width:200px""alt=""img"">
                            </div>
                        </div>","181","","0","images/G_D_U_27_darkshift.png","","","","startling","2","G","D","U","darkshift","",""
"","","","","","html-slider-response","76","16885788","0.0-70.0","yn33rxavn1","2","NaN","<div style=""width:500px;"">
                            <p style=""font-size:50px; font-weight:bold;""
                            >startling</p>
                            <div style=""width:240px; margin: auto;"">
                                <img src=""images/G_D_U_27_lightshift.png"" style= ""width:200px""alt=""img"">
                            </div>
                        </div>","-47","","0","images/G_D_U_27_lightshift.png","","","","startling","2","G","D","U","lightshift","",""
"","","","","","html-slider-response","77","16888115","0.0-71.0","yn33rxavn1","2","NaN","<div style=""width:500px;"">
                            <p style=""font-size:50px; font-weight:bold;""
                            >startling</p>
                            <div style=""width:240px; margin: auto;"">
                                <img src=""images/R_L_S_7_lightshift.png"" style= ""width:200px""alt=""img"">
                            </div>
                        </div>","-97","","0","images/R_L_S_7_lightshift.png","","","","startling","2","R","L","S","lightshift","",""
"","","","","","html-slider-response","78","16890328","0.0-72.0","yn33rxavn1","2","NaN","<div style=""width:500px;"">
                            <p style=""font-size:50px; font-weight:bold;""
                            >startling</p>
                            <div style=""width:240px; margin: auto;"">
                                <img src=""images/G_L_U_23_darkshift.png"" style= ""width:200px""alt=""img"">
                            </div>
                        </div>","-48","","0","images/G_L_U_23_darkshift.png","","","","startling","1","G","L","U","darkshift","",""
"","","","","","html-slider-response","79","16892716","0.0-73.0","yn33rxavn1","2","NaN","<div style=""width:500px;"">
                            <p style=""font-size:50px; font-weight:bold;""
                            >startling</p>
                            <div style=""width:240px; margin: auto;"">
                                <img src=""images/B_L_U_30_lightshift.png"" style= ""width:200px""alt=""img"">
                            </div>
                        </div>","-126","","0","images/B_L_U_30_lightshift.png","","","","startling","2","B","L","U","lightshift","",""
"","","","","","html-slider-response","80","16894495","0.0-74.0","yn33rxavn1","2","NaN","<div style=""width:500px;"">
                            <p style=""font-size:50px; font-weight:bold;""
                            >startling</p>
                            <div style=""width:240px; margin: auto;"">
                                <img src=""images/B_L_S_28_darkshift.png"" style= ""width:200px""alt=""img"">
                            </div>
                        </div>","-200","","0","images/B_L_S_28_darkshift.png","","","","startling","1","B","L","S","darkshift","",""
"","","","","","html-slider-response","81","16896314","0.0-75.0","yn33rxavn1","2","NaN","<div style=""width:500px;"">
                            <p style=""font-size:50px; font-weight:bold;""
                            >startling</p>
                            <div style=""width:240px; margin: auto;"">
                                <img src=""images/R_L_U_10_darkshift.png"" style= ""width:200px""alt=""img"">
                            </div>
                        </div>","-114","","0","images/R_L_U_10_darkshift.png","","","","startling","1","R","L","U","darkshift","",""
"","","","","","html-slider-response","82","16898131","0.0-76.0","yn33rxavn1","2","NaN","<div style=""width:500px;"">
                            <p style=""font-size:50px; font-weight:bold;""
                            >startling</p>
                            <div style=""width:240px; margin: auto;"">
                                <img src=""images/R_D_S_12_lightshift.png"" style= ""width:200px""alt=""img"">
                            </div>
                        </div>","-78","","0","images/R_D_S_12_lightshift.png","","","","startling","2","R","D","S","lightshift","",""
"","","","","","html-slider-response","83","16915072","0.0-77.0","yn33rxavn1","2","NaN","<div style=""width:500px;"">
                            <p style=""font-size:50px; font-weight:bold;""
                            >startling</p>
                            <div style=""width:240px; margin: auto;"">
                                <img src=""images/G_D_U_27_lightshift.png"" style= ""width:200px""alt=""img"">
                            </div>
                        </div>","-78","","0","images/G_D_U_27_lightshift.png","","","","startling","1","G","D","U","lightshift","",""
"","","","","","html-button-response","84","16918967","0.0-78.0","yn33rxavn1","2","3392","<p>Great Job! You've finished block 1.<br></br> You have 3 block(s) left to go.<br></br></p>","0","","","","","","","","","","","","","",""
"","","","","","html-button-response","85","16920755","0.0-79.0","yn33rxavn1","2","1786","<p>In this block of trials, you will be asked to rate how much you associate each map with:</p > <p style = 'font-size:150%; font-weight: bold'>positive</p><br></br>","0","","","","","","","","","","","","","",""
"","","","","","html-slider-response","86","16928009","0.0-80.0","yn33rxavn1","2","NaN","<div style=""width:500px;"">
                            <p style=""font-size:50px; font-weight:bold;""
                            >positive</p>
                            <div style=""width:240px; margin: auto;"">
                                <img src=""images/Y_L_S_41_darkshift.png"" style= ""width:200px""alt=""img"">
                            </div>
                        </div>","-81","","0","images/Y_L_S_41_darkshift.png","","","","positive","2","Y","L","S","darkshift","",""
"","","","","","html-slider-response","87","16930990","0.0-81.0","yn33rxavn1","2","NaN","<div style=""width:500px;"">
                            <p style=""font-size:50px; font-weight:bold;""
                            >positive</p>
                            <div style=""width:240px; margin: auto;"">
                                <img src=""images/B_D_U_37_darkshift.png"" style= ""width:200px""alt=""img"">
                            </div>
                        </div>","-197","","0","images/B_D_U_37_darkshift.png","","","","positive","2","B","D","U","darkshift","",""
"","","","","","html-slider-response","88","16934144","0.0-82.0","yn33rxavn1","2","NaN","<div style=""width:500px;"">
                            <p style=""font-size:50px; font-weight:bold;""
                            >positive</p>
                            <div style=""width:240px; margin: auto;"">
                                <img src=""images/G_L_S_15_lightshift.png"" style= ""width:200px""alt=""img"">
                            </div>
                        </div>","94","","0","images/G_L_S_15_lightshift.png","","","","positive","2","G","L","S","lightshift","",""
"","","","","","html-slider-response","89","16940303","0.0-83.0","yn33rxavn1","2","NaN","<div style=""width:500px;"">
                            <p style=""font-size:50px; font-weight:bold;""
                            >positive</p>
                            <div style=""width:240px; margin: auto;"">
                                <img src=""images/B_D_U_37_lightshift.png"" style= ""width:200px""alt=""img"">
                            </div>
                        </div>","22","","0","images/B_D_U_37_lightshift.png","","","","positive","1","B","D","U","lightshift","",""
"","","","","","html-slider-response","90","16945822","0.0-84.0","yn33rxavn1","2","NaN","<div style=""width:500px;"">
                            <p style=""font-size:50px; font-weight:bold;""
                            >positive</p>
                            <div style=""width:240px; margin: auto;"">
                                <img src=""images/R_L_S_7_darkshift.png"" style= ""width:200px""alt=""img"">
                            </div>
                        </div>","-28","","0","images/R_L_S_7_darkshift.png","","","","positive","1","R","L","S","darkshift","",""
"","","","","","html-slider-response","91","16947875","0.0-85.0","yn33rxavn1","2","NaN","<div style=""width:500px;"">
                            <p style=""font-size:50px; font-weight:bold;""
                            >positive</p>
                            <div style=""width:240px; margin: auto;"">
                                <img src=""images/R_D_S_12_darkshift.png"" style= ""width:200px""alt=""img"">
                            </div>
                        </div>","-200","","0","images/R_D_S_12_darkshift.png","","","","positive","2","R","D","S","darkshift","",""
"","","","","","html-slider-response","92","16950280","0.0-86.0","yn33rxavn1","2","NaN","<div style=""width:500px;"">
                            <p style=""font-size:50px; font-weight:bold;""
                            >positive</p>
                            <div style=""width:240px; margin: auto;"">
                                <img src=""images/R_D_U_13_lightshift.png"" style= ""width:200px""alt=""img"">
                            </div>
                        </div>","-200","","0","images/R_D_U_13_lightshift.png","","","","positive","2","R","D","U","lightshift","",""
"","","","","","html-slider-response","93","16952929","0.0-87.0","yn33rxavn1","2","NaN","<div style=""width:500px;"">
                            <p style=""font-size:50px; font-weight:bold;""
                            >positive</p>
                            <div style=""width:240px; margin: auto;"">
                                <img src=""images/B_D_S_33_darkshift.png"" style= ""width:200px""alt=""img"">
                            </div>
                        </div>","-120","","0","images/B_D_S_33_darkshift.png","","","","positive","2","B","D","S","darkshift","",""
"","","","","","html-slider-response","94","16957791","0.0-88.0","yn33rxavn1","2","NaN","<div style=""width:500px;"">
                            <p style=""font-size:50px; font-weight:bold;""
                            >positive</p>
                            <div style=""width:240px; margin: auto;"">
                                <img src=""images/B_D_S_33_lightshift.png"" style= ""width:200px""alt=""img"">
                            </div>
                        </div>","-34","","0","images/B_D_S_33_lightshift.png","","","","positive","1","B","D","S","lightshift","",""
"","","","","","html-slider-response","95","16961650","0.0-89.0","yn33rxavn1","2","NaN","<div style=""width:500px;"">
                            <p style=""font-size:50px; font-weight:bold;""
                            >positive</p>
                            <div style=""width:240px; margin: auto;"">
                                <img src=""images/R_D_U_13_lightshift.png"" style= ""width:200px""alt=""img"">
                            </div>
                        </div>","-77","","0","images/R_D_U_13_lightshift.png","","","","positive","1","R","D","U","lightshift","",""
"","","","","","html-slider-response","96","16963768","0.0-90.0","yn33rxavn1","2","NaN","<div style=""width:500px;"">
                            <p style=""font-size:50px; font-weight:bold;""
                            >positive</p>
                            <div style=""width:240px; margin: auto;"">
                                <img src=""images/G_L_U_23_lightshift.png"" style= ""width:200px""alt=""img"">
                            </div>
                        </div>","-20","","0","images/G_L_U_23_lightshift.png","","","","positive","1","G","L","U","lightshift","",""
"","","","","","html-slider-response","97","16965974","0.0-91.0","yn33rxavn1","2","NaN","<div style=""width:500px;"">
                            <p style=""font-size:50px; font-weight:bold;""
                            >positive</p>
                            <div style=""width:240px; margin: auto;"">
                                <img src=""images/B_L_S_28_darkshift.png"" style= ""width:200px""alt=""img"">
                            </div>
                        </div>","-62","","0","images/B_L_S_28_darkshift.png","","","","positive","2","B","L","S","darkshift","",""
"","","","","","html-slider-response","98","16967289","0.0-92.0","yn33rxavn1","2","NaN","<div style=""width:500px;"">
                            <p style=""font-size:50px; font-weight:bold;""
                            >positive</p>
                            <div style=""width:240px; margin: auto;"">
                                <img src=""images/B_L_S_28_darkshift.png"" style= ""width:200px""alt=""img"">
                            </div>
                        </div>","-21","","0","images/B_L_S_28_darkshift.png","","","","positive","1","B","L","S","darkshift","",""
"","","","","","html-slider-response","99","16969042","0.0-93.0","yn33rxavn1","2","NaN","<div style=""width:500px;"">
                            <p style=""font-size:50px; font-weight:bold;""
                            >positive</p>
                            <div style=""width:240px; margin: auto;"">
                                <img src=""images/R_L_S_7_darkshift.png"" style= ""width:200px""alt=""img"">
                            </div>
                        </div>","-70","","0","images/R_L_S_7_darkshift.png","","","","positive","2","R","L","S","darkshift","",""
"","","","","","html-slider-response","100","16970887","0.0-94.0","yn33rxavn1","2","NaN","<div style=""width:500px;"">
                            <p style=""font-size:50px; font-weight:bold;""
                            >positive</p>
                            <div style=""width:240px; margin: auto;"">
                                <img src=""images/Y_D_S_2_lightshift.png"" style= ""width:200px""alt=""img"">
                            </div>
                        </div>","-200","","0","images/Y_D_S_2_lightshift.png","","","","positive","1","Y","D","S","lightshift","",""
"","","","","","html-slider-response","101","16972568","0.0-95.0","yn33rxavn1","2","NaN","<div style=""width:500px;"">
                            <p style=""font-size:50px; font-weight:bold;""
                            >positive</p>
                            <div style=""width:240px; margin: auto;"">
                                <img src=""images/Y_L_S_41_darkshift.png"" style= ""width:200px""alt=""img"">
                            </div>
                        </div>","-200","","0","images/Y_L_S_41_darkshift.png","","","","positive","1","Y","L","S","darkshift","",""
"","","","","","html-slider-response","102","16974174","0.0-96.0","yn33rxavn1","2","NaN","<div style=""width:500px;"">
                            <p style=""font-size:50px; font-weight:bold;""
                            >positive</p>
                            <div style=""width:240px; margin: auto;"">
                                <img src=""images/Y_D_S_2_darkshift.png"" style= ""width:200px""alt=""img"">
                            </div>
                        </div>","-200","","0","images/Y_D_S_2_darkshift.png","","","","positive","2","Y","D","S","darkshift","",""
"","","","","","html-slider-response","103","16976896","0.0-97.0","yn33rxavn1","2","NaN","<div style=""width:500px;"">
                            <p style=""font-size:50px; font-weight:bold;""
                            >positive</p>
                            <div style=""width:240px; margin: auto;"">
                                <img src=""images/R_D_S_12_lightshift.png"" style= ""width:200px""alt=""img"">
                            </div>
                        </div>","9","","0","images/R_D_S_12_lightshift.png","","","","positive","1","R","D","S","lightshift","",""
"","","","","","html-slider-response","104","16978522","0.0-98.0","yn33rxavn1","2","NaN","<div style=""width:500px;"">
                            <p style=""font-size:50px; font-weight:bold;""
                            >positive</p>
                            <div style=""width:240px; margin: auto;"">
                                <img src=""images/G_D_S_26_darkshift.png"" style= ""width:200px""alt=""img"">
                            </div>
                        </div>","-200","","0","images/G_D_S_26_darkshift.png","","","","positive","2","G","D","S","darkshift","",""
"","","","","","html-slider-response","105","16980523","0.0-99.0","yn33rxavn1","2","NaN","<div style=""width:500px;"">
                            <p style=""font-size:50px; font-weight:bold;""
                            >positive</p>
                            <div style=""width:240px; margin: auto;"">
                                <img src=""images/B_D_S_33_lightshift.png"" style= ""width:200px""alt=""img"">
                            </div>
                        </div>","46","","0","images/B_D_S_33_lightshift.png","","","","positive","2","B","D","S","lightshift","",""
"","","","","","html-slider-response","106","16982769","0.0-100.0","yn33rxavn1","2","NaN","<div style=""width:500px;"">
                            <p style=""font-size:50px; font-weight:bold;""
                            >positive</p>
                            <div style=""width:240px; margin: auto;"">
                                <img src=""images/G_D_U_27_lightshift.png"" style= ""width:200px""alt=""img"">
                            </div>
                        </div>","-200","","0","images/G_D_U_27_lightshift.png","","","","positive","2","G","D","U","lightshift","",""
"","","","","","html-slider-response","107","16984755","0.0-101.0","yn33rxavn1","2","NaN","<div style=""width:500px;"">
                            <p style=""font-size:50px; font-weight:bold;""
                            >positive</p>
                            <div style=""width:240px; margin: auto;"">
                                <img src=""images/R_L_U_10_darkshift.png"" style= ""width:200px""alt=""img"">
                            </div>
                        </div>","-200","","0","images/R_L_U_10_darkshift.png","","","","positive","2","R","L","U","darkshift","",""
"","","","","","html-slider-response","108","16987378","0.0-102.0","yn33rxavn1","2","NaN","<div style=""width:500px;"">
                            <p style=""font-size:50px; font-weight:bold;""
                            >positive</p>
                            <div style=""width:240px; margin: auto;"">
                                <img src=""images/G_D_S_26_lightshift.png"" style= ""width:200px""alt=""img"">
                            </div>
                        </div>","43","","0","images/G_D_S_26_lightshift.png","","","","positive","1","G","D","S","lightshift","",""
"","","","","","html-slider-response","109","16988872","0.0-103.0","yn33rxavn1","2","NaN","<div style=""width:500px;"">
                            <p style=""font-size:50px; font-weight:bold;""
                            >positive</p>
                            <div style=""width:240px; margin: auto;"">
                                <img src=""images/R_D_U_13_darkshift.png"" style= ""width:200px""alt=""img"">
                            </div>
                        </div>","-200","","0","images/R_D_U_13_darkshift.png","","","","positive","2","R","D","U","darkshift","",""
"","","","","","html-slider-response","110","16991544","0.0-104.0","yn33rxavn1","2","NaN","<div style=""width:500px;"">
                            <p style=""font-size:50px; font-weight:bold;""
                            >positive</p>
                            <div style=""width:240px; margin: auto;"">
                                <img src=""images/Y_L_U_44_lightshift.png"" style= ""width:200px""alt=""img"">
                            </div>
                        </div>","32","","0","images/Y_L_U_44_lightshift.png","","","","positive","2","Y","L","U","lightshift","",""
"","","","","","html-slider-response","111","16993678","0.0-105.0","yn33rxavn1","2","NaN","<div style=""width:500px;"">
                            <p style=""font-size:50px; font-weight:bold;""
                            >positive</p>
                            <div style=""width:240px; margin: auto;"">
                                <img src=""images/G_L_U_23_darkshift.png"" style= ""width:200px""alt=""img"">
                            </div>
                        </div>","84","","0","images/G_L_U_23_darkshift.png","","","","positive","2","G","L","U","darkshift","",""
"","","","","","html-slider-response","112","16996399","0.0-106.0","yn33rxavn1","2","NaN","<div style=""width:500px;"">
                            <p style=""font-size:50px; font-weight:bold;""
                            >positive</p>
                            <div style=""width:240px; margin: auto;"">
                                <img src=""images/G_L_S_15_darkshift.png"" style= ""width:200px""alt=""img"">
                            </div>
                        </div>","7","","0","images/G_L_S_15_darkshift.png","","","","positive","1","G","L","S","darkshift","",""
"","","","","","html-slider-response","113","16998462","0.0-107.0","yn33rxavn1","2","NaN","<div style=""width:500px;"">
                            <p style=""font-size:50px; font-weight:bold;""
                            >positive</p>
                            <div style=""width:240px; margin: auto;"">
                                <img src=""images/Y_L_U_44_darkshift.png"" style= ""width:200px""alt=""img"">
                            </div>
                        </div>","-200","","0","images/Y_L_U_44_darkshift.png","","","","positive","2","Y","L","U","darkshift","",""
"","","","","","html-slider-response","114","17001078","0.0-108.0","yn33rxavn1","2","NaN","<div style=""width:500px;"">
                            <p style=""font-size:50px; font-weight:bold;""
                            >positive</p>
                            <div style=""width:240px; margin: auto;"">
                                <img src=""images/R_L_S_7_lightshift.png"" style= ""width:200px""alt=""img"">
                            </div>
                        </div>","38","","0","images/R_L_S_7_lightshift.png","","","","positive","2","R","L","S","lightshift","",""
"","","","","","html-slider-response","115","17003522","0.0-109.0","yn33rxavn1","2","NaN","<div style=""width:500px;"">
                            <p style=""font-size:50px; font-weight:bold;""
                            >positive</p>
                            <div style=""width:240px; margin: auto;"">
                                <img src=""images/B_D_U_37_darkshift.png"" style= ""width:200px""alt=""img"">
                            </div>
                        </div>","-90","","0","images/B_D_U_37_darkshift.png","","","","positive","1","B","D","U","darkshift","",""
"","","","","","html-slider-response","116","17005163","0.0-110.0","yn33rxavn1","2","NaN","<div style=""width:500px;"">
                            <p style=""font-size:50px; font-weight:bold;""
                            >positive</p>
                            <div style=""width:240px; margin: auto;"">
                                <img src=""images/R_L_U_10_lightshift.png"" style= ""width:200px""alt=""img"">
                            </div>
                        </div>","-30","","0","images/R_L_U_10_lightshift.png","","","","positive","1","R","L","U","lightshift","",""
"","","","","","html-slider-response","117","17006716","0.0-111.0","yn33rxavn1","2","NaN","<div style=""width:500px;"">
                            <p style=""font-size:50px; font-weight:bold;""
                            >positive</p>
                            <div style=""width:240px; margin: auto;"">
                                <img src=""images/Y_D_S_2_darkshift.png"" style= ""width:200px""alt=""img"">
                            </div>
                        </div>","-200","","0","images/Y_D_S_2_darkshift.png","","","","positive","1","Y","D","S","darkshift","",""
"","","","","","html-slider-response","118","17009119","0.0-112.0","yn33rxavn1","2","NaN","<div style=""width:500px;"">
                            <p style=""font-size:50px; font-weight:bold;""
                            >positive</p>
                            <div style=""width:240px; margin: auto;"">
                                <img src=""images/R_L_S_7_lightshift.png"" style= ""width:200px""alt=""img"">
                            </div>
                        </div>","138","","0","images/R_L_S_7_lightshift.png","","","","positive","1","R","L","S","lightshift","",""
"","","","","","html-slider-response","119","17011293","0.0-113.0","yn33rxavn1","2","NaN","<div style=""width:500px;"">
                            <p style=""font-size:50px; font-weight:bold;""
                            >positive</p>
                            <div style=""width:240px; margin: auto;"">
                                <img src=""images/B_L_U_30_lightshift.png"" style= ""width:200px""alt=""img"">
                            </div>
                        </div>","122","","0","images/B_L_U_30_lightshift.png","","","","positive","1","B","L","U","lightshift","",""
"","","","","","html-slider-response","120","17012439","0.0-114.0","yn33rxavn1","2","NaN","<div style=""width:500px;"">
                            <p style=""font-size:50px; font-weight:bold;""
                            >positive</p>
                            <div style=""width:240px; margin: auto;"">
                                <img src=""images/R_L_U_10_lightshift.png"" style= ""width:200px""alt=""img"">
                            </div>
                        </div>","86","","0","images/R_L_U_10_lightshift.png","","","","positive","2","R","L","U","lightshift","",""
"","","","","","html-slider-response","121","17014488","0.0-115.0","yn33rxavn1","2","NaN","<div style=""width:500px;"">
                            <p style=""font-size:50px; font-weight:bold;""
                            >positive</p>
                            <div style=""width:240px; margin: auto;"">
                                <img src=""images/Y_L_S_41_lightshift.png"" style= ""width:200px""alt=""img"">
                            </div>
                        </div>","200","","0","images/Y_L_S_41_lightshift.png","","","","positive","1","Y","L","S","lightshift","",""
"","","","","","html-slider-response","122","17016259","0.0-116.0","yn33rxavn1","2","NaN","<div style=""width:500px;"">
                            <p style=""font-size:50px; font-weight:bold;""
                            >positive</p>
                            <div style=""width:240px; margin: auto;"">
                                <img src=""images/R_D_S_12_darkshift.png"" style= ""width:200px""alt=""img"">
                            </div>
                        </div>","-200","","0","images/R_D_S_12_darkshift.png","","","","positive","1","R","D","S","darkshift","",""
"","","","","","html-slider-response","123","17018133","0.0-117.0","yn33rxavn1","2","NaN","<div style=""width:500px;"">
                            <p style=""font-size:50px; font-weight:bold;""
                            >positive</p>
                            <div style=""width:240px; margin: auto;"">
                                <img src=""images/R_D_S_12_lightshift.png"" style= ""width:200px""alt=""img"">
                            </div>
                        </div>","47","","0","images/R_D_S_12_lightshift.png","","","","positive","2","R","D","S","lightshift","",""
"","","","","","html-slider-response","124","17020363","0.0-118.0","yn33rxavn1","2","NaN","<div style=""width:500px;"">
                            <p style=""font-size:50px; font-weight:bold;""
                            >positive</p>
                            <div style=""width:240px; margin: auto;"">
                                <img src=""images/G_D_U_27_lightshift.png"" style= ""width:200px""alt=""img"">
                            </div>
                        </div>","48","","0","images/G_D_U_27_lightshift.png","","","","positive","1","G","D","U","lightshift","",""
"","","","","","html-slider-response","125","17022125","0.0-119.0","yn33rxavn1","2","NaN","<div style=""width:500px;"">
                            <p style=""font-size:50px; font-weight:bold;""
                            >positive</p>
                            <div style=""width:240px; margin: auto;"">
                                <img src=""images/R_D_U_13_darkshift.png"" style= ""width:200px""alt=""img"">
                            </div>
                        </div>","-200","","0","images/R_D_U_13_darkshift.png","","","","positive","1","R","D","U","darkshift","",""
"","","","","","html-slider-response","126","17023786","0.0-120.0","yn33rxavn1","2","NaN","<div style=""width:500px;"">
                            <p style=""font-size:50px; font-weight:bold;""
                            >positive</p>
                            <div style=""width:240px; margin: auto;"">
                                <img src=""images/Y_D_U_5_darkshift.png"" style= ""width:200px""alt=""img"">
                            </div>
                        </div>","-200","","0","images/Y_D_U_5_darkshift.png","","","","positive","2","Y","D","U","darkshift","",""
"","","","","","html-slider-response","127","17026214","0.0-121.0","yn33rxavn1","2","NaN","<div style=""width:500px;"">
                            <p style=""font-size:50px; font-weight:bold;""
                            >positive</p>
                            <div style=""width:240px; margin: auto;"">
                                <img src=""images/B_L_U_30_darkshift.png"" style= ""width:200px""alt=""img"">
                            </div>
                        </div>","126","","0","images/B_L_U_30_darkshift.png","","","","positive","2","B","L","U","darkshift","",""
"","","","","","html-slider-response","128","17028609","0.0-122.0","yn33rxavn1","2","NaN","<div style=""width:500px;"">
                            <p style=""font-size:50px; font-weight:bold;""
                            >positive</p>
                            <div style=""width:240px; margin: auto;"">
                                <img src=""images/G_L_U_23_lightshift.png"" style= ""width:200px""alt=""img"">
                            </div>
                        </div>","40","","0","images/G_L_U_23_lightshift.png","","","","positive","2","G","L","U","lightshift","",""
"","","","","","html-slider-response","129","17080544","0.0-123.0","yn33rxavn1","2","NaN","<div style=""width:500px;"">
                            <p style=""font-size:50px; font-weight:bold;""
                            >positive</p>
                            <div style=""width:240px; margin: auto;"">
                                <img src=""images/G_D_S_26_lightshift.png"" style= ""width:200px""alt=""img"">
                            </div>
                        </div>","68","","0","images/G_D_S_26_lightshift.png","","","","positive","2","G","D","S","lightshift","",""
"","","","","","html-slider-response","130","17083698","0.0-124.0","yn33rxavn1","2","NaN","<div style=""width:500px;"">
                            <p style=""font-size:50px; font-weight:bold;""
                            >positive</p>
                            <div style=""width:240px; margin: auto;"">
                                <img src=""images/G_L_U_23_darkshift.png"" style= ""width:200px""alt=""img"">
                            </div>
                        </div>","18","","0","images/G_L_U_23_darkshift.png","","","","positive","1","G","L","U","darkshift","",""
"","","","","","html-slider-response","131","17085676","0.0-125.0","yn33rxavn1","2","NaN","<div style=""width:500px;"">
                            <p style=""font-size:50px; font-weight:bold;""
                            >positive</p>
                            <div style=""width:240px; margin: auto;"">
                                <img src=""images/B_L_S_28_lightshift.png"" style= ""width:200px""alt=""img"">
                            </div>
                        </div>","119","","0","images/B_L_S_28_lightshift.png","","","","positive","2","B","L","S","lightshift","",""
"","","","","","html-slider-response","132","17087747","0.0-126.0","yn33rxavn1","2","NaN","<div style=""width:500px;"">
                            <p style=""font-size:50px; font-weight:bold;""
                            >positive</p>
                            <div style=""width:240px; margin: auto;"">
                                <img src=""images/G_D_U_27_darkshift.png"" style= ""width:200px""alt=""img"">
                            </div>
                        </div>","-200","","0","images/G_D_U_27_darkshift.png","","","","positive","2","G","D","U","darkshift","",""
"","","","","","html-slider-response","133","17089384","0.0-127.0","yn33rxavn1","2","NaN","<div style=""width:500px;"">
                            <p style=""font-size:50px; font-weight:bold;""
                            >positive</p>
                            <div style=""width:240px; margin: auto;"">
                                <img src=""images/B_L_S_28_lightshift.png"" style= ""width:200px""alt=""img"">
                            </div>
                        </div>","101","","0","images/B_L_S_28_lightshift.png","","","","positive","1","B","L","S","lightshift","",""
"","","","","","html-slider-response","134","17091123","0.0-128.0","yn33rxavn1","2","NaN","<div style=""width:500px;"">
                            <p style=""font-size:50px; font-weight:bold;""
                            >positive</p>
                            <div style=""width:240px; margin: auto;"">
                                <img src=""images/R_L_U_10_darkshift.png"" style= ""width:200px""alt=""img"">
                            </div>
                        </div>","81","","0","images/R_L_U_10_darkshift.png","","","","positive","1","R","L","U","darkshift","",""
"","","","","","html-slider-response","135","17093518","0.0-129.0","yn33rxavn1","2","NaN","<div style=""width:500px;"">
                            <p style=""font-size:50px; font-weight:bold;""
                            >positive</p>
                            <div style=""width:240px; margin: auto;"">
                                <img src=""images/B_D_S_33_darkshift.png"" style= ""width:200px""alt=""img"">
                            </div>
                        </div>","-34","","0","images/B_D_S_33_darkshift.png","","","","positive","1","B","D","S","darkshift","",""
"","","","","","html-slider-response","136","17095203","0.0-130.0","yn33rxavn1","2","NaN","<div style=""width:500px;"">
                            <p style=""font-size:50px; font-weight:bold;""
                            >positive</p>
                            <div style=""width:240px; margin: auto;"">
                                <img src=""images/Y_D_U_5_lightshift.png"" style= ""width:200px""alt=""img"">
                            </div>
                        </div>","-200","","0","images/Y_D_U_5_lightshift.png","","","","positive","2","Y","D","U","lightshift","",""
"","","","","","html-slider-response","137","17097037","0.0-131.0","yn33rxavn1","2","NaN","<div style=""width:500px;"">
                            <p style=""font-size:50px; font-weight:bold;""
                            >positive</p>
                            <div style=""width:240px; margin: auto;"">
                                <img src=""images/Y_D_U_5_lightshift.png"" style= ""width:200px""alt=""img"">
                            </div>
                        </div>","-200","","0","images/Y_D_U_5_lightshift.png","","","","positive","1","Y","D","U","lightshift","",""
"","","","","","html-slider-response","138","17100327","0.0-132.0","yn33rxavn1","2","NaN","<div style=""width:500px;"">
                            <p style=""font-size:50px; font-weight:bold;""
                            >positive</p>
                            <div style=""width:240px; margin: auto;"">
                                <img src=""images/Y_L_U_44_darkshift.png"" style= ""width:200px""alt=""img"">
                            </div>
                        </div>","107","","0","images/Y_L_U_44_darkshift.png","","","","positive","1","Y","L","U","darkshift","",""
"","","","","","html-slider-response","139","17103180","0.0-133.0","yn33rxavn1","2","NaN","<div style=""width:500px;"">
                            <p style=""font-size:50px; font-weight:bold;""
                            >positive</p>
                            <div style=""width:240px; margin: auto;"">
                                <img src=""images/Y_L_S_41_lightshift.png"" style= ""width:200px""alt=""img"">
                            </div>
                        </div>","200","","0","images/Y_L_S_41_lightshift.png","","","","positive","2","Y","L","S","lightshift","",""
"","","","","","html-slider-response","140","17105434","0.0-134.0","yn33rxavn1","2","NaN","<div style=""width:500px;"">
                            <p style=""font-size:50px; font-weight:bold;""
                            >positive</p>
                            <div style=""width:240px; margin: auto;"">
                                <img src=""images/Y_D_S_2_lightshift.png"" style= ""width:200px""alt=""img"">
                            </div>
                        </div>","-200","","0","images/Y_D_S_2_lightshift.png","","","","positive","2","Y","D","S","lightshift","",""
"","","","","","html-slider-response","141","17107528","0.0-135.0","yn33rxavn1","2","NaN","<div style=""width:500px;"">
                            <p style=""font-size:50px; font-weight:bold;""
                            >positive</p>
                            <div style=""width:240px; margin: auto;"">
                                <img src=""images/G_D_U_27_darkshift.png"" style= ""width:200px""alt=""img"">
                            </div>
                        </div>","-189","","0","images/G_D_U_27_darkshift.png","","","","positive","1","G","D","U","darkshift","",""
"","","","","","html-slider-response","142","17109235","0.0-136.0","yn33rxavn1","2","NaN","<div style=""width:500px;"">
                            <p style=""font-size:50px; font-weight:bold;""
                            >positive</p>
                            <div style=""width:240px; margin: auto;"">
                                <img src=""images/G_D_S_26_darkshift.png"" style= ""width:200px""alt=""img"">
                            </div>
                        </div>","-200","","0","images/G_D_S_26_darkshift.png","","","","positive","1","G","D","S","darkshift","",""
"","","","","","html-slider-response","143","17114842","0.0-137.0","yn33rxavn1","2","NaN","<div style=""width:500px;"">
                            <p style=""font-size:50px; font-weight:bold;""
                            >positive</p>
                            <div style=""width:240px; margin: auto;"">
                                <img src=""images/Y_L_U_44_lightshift.png"" style= ""width:200px""alt=""img"">
                            </div>
                        </div>","22","","0","images/Y_L_U_44_lightshift.png","","","","positive","1","Y","L","U","lightshift","",""
"","","","","","html-slider-response","144","17116509","0.0-138.0","yn33rxavn1","2","NaN","<div style=""width:500px;"">
                            <p style=""font-size:50px; font-weight:bold;""
                            >positive</p>
                            <div style=""width:240px; margin: auto;"">
                                <img src=""images/B_L_U_30_lightshift.png"" style= ""width:200px""alt=""img"">
                            </div>
                        </div>","22","","0","images/B_L_U_30_lightshift.png","","","","positive","2","B","L","U","lightshift","",""
"","","","","","html-slider-response","145","17118849","0.0-139.0","yn33rxavn1","2","NaN","<div style=""width:500px;"">
                            <p style=""font-size:50px; font-weight:bold;""
                            >positive</p>
                            <div style=""width:240px; margin: auto;"">
                                <img src=""images/G_L_S_15_lightshift.png"" style= ""width:200px""alt=""img"">
                            </div>
                        </div>","70","","0","images/G_L_S_15_lightshift.png","","","","positive","1","G","L","S","lightshift","",""
"","","","","","html-slider-response","146","17120748","0.0-140.0","yn33rxavn1","2","NaN","<div style=""width:500px;"">
                            <p style=""font-size:50px; font-weight:bold;""
                            >positive</p>
                            <div style=""width:240px; margin: auto;"">
                                <img src=""images/B_D_U_37_lightshift.png"" style= ""width:200px""alt=""img"">
                            </div>
                        </div>","34","","0","images/B_D_U_37_lightshift.png","","","","positive","2","B","D","U","lightshift","",""
"","","","","","html-slider-response","147","17122550","0.0-141.0","yn33rxavn1","2","NaN","<div style=""width:500px;"">
                            <p style=""font-size:50px; font-weight:bold;""
                            >positive</p>
                            <div style=""width:240px; margin: auto;"">
                                <img src=""images/G_L_S_15_darkshift.png"" style= ""width:200px""alt=""img"">
                            </div>
                        </div>","98","","0","images/G_L_S_15_darkshift.png","","","","positive","2","G","L","S","darkshift","",""
"","","","","","html-slider-response","148","17124542","0.0-142.0","yn33rxavn1","2","NaN","<div style=""width:500px;"">
                            <p style=""font-size:50px; font-weight:bold;""
                            >positive</p>
                            <div style=""width:240px; margin: auto;"">
                                <img src=""images/Y_D_U_5_darkshift.png"" style= ""width:200px""alt=""img"">
                            </div>
                        </div>","-192","","0","images/Y_D_U_5_darkshift.png","","","","positive","1","Y","D","U","darkshift","",""
"","","","","","html-slider-response","149","17127183","0.0-143.0","yn33rxavn1","2","NaN","<div style=""width:500px;"">
                            <p style=""font-size:50px; font-weight:bold;""
                            >positive</p>
                            <div style=""width:240px; margin: auto;"">
                                <img src=""images/B_L_U_30_darkshift.png"" style= ""width:200px""alt=""img"">
                            </div>
                        </div>","127","","0","images/B_L_U_30_darkshift.png","","","","positive","1","B","L","U","darkshift","",""
"","","","","","html-button-response","150","17128454","0.0-144.0","yn33rxavn1","2","768","<p>Great Job! You've finished block 2.<br></br> You have 2 block(s) left to go.<br></br></p>","0","","","","","","","","","","","","","",""
"","","","","","html-button-response","151","17129655","0.0-145.0","yn33rxavn1","2","1200","<p>In this block of trials, you will be asked to rate how much you associate each map with:</p > <p style = 'font-size:150%; font-weight: bold'>calm</p><br></br>","0","","","","","","","","","","","","","",""
"","","","","","html-slider-response","152","17132149","0.0-146.0","yn33rxavn1","2","NaN","<div style=""width:500px;"">
                            <p style=""font-size:50px; font-weight:bold;""
                            >calm</p>
                            <div style=""width:240px; margin: auto;"">
                                <img src=""images/G_L_S_15_darkshift.png"" style= ""width:200px""alt=""img"">
                            </div>
                        </div>","195","","0","images/G_L_S_15_darkshift.png","","","","calm","1","G","L","S","darkshift","",""
"","","","","","html-slider-response","153","17136767","0.0-147.0","yn33rxavn1","2","NaN","<div style=""width:500px;"">
                            <p style=""font-size:50px; font-weight:bold;""
                            >calm</p>
                            <div style=""width:240px; margin: auto;"">
                                <img src=""images/Y_L_U_44_lightshift.png"" style= ""width:200px""alt=""img"">
                            </div>
                        </div>","99","","0","images/Y_L_U_44_lightshift.png","","","","calm","2","Y","L","U","lightshift","",""
"","","","","","html-slider-response","154","17139147","0.0-148.0","yn33rxavn1","2","NaN","<div style=""width:500px;"">
                            <p style=""font-size:50px; font-weight:bold;""
                            >calm</p>
                            <div style=""width:240px; margin: auto;"">
                                <img src=""images/B_D_U_37_darkshift.png"" style= ""width:200px""alt=""img"">
                            </div>
                        </div>","189","","0","images/B_D_U_37_darkshift.png","","","","calm","1","B","D","U","darkshift","",""
"","","","","","html-slider-response","155","17143509","0.0-149.0","yn33rxavn1","2","NaN","<div style=""width:500px;"">
                            <p style=""font-size:50px; font-weight:bold;""
                            >calm</p>
                            <div style=""width:240px; margin: auto;"">
                                <img src=""images/Y_L_U_44_darkshift.png"" style= ""width:200px""alt=""img"">
                            </div>
                        </div>","41","","0","images/Y_L_U_44_darkshift.png","","","","calm","1","Y","L","U","darkshift","",""
"","","","","","html-slider-response","156","17147544","0.0-150.0","yn33rxavn1","2","NaN","<div style=""width:500px;"">
                            <p style=""font-size:50px; font-weight:bold;""
                            >calm</p>
                            <div style=""width:240px; margin: auto;"">
                                <img src=""images/R_L_U_10_darkshift.png"" style= ""width:200px""alt=""img"">
                            </div>
                        </div>","34","","0","images/R_L_U_10_darkshift.png","","","","calm","1","R","L","U","darkshift","",""
"","","","","","html-slider-response","157","17150997","0.0-151.0","yn33rxavn1","2","NaN","<div style=""width:500px;"">
                            <p style=""font-size:50px; font-weight:bold;""
                            >calm</p>
                            <div style=""width:240px; margin: auto;"">
                                <img src=""images/G_D_U_27_lightshift.png"" style= ""width:200px""alt=""img"">
                            </div>
                        </div>","102","","0","images/G_D_U_27_lightshift.png","","","","calm","1","G","D","U","lightshift","",""
"","","","","","html-slider-response","158","17153030","0.0-152.0","yn33rxavn1","2","NaN","<div style=""width:500px;"">
                            <p style=""font-size:50px; font-weight:bold;""
                            >calm</p>
                            <div style=""width:240px; margin: auto;"">
                                <img src=""images/R_L_U_10_lightshift.png"" style= ""width:200px""alt=""img"">
                            </div>
                        </div>","101","","0","images/R_L_U_10_lightshift.png","","","","calm","2","R","L","U","lightshift","",""
"","","","","","html-slider-response","159","17156446","0.0-153.0","yn33rxavn1","2","NaN","<div style=""width:500px;"">
                            <p style=""font-size:50px; font-weight:bold;""
                            >calm</p>
                            <div style=""width:240px; margin: auto;"">
                                <img src=""images/Y_L_S_41_lightshift.png"" style= ""width:200px""alt=""img"">
                            </div>
                        </div>","-100","","0","images/Y_L_S_41_lightshift.png","","","","calm","1","Y","L","S","lightshift","",""
"","","","","","html-slider-response","160","17158801","0.0-154.0","yn33rxavn1","2","NaN","<div style=""width:500px;"">
                            <p style=""font-size:50px; font-weight:bold;""
                            >calm</p>
                            <div style=""width:240px; margin: auto;"">
                                <img src=""images/G_D_S_26_lightshift.png"" style= ""width:200px""alt=""img"">
                            </div>
                        </div>","197","","0","images/G_D_S_26_lightshift.png","","","","calm","2","G","D","S","lightshift","",""
"","","","","","html-slider-response","161","17159931","0.0-155.0","yn33rxavn1","2","NaN","<div style=""width:500px;"">
                            <p style=""font-size:50px; font-weight:bold;""
                            >calm</p>
                            <div style=""width:240px; margin: auto;"">
                                <img src=""images/B_D_S_33_lightshift.png"" style= ""width:200px""alt=""img"">
                            </div>
                        </div>","194","","0","images/B_D_S_33_lightshift.png","","","","calm","2","B","D","S","lightshift","",""
"","","","","","html-slider-response","162","17162627","0.0-156.0","yn33rxavn1","2","NaN","<div style=""width:500px;"">
                            <p style=""font-size:50px; font-weight:bold;""
                            >calm</p>
                            <div style=""width:240px; margin: auto;"">
                                <img src=""images/Y_L_S_41_lightshift.png"" style= ""width:200px""alt=""img"">
                            </div>
                        </div>","-92","","0","images/Y_L_S_41_lightshift.png","","","","calm","2","Y","L","S","lightshift","",""
"","","","","","html-slider-response","163","17165141","0.0-157.0","yn33rxavn1","2","NaN","<div style=""width:500px;"">
                            <p style=""font-size:50px; font-weight:bold;""
                            >calm</p>
                            <div style=""width:240px; margin: auto;"">
                                <img src=""images/R_D_U_13_darkshift.png"" style= ""width:200px""alt=""img"">
                            </div>
                        </div>","-200","","0","images/R_D_U_13_darkshift.png","","","","calm","2","R","D","U","darkshift","",""
"","","","","","html-slider-response","164","17167403","0.0-158.0","yn33rxavn1","2","NaN","<div style=""width:500px;"">
                            <p style=""font-size:50px; font-weight:bold;""
                            >calm</p>
                            <div style=""width:240px; margin: auto;"">
                                <img src=""images/G_L_S_15_lightshift.png"" style= ""width:200px""alt=""img"">
                            </div>
                        </div>","200","","0","images/G_L_S_15_lightshift.png","","","","calm","1","G","L","S","lightshift","",""
"","","","","","html-slider-response","165","17168550","0.0-159.0","yn33rxavn1","2","NaN","<div style=""width:500px;"">
                            <p style=""font-size:50px; font-weight:bold;""
                            >calm</p>
                            <div style=""width:240px; margin: auto;"">
                                <img src=""images/G_L_U_23_lightshift.png"" style= ""width:200px""alt=""img"">
                            </div>
                        </div>","200","","0","images/G_L_U_23_lightshift.png","","","","calm","1","G","L","U","lightshift","",""
"","","","","","html-slider-response","166","17171372","0.0-160.0","yn33rxavn1","2","NaN","<div style=""width:500px;"">
                            <p style=""font-size:50px; font-weight:bold;""
                            >calm</p>
                            <div style=""width:240px; margin: auto;"">
                                <img src=""images/R_D_U_13_lightshift.png"" style= ""width:200px""alt=""img"">
                            </div>
                        </div>","-182","","0","images/R_D_U_13_lightshift.png","","","","calm","1","R","D","U","lightshift","",""
"","","","","","html-slider-response","167","17173196","0.0-161.0","yn33rxavn1","2","NaN","<div style=""width:500px;"">
                            <p style=""font-size:50px; font-weight:bold;""
                            >calm</p>
                            <div style=""width:240px; margin: auto;"">
                                <img src=""images/B_L_S_28_lightshift.png"" style= ""width:200px""alt=""img"">
                            </div>
                        </div>","195","","0","images/B_L_S_28_lightshift.png","","","","calm","2","B","L","S","lightshift","",""
"","","","","","html-slider-response","168","17175323","0.0-162.0","yn33rxavn1","2","NaN","<div style=""width:500px;"">
                            <p style=""font-size:50px; font-weight:bold;""
                            >calm</p>
                            <div style=""width:240px; margin: auto;"">
                                <img src=""images/Y_D_U_5_darkshift.png"" style= ""width:200px""alt=""img"">
                            </div>
                        </div>","-200","","0","images/Y_D_U_5_darkshift.png","","","","calm","2","Y","D","U","darkshift","",""
"","","","","","html-slider-response","169","17177002","0.0-163.0","yn33rxavn1","2","NaN","<div style=""width:500px;"">
                            <p style=""font-size:50px; font-weight:bold;""
                            >calm</p>
                            <div style=""width:240px; margin: auto;"">
                                <img src=""images/R_D_S_12_darkshift.png"" style= ""width:200px""alt=""img"">
                            </div>
                        </div>","-200","","0","images/R_D_S_12_darkshift.png","","","","calm","1","R","D","S","darkshift","",""
"","","","","","html-slider-response","170","17178867","0.0-164.0","yn33rxavn1","2","NaN","<div style=""width:500px;"">
                            <p style=""font-size:50px; font-weight:bold;""
                            >calm</p>
                            <div style=""width:240px; margin: auto;"">
                                <img src=""images/G_L_S_15_darkshift.png"" style= ""width:200px""alt=""img"">
                            </div>
                        </div>","200","","0","images/G_L_S_15_darkshift.png","","","","calm","2","G","L","S","darkshift","",""
"","","","","","html-slider-response","171","17180400","0.0-165.0","yn33rxavn1","2","NaN","<div style=""width:500px;"">
                            <p style=""font-size:50px; font-weight:bold;""
                            >calm</p>
                            <div style=""width:240px; margin: auto;"">
                                <img src=""images/G_L_U_23_darkshift.png"" style= ""width:200px""alt=""img"">
                            </div>
                        </div>","200","","0","images/G_L_U_23_darkshift.png","","","","calm","2","G","L","U","darkshift","",""
"","","","","","html-slider-response","172","17184203","0.0-166.0","yn33rxavn1","2","NaN","<div style=""width:500px;"">
                            <p style=""font-size:50px; font-weight:bold;""
                            >calm</p>
                            <div style=""width:240px; margin: auto;"">
                                <img src=""images/G_D_U_27_darkshift.png"" style= ""width:200px""alt=""img"">
                            </div>
                        </div>","-200","","0","images/G_D_U_27_darkshift.png","","","","calm","2","G","D","U","darkshift","",""
"","","","","","html-slider-response","173","17185792","0.0-167.0","yn33rxavn1","2","NaN","<div style=""width:500px;"">
                            <p style=""font-size:50px; font-weight:bold;""
                            >calm</p>
                            <div style=""width:240px; margin: auto;"">
