"success","timeout","failed_images","failed_audio","failed_video","trial_type","trial_index","time_elapsed","internal_node_id","subject_id","condition_num","rt","stimulus","response","question_order","slider_start","image_path","practiceTrial","practiceTrialNum","correct","concept","repetition","hue","lightness","saturation","shift","ishihara_plate","correct_response"
"true","false","[]","[]","[]","preload","0","554","0.0-0.0","yvjpy146h4","7","","","","","","","","","","","","","","","","",""
"","","","","","html-button-response","1","4589","0.0-1.0","yvjpy146h4","7","4031","Welcome to our experiment!<p>At the bottom of this screen, you will see a button that says ""Begin Experiment"".<br>Please only click that button when you are ready to complete the 25 minute experiment in one sitting.</p><p> Once you click that button, it will not be possible to restart the experiment.","0","","","","","","","","","","","","","",""
"true","","","","","fullscreen","2","6685","0.0-2.0","yvjpy146h4","7","1091","","","","","","","","","","","","","","","",""
"","","","","","survey-multi-select","3","19783","0.0-3.0","yvjpy146h4","7","13096","","{""Consent"":[""<strong>I consent</strong>""]}","[0]","","","","","","","","","","","","",""
"","","","","","html-button-response","4","21302","0.0-4.0","yvjpy146h4","7","1517","Welcome! <p> This experiment involves two parts: demographic information, followed by the experimental task.<p> It will take about 25 minutes to complete both parts.","0","","","","","","","","","","","","","",""
"","","","","","survey-text","5","37531","0.0-5.0","yvjpy146h4","7","16209","","{""Age"":""20"",""Gender"":""Male"",""Race/ethnicity"":""White"",""Languages"":""English, a little Spanish""}","","","","","","","","","","","","","",""
"","","","","","html-slider-response","6","43492","0.0-6.0","yvjpy146h4","7","5958","
                            <div style='text-align:left; font-size:20px; line-height:25px; width: 1400px;'>
                                During this experiment you will be asked to rate how much you associate maps with                    different concepts.<br> Below, you can see some examples of the maps you will be asked to rate. Next to the maps
                    is the list of concepts.<br>You will be asked                    to rate how much you associate each map with each concept on a scale from 'not at all' to 'very much' like the
                    one below. <br><br>
                    Now, please look at the list of concepts and maps. For each concept, think about the map you associate 'very
                    much' with the concept.<br>                     When you see that map during the experiment, please rate it near the 'very much' endpoint of the
                    scale.<br>Now, please think about which map you associate 'not at all'                     with each concept. When you see that map during the experiment, please rate it near the 'not at all' endpoint
                    of the scale.<br>
                    Please use the full range of the scale. That is, if a map is somewhat associated with the concept, you would
                    click partway between the middle point and right side of the scale.                    You will be asked to rate each map for a given concept before moving on to the next concept.<br><br>Press the
                    'Continue' button for instructions on how to use the slider.                    <br><br>
                </div>

                <div style=""width: 500px; margin: 0 auto;"">
                    <!-- Centered text paragraphs -->
                    <div style=""text-align: center; width: 500px;"">
                        <p style=""font-size:25px; line-height:18px;"">calm</p>
                        <p style=""font-size:25px; line-height:18px;"">positive</p>
                        <p style=""font-size:25px;line-height:18px;"">negative</p>
                        <p style=""font-size:25px;line-height:18px;"">startling</p>
                    </div>

                    <!-- Grid section -->
                   <div style=""display: flex; justify-content: center; padding-top: 15px;"">
                    <div style=""display: grid; grid-template-columns: repeat(8, 80px); grid-gap: 5px; width: auto;"">
                        <img src=""images/R_D_S_27_darkshift.png"" alt=""map"" style=""width: 100%;""><img src=""images/B_D_U_7_lightshift.png"" alt=""map"" style=""width: 100%;""><img src=""images/Y_L_U_12_darkshift.png"" alt=""map"" style=""width: 100%;""><img src=""images/R_L_U_26_darkshift.png"" alt=""map"" style=""width: 100%;""><img src=""images/B_D_S_5_lightshift.png"" alt=""map"" style=""width: 100%;""><img src=""images/G_L_U_33_lightshift.png"" alt=""map"" style=""width: 100%;""><img src=""images/Y_L_S_10_lightshift.png"" alt=""map"" style=""width: 100%;""><img src=""images/G_D_U_41_lightshift.png"" alt=""map"" style=""width: 100%;""><img src=""images/B_L_U_2_lightshift.png"" alt=""map"" style=""width: 100%;""><img src=""images/Y_D_U_15_darkshift.png"" alt=""map"" style=""width: 100%;""><img src=""images/G_D_S_37_darkshift.png"" alt=""map"" style=""width: 100%;""><img src=""images/R_D_U_28_darkshift.png"" alt=""map"" style=""width: 100%;""><img src=""images/Y_L_S_10_darkshift.png"" alt=""map"" style=""width: 100%;""><img src=""images/B_D_U_7_darkshift.png"" alt=""map"" style=""width: 100%;""><img src=""images/G_D_S_37_lightshift.png"" alt=""map"" style=""width: 100%;""><img src=""images/Y_D_S_13_lightshift.png"" alt=""map"" style=""width: 100%;""><img src=""images/R_L_S_23_lightshift.png"" alt=""map"" style=""width: 100%;""><img src=""images/B_D_S_5_darkshift.png"" alt=""map"" style=""width: 100%;""><img src=""images/B_L_U_2_darkshift.png"" alt=""map"" style=""width: 100%;""><img src=""images/B_L_S_44_lightshift.png"" alt=""map"" style=""width: 100%;""><img src=""images/Y_D_U_15_lightshift.png"" alt=""map"" style=""width: 100%;""><img src=""images/B_L_S_44_darkshift.png"" alt=""map"" style=""width: 100%;""><img src=""images/Y_D_S_13_darkshift.png"" alt=""map"" style=""width: 100%;""><img src=""images/G_L_S_30_lightshift.png"" alt=""map"" style=""width: 100%;""><img src=""images/R_L_S_23_darkshift.png"" alt=""map"" style=""width: 100%;""><img src=""images/R_L_U_26_lightshift.png"" alt=""map"" style=""width: 100%;""><img src=""images/G_D_U_41_darkshift.png"" alt=""map"" style=""width: 100%;""><img src=""images/G_L_S_30_darkshift.png"" alt=""map"" style=""width: 100%;""><img src=""images/G_L_U_33_darkshift.png"" alt=""map"" style=""width: 100%;""><img src=""images/R_D_S_27_lightshift.png"" alt=""map"" style=""width: 100%;""><img src=""images/R_D_U_28_lightshift.png"" alt=""map"" style=""width: 100%;""><img src=""images/Y_L_U_12_lightshift.png"" alt=""map"" style=""width: 100%;"">
                    </div>
                </div>

                    <!-- Clear floats -->
                    <div style=""clear: both;""></div>
                </div>
                            ","null","","0","maps_anchoring.png","true","","","","","","","","","",""
"","","","","","html-button-response","7","44735","0.0-7.0","yvjpy146h4","7","1241","<div style=""width:800px;""><p style=""text-align:left"">To move the slider, click and drag your cursor to the location of the scale where you would like to make your rating and then let go. When you let go of the slider, your response will be recorded and the next trial will begin. <br>
                    We are interested in your initial impressions of each map for the given concept, so please go with your first intuition. <br>
                    Before you begin the experiment, there will be four training trials for you to practice using the scale. <br>
                     When you are ready to start the training trials, please click ""Continue"".</p><br></div>","0","","","","","","","","","","","","","",""
"","","","","","html-slider-response","8","47521","0.0-8.0-0.0","yvjpy146h4","7","NaN","<div style=""width:500px;"">
                                    <p style=""font-size:25px;"">Please move the slider all the way to the <br> right endpoint of the scale</p>

                                    </div>
                                </div>","200","","0","","true","0","true","","","","","","","",""
"","","","","","html-button-response","9","49120","0.0-8.0-1.0","yvjpy146h4","7","1098","<p align='center'><b>Good job!</b> Click on 'Continue' to proceed.</p>","0","","","","","","","","","","","","","",""
"","","","","","html-slider-response","10","51473","0.0-9.0-0.0","yvjpy146h4","7","NaN","<div style=""width:500px;"">
                                    <p style=""font-size:25px;"">Please move the slider all the way to the <br> left endpoint of the scale</p>

                                    </div>
                                </div>","-200","","0","","true","1","true","","","","","","","",""
"","","","","","html-button-response","11","52651","0.0-9.0-1.0","yvjpy146h4","7","676","<p align='center'><b>Good job!</b> Click on 'Continue' to proceed.</p>","0","","","","","","","","","","","","","",""
"","","","","","html-slider-response","12","56609","0.0-10.0-0.0","yvjpy146h4","7","NaN","<div style=""width:500px;"">
                                    <p style=""font-size:25px;"">Please move the slider halfway between the center and right endpoint of the scale</p>

                                    </div>
                                </div>","106","","0","","true","2","true","","","","","","","",""
"","","","","","html-button-response","13","57740","0.0-10.0-1.0","yvjpy146h4","7","629","<p align='center'><b>Good job!</b> Click on 'Continue' to proceed.</p>","0","","","","","","","","","","","","","",""
"","","","","","html-slider-response","14","62725","0.0-11.0-0.0","yvjpy146h4","7","NaN","<div style=""width:500px;"">
                                    <p style=""font-size:25px;"">Please move the slider halfway between the center and left endpoint of the scale</p>

                                    </div>
                                </div>","-106","","0","","true","3","true","","","","","","","",""
"","","","","","html-button-response","15","63774","0.0-11.0-1.0","yvjpy146h4","7","547","<p align='center'><b>Good job!</b> Click on 'Continue' to proceed.</p>","0","","","","","","","","","","","","","",""
"","","","","","html-button-response","16","64529","0.0-12.0","yvjpy146h4","7","755","<p>Great job! You've completed the practice trials. Now you will begin the main task.</p>","0","","","","","","","","","","","","","",""
"","","","","","html-button-response","17","68188","0.0-13.0","yvjpy146h4","7","3658","<p>In this block of trials, you will be asked to rate how much you associate each map with:</p > <p style = 'font-size:150%; font-weight: bold'>startling</p><br></br>","0","","","","","","","","","","","","","",""
"","","","","","html-slider-response","18","72947","0.0-14.0","yvjpy146h4","7","NaN","<div style=""width:500px;"">
                            <p style=""font-size:50px; font-weight:bold;""
                            >startling</p>
                            <div style=""width:240px; margin: auto;"">
                                <img src=""images/Y_D_S_13_lightshift.png"" style= ""width:200px""alt=""img"">
                            </div>
                        </div>","-50","","0","images/Y_D_S_13_lightshift.png","","","","startling","2","Y","D","S","lightshift","",""
"","","","","","html-slider-response","19","75189","0.0-15.0","yvjpy146h4","7","NaN","<div style=""width:500px;"">
                            <p style=""font-size:50px; font-weight:bold;""
                            >startling</p>
                            <div style=""width:240px; margin: auto;"">
                                <img src=""images/G_D_U_41_lightshift.png"" style= ""width:200px""alt=""img"">
                            </div>
                        </div>","-45","","0","images/G_D_U_41_lightshift.png","","","","startling","1","G","D","U","lightshift","",""
"","","","","","html-slider-response","20","79026","0.0-16.0","yvjpy146h4","7","NaN","<div style=""width:500px;"">
                            <p style=""font-size:50px; font-weight:bold;""
                            >startling</p>
                            <div style=""width:240px; margin: auto;"">
                                <img src=""images/R_L_U_26_darkshift.png"" style= ""width:200px""alt=""img"">
                            </div>
                        </div>","19","","0","images/R_L_U_26_darkshift.png","","","","startling","2","R","L","U","darkshift","",""
"","","","","","html-slider-response","21","82328","0.0-17.0","yvjpy146h4","7","NaN","<div style=""width:500px;"">
                            <p style=""font-size:50px; font-weight:bold;""
                            >startling</p>
                            <div style=""width:240px; margin: auto;"">
                                <img src=""images/R_D_S_27_darkshift.png"" style= ""width:200px""alt=""img"">
                            </div>
                        </div>","42","","0","images/R_D_S_27_darkshift.png","","","","startling","2","R","D","S","darkshift","",""
"","","","","","html-slider-response","22","86341","0.0-18.0","yvjpy146h4","7","NaN","<div style=""width:500px;"">
                            <p style=""font-size:50px; font-weight:bold;""
                            >startling</p>
                            <div style=""width:240px; margin: auto;"">
                                <img src=""images/B_L_U_2_lightshift.png"" style= ""width:200px""alt=""img"">
                            </div>
                        </div>","92","","0","images/B_L_U_2_lightshift.png","","","","startling","2","B","L","U","lightshift","",""
"","","","","","html-slider-response","23","88773","0.0-19.0","yvjpy146h4","7","NaN","<div style=""width:500px;"">
                            <p style=""font-size:50px; font-weight:bold;""
                            >startling</p>
                            <div style=""width:240px; margin: auto;"">
                                <img src=""images/B_L_U_2_darkshift.png"" style= ""width:200px""alt=""img"">
                            </div>
                        </div>","-39","","0","images/B_L_U_2_darkshift.png","","","","startling","2","B","L","U","darkshift","",""
"","","","","","html-slider-response","24","91226","0.0-20.0","yvjpy146h4","7","NaN","<div style=""width:500px;"">
                            <p style=""font-size:50px; font-weight:bold;""
                            >startling</p>
                            <div style=""width:240px; margin: auto;"">
                                <img src=""images/B_D_U_7_darkshift.png"" style= ""width:200px""alt=""img"">
                            </div>
                        </div>","-99","","0","images/B_D_U_7_darkshift.png","","","","startling","2","B","D","U","darkshift","",""
"","","","","","html-slider-response","25","93273","0.0-21.0","yvjpy146h4","7","NaN","<div style=""width:500px;"">
                            <p style=""font-size:50px; font-weight:bold;""
                            >startling</p>
                            <div style=""width:240px; margin: auto;"">
                                <img src=""images/Y_L_S_10_darkshift.png"" style= ""width:200px""alt=""img"">
                            </div>
                        </div>","23","","0","images/Y_L_S_10_darkshift.png","","","","startling","1","Y","L","S","darkshift","",""
"","","","","","html-slider-response","26","95258","0.0-22.0","yvjpy146h4","7","NaN","<div style=""width:500px;"">
                            <p style=""font-size:50px; font-weight:bold;""
                            >startling</p>
                            <div style=""width:240px; margin: auto;"">
                                <img src=""images/R_D_U_28_darkshift.png"" style= ""width:200px""alt=""img"">
                            </div>
                        </div>","-14","","0","images/R_D_U_28_darkshift.png","","","","startling","2","R","D","U","darkshift","",""
"","","","","","html-slider-response","27","97803","0.0-23.0","yvjpy146h4","7","NaN","<div style=""width:500px;"">
                            <p style=""font-size:50px; font-weight:bold;""
                            >startling</p>
                            <div style=""width:240px; margin: auto;"">
                                <img src=""images/R_L_U_26_lightshift.png"" style= ""width:200px""alt=""img"">
                            </div>
                        </div>","143","","0","images/R_L_U_26_lightshift.png","","","","startling","2","R","L","U","lightshift","",""
"","","","","","html-slider-response","28","100999","0.0-24.0","yvjpy146h4","7","NaN","<div style=""width:500px;"">
                            <p style=""font-size:50px; font-weight:bold;""
                            >startling</p>
                            <div style=""width:240px; margin: auto;"">
                                <img src=""images/Y_D_S_13_darkshift.png"" style= ""width:200px""alt=""img"">
                            </div>
                        </div>","-146","","0","images/Y_D_S_13_darkshift.png","","","","startling","2","Y","D","S","darkshift","",""
"","","","","","html-slider-response","29","103148","0.0-25.0","yvjpy146h4","7","NaN","<div style=""width:500px;"">
                            <p style=""font-size:50px; font-weight:bold;""
                            >startling</p>
                            <div style=""width:240px; margin: auto;"">
                                <img src=""images/B_L_S_44_lightshift.png"" style= ""width:200px""alt=""img"">
                            </div>
                        </div>","144","","0","images/B_L_S_44_lightshift.png","","","","startling","1","B","L","S","lightshift","",""
"","","","","","html-slider-response","30","104654","0.0-26.0","yvjpy146h4","7","NaN","<div style=""width:500px;"">
                            <p style=""font-size:50px; font-weight:bold;""
                            >startling</p>
                            <div style=""width:240px; margin: auto;"">
                                <img src=""images/G_L_U_33_darkshift.png"" style= ""width:200px""alt=""img"">
                            </div>
                        </div>","-53","","0","images/G_L_U_33_darkshift.png","","","","startling","2","G","L","U","darkshift","",""
"","","","","","html-slider-response","31","106296","0.0-27.0","yvjpy146h4","7","NaN","<div style=""width:500px;"">
                            <p style=""font-size:50px; font-weight:bold;""
                            >startling</p>
                            <div style=""width:240px; margin: auto;"">
                                <img src=""images/G_D_S_37_darkshift.png"" style= ""width:200px""alt=""img"">
                            </div>
                        </div>","-112","","0","images/G_D_S_37_darkshift.png","","","","startling","2","G","D","S","darkshift","",""
"","","","","","html-slider-response","32","107848","0.0-28.0","yvjpy146h4","7","NaN","<div style=""width:500px;"">
                            <p style=""font-size:50px; font-weight:bold;""
                            >startling</p>
                            <div style=""width:240px; margin: auto;"">
                                <img src=""images/R_L_S_23_lightshift.png"" style= ""width:200px""alt=""img"">
                            </div>
                        </div>","146","","0","images/R_L_S_23_lightshift.png","","","","startling","2","R","L","S","lightshift","",""
"","","","","","html-slider-response","33","109530","0.0-29.0","yvjpy146h4","7","NaN","<div style=""width:500px;"">
                            <p style=""font-size:50px; font-weight:bold;""
                            >startling</p>
                            <div style=""width:240px; margin: auto;"">
                                <img src=""images/G_D_U_41_darkshift.png"" style= ""width:200px""alt=""img"">
                            </div>
                        </div>","-155","","0","images/G_D_U_41_darkshift.png","","","","startling","2","G","D","U","darkshift","",""
"","","","","","html-slider-response","34","112735","0.0-30.0","yvjpy146h4","7","NaN","<div style=""width:500px;"">
                            <p style=""font-size:50px; font-weight:bold;""
                            >startling</p>
                            <div style=""width:240px; margin: auto;"">
                                <img src=""images/B_D_S_5_lightshift.png"" style= ""width:200px""alt=""img"">
                            </div>
                        </div>","32","","0","images/B_D_S_5_lightshift.png","","","","startling","1","B","D","S","lightshift","",""
"","","","","","html-slider-response","35","114124","0.0-31.0","yvjpy146h4","7","NaN","<div style=""width:500px;"">
                            <p style=""font-size:50px; font-weight:bold;""
                            >startling</p>
                            <div style=""width:240px; margin: auto;"">
                                <img src=""images/B_L_U_2_darkshift.png"" style= ""width:200px""alt=""img"">
                            </div>
                        </div>","-50","","0","images/B_L_U_2_darkshift.png","","","","startling","1","B","L","U","darkshift","",""
"","","","","","html-slider-response","36","118712","0.0-32.0","yvjpy146h4","7","NaN","<div style=""width:500px;"">
                            <p style=""font-size:50px; font-weight:bold;""
                            >startling</p>
                            <div style=""width:240px; margin: auto;"">
                                <img src=""images/R_D_S_27_lightshift.png"" style= ""width:200px""alt=""img"">
                            </div>
                        </div>","65","","0","images/R_D_S_27_lightshift.png","","","","startling","2","R","D","S","lightshift","",""
"","","","","","html-slider-response","37","120380","0.0-33.0","yvjpy146h4","7","NaN","<div style=""width:500px;"">
                            <p style=""font-size:50px; font-weight:bold;""
                            >startling</p>
                            <div style=""width:240px; margin: auto;"">
                                <img src=""images/B_D_U_7_darkshift.png"" style= ""width:200px""alt=""img"">
                            </div>
                        </div>","-86","","0","images/B_D_U_7_darkshift.png","","","","startling","1","B","D","U","darkshift","",""
"","","","","","html-slider-response","38","122540","0.0-34.0","yvjpy146h4","7","NaN","<div style=""width:500px;"">
                            <p style=""font-size:50px; font-weight:bold;""
                            >startling</p>
                            <div style=""width:240px; margin: auto;"">
                                <img src=""images/R_L_U_26_darkshift.png"" style= ""width:200px""alt=""img"">
                            </div>
                        </div>","35","","0","images/R_L_U_26_darkshift.png","","","","startling","1","R","L","U","darkshift","",""
"","","","","","html-slider-response","39","123838","0.0-35.0","yvjpy146h4","7","NaN","<div style=""width:500px;"">
                            <p style=""font-size:50px; font-weight:bold;""
                            >startling</p>
                            <div style=""width:240px; margin: auto;"">
                                <img src=""images/G_L_S_30_darkshift.png"" style= ""width:200px""alt=""img"">
                            </div>
                        </div>","34","","0","images/G_L_S_30_darkshift.png","","","","startling","2","G","L","S","darkshift","",""
"","","","","","html-slider-response","40","124978","0.0-36.0","yvjpy146h4","7","NaN","<div style=""width:500px;"">
                            <p style=""font-size:50px; font-weight:bold;""
                            >startling</p>
                            <div style=""width:240px; margin: auto;"">
                                <img src=""images/R_D_U_28_darkshift.png"" style= ""width:200px""alt=""img"">
                            </div>
                        </div>","-80","","0","images/R_D_U_28_darkshift.png","","","","startling","1","R","D","U","darkshift","",""
"","","","","","html-slider-response","41","127298","0.0-37.0","yvjpy146h4","7","NaN","<div style=""width:500px;"">
                            <p style=""font-size:50px; font-weight:bold;""
                            >startling</p>
                            <div style=""width:240px; margin: auto;"">
                                <img src=""images/G_L_U_33_lightshift.png"" style= ""width:200px""alt=""img"">
                            </div>
                        </div>","113","","0","images/G_L_U_33_lightshift.png","","","","startling","1","G","L","U","lightshift","",""
"","","","","","html-slider-response","42","128939","0.0-38.0","yvjpy146h4","7","NaN","<div style=""width:500px;"">
                            <p style=""font-size:50px; font-weight:bold;""
                            >startling</p>
                            <div style=""width:240px; margin: auto;"">
                                <img src=""images/R_D_S_27_darkshift.png"" style= ""width:200px""alt=""img"">
                            </div>
                        </div>","-184","","0","images/R_D_S_27_darkshift.png","","","","startling","1","R","D","S","darkshift","",""
"","","","","","html-slider-response","43","130471","0.0-39.0","yvjpy146h4","7","NaN","<div style=""width:500px;"">
                            <p style=""font-size:50px; font-weight:bold;""
                            >startling</p>
                            <div style=""width:240px; margin: auto;"">
                                <img src=""images/G_L_S_30_lightshift.png"" style= ""width:200px""alt=""img"">
                            </div>
                        </div>","64","","0","images/G_L_S_30_lightshift.png","","","","startling","2","G","L","S","lightshift","",""
"","","","","","html-slider-response","44","131952","0.0-40.0","yvjpy146h4","7","NaN","<div style=""width:500px;"">
                            <p style=""font-size:50px; font-weight:bold;""
                            >startling</p>
                            <div style=""width:240px; margin: auto;"">
                                <img src=""images/Y_D_U_15_lightshift.png"" style= ""width:200px""alt=""img"">
                            </div>
                        </div>","-85","","0","images/Y_D_U_15_lightshift.png","","","","startling","1","Y","D","U","lightshift","",""
"","","","","","html-slider-response","45","133450","0.0-41.0","yvjpy146h4","7","NaN","<div style=""width:500px;"">
                            <p style=""font-size:50px; font-weight:bold;""
                            >startling</p>
                            <div style=""width:240px; margin: auto;"">
                                <img src=""images/G_L_U_33_darkshift.png"" style= ""width:200px""alt=""img"">
                            </div>
                        </div>","-155","","0","images/G_L_U_33_darkshift.png","","","","startling","1","G","L","U","darkshift","",""
"","","","","","html-slider-response","46","135779","0.0-42.0","yvjpy146h4","7","NaN","<div style=""width:500px;"">
                            <p style=""font-size:50px; font-weight:bold;""
                            >startling</p>
                            <div style=""width:240px; margin: auto;"">
                                <img src=""images/Y_L_U_12_darkshift.png"" style= ""width:200px""alt=""img"">
                            </div>
                        </div>","-26","","0","images/Y_L_U_12_darkshift.png","","","","startling","2","Y","L","U","darkshift","",""
"","","","","","html-slider-response","47","137478","0.0-43.0","yvjpy146h4","7","NaN","<div style=""width:500px;"">
                            <p style=""font-size:50px; font-weight:bold;""
                            >startling</p>
                            <div style=""width:240px; margin: auto;"">
                                <img src=""images/B_D_S_5_lightshift.png"" style= ""width:200px""alt=""img"">
                            </div>
                        </div>","16","","0","images/B_D_S_5_lightshift.png","","","","startling","2","B","D","S","lightshift","",""
"","","","","","html-slider-response","48","138910","0.0-44.0","yvjpy146h4","7","NaN","<div style=""width:500px;"">
                            <p style=""font-size:50px; font-weight:bold;""
                            >startling</p>
                            <div style=""width:240px; margin: auto;"">
                                <img src=""images/B_L_S_44_lightshift.png"" style= ""width:200px""alt=""img"">
                            </div>
                        </div>","94","","0","images/B_L_S_44_lightshift.png","","","","startling","2","B","L","S","lightshift","",""
"","","","","","html-slider-response","49","141354","0.0-45.0","yvjpy146h4","7","NaN","<div style=""width:500px;"">
                            <p style=""font-size:50px; font-weight:bold;""
                            >startling</p>
                            <div style=""width:240px; margin: auto;"">
                                <img src=""images/B_D_U_7_lightshift.png"" style= ""width:200px""alt=""img"">
                            </div>
                        </div>","-77","","0","images/B_D_U_7_lightshift.png","","","","startling","2","B","D","U","lightshift","",""
"","","","","","html-slider-response","50","142962","0.0-46.0","yvjpy146h4","7","NaN","<div style=""width:500px;"">
                            <p style=""font-size:50px; font-weight:bold;""
                            >startling</p>
                            <div style=""width:240px; margin: auto;"">
                                <img src=""images/Y_L_U_12_lightshift.png"" style= ""width:200px""alt=""img"">
                            </div>
                        </div>","139","","0","images/Y_L_U_12_lightshift.png","","","","startling","1","Y","L","U","lightshift","",""
"","","","","","html-slider-response","51","144308","0.0-47.0","yvjpy146h4","7","NaN","<div style=""width:500px;"">
                            <p style=""font-size:50px; font-weight:bold;""
                            >startling</p>
                            <div style=""width:240px; margin: auto;"">
                                <img src=""images/R_D_U_28_lightshift.png"" style= ""width:200px""alt=""img"">
                            </div>
                        </div>","-26","","0","images/R_D_U_28_lightshift.png","","","","startling","1","R","D","U","lightshift","",""
"","","","","","html-slider-response","52","145603","0.0-48.0","yvjpy146h4","7","NaN","<div style=""width:500px;"">
                            <p style=""font-size:50px; font-weight:bold;""
                            >startling</p>
                            <div style=""width:240px; margin: auto;"">
                                <img src=""images/Y_D_S_13_lightshift.png"" style= ""width:200px""alt=""img"">
                            </div>
                        </div>","-47","","0","images/Y_D_S_13_lightshift.png","","","","startling","1","Y","D","S","lightshift","",""
"","","","","","html-slider-response","53","147043","0.0-49.0","yvjpy146h4","7","NaN","<div style=""width:500px;"">
                            <p style=""font-size:50px; font-weight:bold;""
                            >startling</p>
                            <div style=""width:240px; margin: auto;"">
                                <img src=""images/Y_L_S_10_darkshift.png"" style= ""width:200px""alt=""img"">
                            </div>
                        </div>","-68","","0","images/Y_L_S_10_darkshift.png","","","","startling","2","Y","L","S","darkshift","",""
"","","","","","html-slider-response","54","149141","0.0-50.0","yvjpy146h4","7","NaN","<div style=""width:500px;"">
                            <p style=""font-size:50px; font-weight:bold;""
                            >startling</p>
                            <div style=""width:240px; margin: auto;"">
                                <img src=""images/R_L_S_23_darkshift.png"" style= ""width:200px""alt=""img"">
                            </div>
                        </div>","54","","0","images/R_L_S_23_darkshift.png","","","","startling","1","R","L","S","darkshift","",""
"","","","","","html-slider-response","55","150596","0.0-51.0","yvjpy146h4","7","NaN","<div style=""width:500px;"">
                            <p style=""font-size:50px; font-weight:bold;""
                            >startling</p>
                            <div style=""width:240px; margin: auto;"">
                                <img src=""images/B_L_U_2_lightshift.png"" style= ""width:200px""alt=""img"">
                            </div>
                        </div>","113","","0","images/B_L_U_2_lightshift.png","","","","startling","1","B","L","U","lightshift","",""
"","","","","","html-slider-response","56","151916","0.0-52.0","yvjpy146h4","7","NaN","<div style=""width:500px;"">
                            <p style=""font-size:50px; font-weight:bold;""
                            >startling</p>
                            <div style=""width:240px; margin: auto;"">
                                <img src=""images/R_D_S_27_lightshift.png"" style= ""width:200px""alt=""img"">
                            </div>
                        </div>","-45","","0","images/R_D_S_27_lightshift.png","","","","startling","1","R","D","S","lightshift","",""
"","","","","","html-slider-response","57","153412","0.0-53.0","yvjpy146h4","7","NaN","<div style=""width:500px;"">
                            <p style=""font-size:50px; font-weight:bold;""
                            >startling</p>
                            <div style=""width:240px; margin: auto;"">
                                <img src=""images/G_L_S_30_darkshift.png"" style= ""width:200px""alt=""img"">
                            </div>
                        </div>","-61","","0","images/G_L_S_30_darkshift.png","","","","startling","1","G","L","S","darkshift","",""
"","","","","","html-slider-response","58","154698","0.0-54.0","yvjpy146h4","7","NaN","<div style=""width:500px;"">
                            <p style=""font-size:50px; font-weight:bold;""
                            >startling</p>
                            <div style=""width:240px; margin: auto;"">
                                <img src=""images/G_D_S_37_lightshift.png"" style= ""width:200px""alt=""img"">
                            </div>
                        </div>","-78","","0","images/G_D_S_37_lightshift.png","","","","startling","1","G","D","S","lightshift","",""
"","","","","","html-slider-response","59","155839","0.0-55.0","yvjpy146h4","7","NaN","<div style=""width:500px;"">
                            <p style=""font-size:50px; font-weight:bold;""
                            >startling</p>
                            <div style=""width:240px; margin: auto;"">
                                <img src=""images/G_D_S_37_lightshift.png"" style= ""width:200px""alt=""img"">
                            </div>
                        </div>","-50","","0","images/G_D_S_37_lightshift.png","","","","startling","2","G","D","S","lightshift","",""
"","","","","","html-slider-response","60","157134","0.0-56.0","yvjpy146h4","7","NaN","<div style=""width:500px;"">
                            <p style=""font-size:50px; font-weight:bold;""
                            >startling</p>
                            <div style=""width:240px; margin: auto;"">
                                <img src=""images/Y_D_U_15_lightshift.png"" style= ""width:200px""alt=""img"">
                            </div>
                        </div>","-70","","0","images/Y_D_U_15_lightshift.png","","","","startling","2","Y","D","U","lightshift","",""
"","","","","","html-slider-response","61","158772","0.0-57.0","yvjpy146h4","7","NaN","<div style=""width:500px;"">
                            <p style=""font-size:50px; font-weight:bold;""
                            >startling</p>
                            <div style=""width:240px; margin: auto;"">
                                <img src=""images/B_L_S_44_darkshift.png"" style= ""width:200px""alt=""img"">
                            </div>
                        </div>","37","","0","images/B_L_S_44_darkshift.png","","","","startling","2","B","L","S","darkshift","",""
"","","","","","html-slider-response","62","160124","0.0-58.0","yvjpy146h4","7","NaN","<div style=""width:500px;"">
                            <p style=""font-size:50px; font-weight:bold;""
                            >startling</p>
                            <div style=""width:240px; margin: auto;"">
                                <img src=""images/G_D_U_41_lightshift.png"" style= ""width:200px""alt=""img"">
                            </div>
                        </div>","-29","","0","images/G_D_U_41_lightshift.png","","","","startling","2","G","D","U","lightshift","",""
"","","","","","html-slider-response","63","161544","0.0-59.0","yvjpy146h4","7","NaN","<div style=""width:500px;"">
                            <p style=""font-size:50px; font-weight:bold;""
                            >startling</p>
                            <div style=""width:240px; margin: auto;"">
                                <img src=""images/G_L_S_30_lightshift.png"" style= ""width:200px""alt=""img"">
                            </div>
                        </div>","53","","0","images/G_L_S_30_lightshift.png","","","","startling","1","G","L","S","lightshift","",""
"","","","","","html-slider-response","64","163183","0.0-60.0","yvjpy146h4","7","NaN","<div style=""width:500px;"">
                            <p style=""font-size:50px; font-weight:bold;""
                            >startling</p>
                            <div style=""width:240px; margin: auto;"">
                                <img src=""images/R_L_S_23_darkshift.png"" style= ""width:200px""alt=""img"">
                            </div>
                        </div>","-48","","0","images/R_L_S_23_darkshift.png","","","","startling","2","R","L","S","darkshift","",""
"","","","","","html-slider-response","65","165309","0.0-61.0","yvjpy146h4","7","NaN","<div style=""width:500px;"">
                            <p style=""font-size:50px; font-weight:bold;""
                            >startling</p>
                            <div style=""width:240px; margin: auto;"">
                                <img src=""images/B_D_U_7_lightshift.png"" style= ""width:200px""alt=""img"">
                            </div>
                        </div>","-102","","0","images/B_D_U_7_lightshift.png","","","","startling","1","B","D","U","lightshift","",""
"","","","","","html-slider-response","66","166687","0.0-62.0","yvjpy146h4","7","NaN","<div style=""width:500px;"">
                            <p style=""font-size:50px; font-weight:bold;""
                            >startling</p>
                            <div style=""width:240px; margin: auto;"">
                                <img src=""images/R_L_S_23_lightshift.png"" style= ""width:200px""alt=""img"">
                            </div>
                        </div>","98","","0","images/R_L_S_23_lightshift.png","","","","startling","1","R","L","S","lightshift","",""
"","","","","","html-slider-response","67","168302","0.0-63.0","yvjpy146h4","7","NaN","<div style=""width:500px;"">
                            <p style=""font-size:50px; font-weight:bold;""
                            >startling</p>
                            <div style=""width:240px; margin: auto;"">
                                <img src=""images/Y_L_S_10_lightshift.png"" style= ""width:200px""alt=""img"">
                            </div>
                        </div>","145","","0","images/Y_L_S_10_lightshift.png","","","","startling","1","Y","L","S","lightshift","",""
"","","","","","html-slider-response","68","169974","0.0-64.0","yvjpy146h4","7","NaN","<div style=""width:500px;"">
                            <p style=""font-size:50px; font-weight:bold;""
                            >startling</p>
                            <div style=""width:240px; margin: auto;"">
                                <img src=""images/B_D_S_5_darkshift.png"" style= ""width:200px""alt=""img"">
                            </div>
                        </div>","-101","","0","images/B_D_S_5_darkshift.png","","","","startling","2","B","D","S","darkshift","",""
"","","","","","html-slider-response","69","172298","0.0-65.0","yvjpy146h4","7","NaN","<div style=""width:500px;"">
                            <p style=""font-size:50px; font-weight:bold;""
                            >startling</p>
                            <div style=""width:240px; margin: auto;"">
                                <img src=""images/Y_D_U_15_darkshift.png"" style= ""width:200px""alt=""img"">
                            </div>
                        </div>","-150","","0","images/Y_D_U_15_darkshift.png","","","","startling","2","Y","D","U","darkshift","",""
"","","","","","html-slider-response","70","173927","0.0-66.0","yvjpy146h4","7","NaN","<div style=""width:500px;"">
                            <p style=""font-size:50px; font-weight:bold;""
                            >startling</p>
                            <div style=""width:240px; margin: auto;"">
                                <img src=""images/B_D_S_5_darkshift.png"" style= ""width:200px""alt=""img"">
                            </div>
                        </div>","-102","","0","images/B_D_S_5_darkshift.png","","","","startling","1","B","D","S","darkshift","",""
"","","","","","html-slider-response","71","175342","0.0-67.0","yvjpy146h4","7","NaN","<div style=""width:500px;"">
                            <p style=""font-size:50px; font-weight:bold;""
                            >startling</p>
                            <div style=""width:240px; margin: auto;"">
                                <img src=""images/G_D_S_37_darkshift.png"" style= ""width:200px""alt=""img"">
                            </div>
                        </div>","-106","","0","images/G_D_S_37_darkshift.png","","","","startling","1","G","D","S","darkshift","",""
"","","","","","html-slider-response","72","177254","0.0-68.0","yvjpy146h4","7","NaN","<div style=""width:500px;"">
                            <p style=""font-size:50px; font-weight:bold;""
                            >startling</p>
                            <div style=""width:240px; margin: auto;"">
                                <img src=""images/B_L_S_44_darkshift.png"" style= ""width:200px""alt=""img"">
                            </div>
                        </div>","42","","0","images/B_L_S_44_darkshift.png","","","","startling","1","B","L","S","darkshift","",""
"","","","","","html-slider-response","73","178628","0.0-69.0","yvjpy146h4","7","NaN","<div style=""width:500px;"">
                            <p style=""font-size:50px; font-weight:bold;""
                            >startling</p>
                            <div style=""width:240px; margin: auto;"">
                                <img src=""images/Y_L_S_10_lightshift.png"" style= ""width:200px""alt=""img"">
                            </div>
                        </div>","132","","0","images/Y_L_S_10_lightshift.png","","","","startling","2","Y","L","S","lightshift","",""
"","","","","","html-slider-response","74","179975","0.0-70.0","yvjpy146h4","7","NaN","<div style=""width:500px;"">
                            <p style=""font-size:50px; font-weight:bold;""
                            >startling</p>
                            <div style=""width:240px; margin: auto;"">
                                <img src=""images/G_L_U_33_lightshift.png"" style= ""width:200px""alt=""img"">
                            </div>
                        </div>","110","","0","images/G_L_U_33_lightshift.png","","","","startling","2","G","L","U","lightshift","",""
"","","","","","html-slider-response","75","181368","0.0-71.0","yvjpy146h4","7","NaN","<div style=""width:500px;"">
                            <p style=""font-size:50px; font-weight:bold;""
                            >startling</p>
                            <div style=""width:240px; margin: auto;"">
                                <img src=""images/Y_D_S_13_darkshift.png"" style= ""width:200px""alt=""img"">
                            </div>
                        </div>","-91","","0","images/Y_D_S_13_darkshift.png","","","","startling","1","Y","D","S","darkshift","",""
"","","","","","html-slider-response","76","183158","0.0-72.0","yvjpy146h4","7","NaN","<div style=""width:500px;"">
                            <p style=""font-size:50px; font-weight:bold;""
                            >startling</p>
                            <div style=""width:240px; margin: auto;"">
                                <img src=""images/R_L_U_26_lightshift.png"" style= ""width:200px""alt=""img"">
                            </div>
                        </div>","104","","0","images/R_L_U_26_lightshift.png","","","","startling","1","R","L","U","lightshift","",""
"","","","","","html-slider-response","77","184819","0.0-73.0","yvjpy146h4","7","NaN","<div style=""width:500px;"">
                            <p style=""font-size:50px; font-weight:bold;""
                            >startling</p>
                            <div style=""width:240px; margin: auto;"">
                                <img src=""images/Y_D_U_15_darkshift.png"" style= ""width:200px""alt=""img"">
                            </div>
                        </div>","-154","","0","images/Y_D_U_15_darkshift.png","","","","startling","1","Y","D","U","darkshift","",""
"","","","","","html-slider-response","78","186366","0.0-74.0","yvjpy146h4","7","NaN","<div style=""width:500px;"">
                            <p style=""font-size:50px; font-weight:bold;""
                            >startling</p>
                            <div style=""width:240px; margin: auto;"">
                                <img src=""images/R_D_U_28_lightshift.png"" style= ""width:200px""alt=""img"">
                            </div>
                        </div>","-22","","0","images/R_D_U_28_lightshift.png","","","","startling","2","R","D","U","lightshift","",""
"","","","","","html-slider-response","79","187698","0.0-75.0","yvjpy146h4","7","NaN","<div style=""width:500px;"">
                            <p style=""font-size:50px; font-weight:bold;""
                            >startling</p>
                            <div style=""width:240px; margin: auto;"">
                                <img src=""images/G_D_U_41_darkshift.png"" style= ""width:200px""alt=""img"">
                            </div>
                        </div>","-80","","0","images/G_D_U_41_darkshift.png","","","","startling","1","G","D","U","darkshift","",""
"","","","","","html-slider-response","80","189591","0.0-76.0","yvjpy146h4","7","NaN","<div style=""width:500px;"">
                            <p style=""font-size:50px; font-weight:bold;""
                            >startling</p>
                            <div style=""width:240px; margin: auto;"">
                                <img src=""images/Y_L_U_12_lightshift.png"" style= ""width:200px""alt=""img"">
                            </div>
                        </div>","69","","0","images/Y_L_U_12_lightshift.png","","","","startling","2","Y","L","U","lightshift","",""
"","","","","","html-slider-response","81","192302","0.0-77.0","yvjpy146h4","7","NaN","<div style=""width:500px;"">
                            <p style=""font-size:50px; font-weight:bold;""
                            >startling</p>
                            <div style=""width:240px; margin: auto;"">
                                <img src=""images/Y_L_U_12_darkshift.png"" style= ""width:200px""alt=""img"">
                            </div>
                        </div>","-91","","0","images/Y_L_U_12_darkshift.png","","","","startling","1","Y","L","U","darkshift","",""
"","","","","","html-button-response","82","194149","0.0-78.0","yvjpy146h4","7","1345","<p>Great Job! You've finished block 1.<br></br> You have 3 block(s) left to go.<br></br></p>","0","","","","","","","","","","","","","",""
"","","","","","html-button-response","83","195886","0.0-79.0","yvjpy146h4","7","1736","<p>In this block of trials, you will be asked to rate how much you associate each map with:</p > <p style = 'font-size:150%; font-weight: bold'>positive</p><br></br>","0","","","","","","","","","","","","","",""
"","","","","","html-slider-response","84","197335","0.0-80.0","yvjpy146h4","7","NaN","<div style=""width:500px;"">
                            <p style=""font-size:50px; font-weight:bold;""
                            >positive</p>
                            <div style=""width:240px; margin: auto;"">
                                <img src=""images/R_D_S_27_lightshift.png"" style= ""width:200px""alt=""img"">
                            </div>
                        </div>","82","","0","images/R_D_S_27_lightshift.png","","","","positive","2","R","D","S","lightshift","",""
"","","","","","html-slider-response","85","199458","0.0-81.0","yvjpy146h4","7","NaN","<div style=""width:500px;"">
                            <p style=""font-size:50px; font-weight:bold;""
                            >positive</p>
                            <div style=""width:240px; margin: auto;"">
                                <img src=""images/Y_D_U_15_lightshift.png"" style= ""width:200px""alt=""img"">
                            </div>
                        </div>","-186","","0","images/Y_D_U_15_lightshift.png","","","","positive","1","Y","D","U","lightshift","",""
"","","","","","html-slider-response","86","201885","0.0-82.0","yvjpy146h4","7","NaN","<div style=""width:500px;"">
                            <p style=""font-size:50px; font-weight:bold;""
                            >positive</p>
                            <div style=""width:240px; margin: auto;"">
                                <img src=""images/R_D_S_27_darkshift.png"" style= ""width:200px""alt=""img"">
                            </div>
                        </div>","-60","","0","images/R_D_S_27_darkshift.png","","","","positive","1","R","D","S","darkshift","",""
"","","","","","html-slider-response","87","203378","0.0-83.0","yvjpy146h4","7","NaN","<div style=""width:500px;"">
                            <p style=""font-size:50px; font-weight:bold;""
                            >positive</p>
                            <div style=""width:240px; margin: auto;"">
                                <img src=""images/R_L_U_26_lightshift.png"" style= ""width:200px""alt=""img"">
                            </div>
                        </div>","-74","","0","images/R_L_U_26_lightshift.png","","","","positive","2","R","L","U","lightshift","",""
"","","","","","html-slider-response","88","204665","0.0-84.0","yvjpy146h4","7","NaN","<div style=""width:500px;"">
                            <p style=""font-size:50px; font-weight:bold;""
                            >positive</p>
                            <div style=""width:240px; margin: auto;"">
                                <img src=""images/Y_L_U_12_lightshift.png"" style= ""width:200px""alt=""img"">
                            </div>
                        </div>","-70","","0","images/Y_L_U_12_lightshift.png","","","","positive","1","Y","L","U","lightshift","",""
"","","","","","html-slider-response","89","206658","0.0-85.0","yvjpy146h4","7","NaN","<div style=""width:500px;"">
                            <p style=""font-size:50px; font-weight:bold;""
                            >positive</p>
                            <div style=""width:240px; margin: auto;"">
                                <img src=""images/R_L_S_23_darkshift.png"" style= ""width:200px""alt=""img"">
                            </div>
                        </div>","110","","0","images/R_L_S_23_darkshift.png","","","","positive","1","R","L","S","darkshift","",""
"","","","","","html-slider-response","90","208675","0.0-86.0","yvjpy146h4","7","NaN","<div style=""width:500px;"">
                            <p style=""font-size:50px; font-weight:bold;""
                            >positive</p>
                            <div style=""width:240px; margin: auto;"">
                                <img src=""images/G_L_S_30_darkshift.png"" style= ""width:200px""alt=""img"">
                            </div>
                        </div>","-17","","0","images/G_L_S_30_darkshift.png","","","","positive","2","G","L","S","darkshift","",""
"","","","","","html-slider-response","91","210778","0.0-87.0","yvjpy146h4","7","NaN","<div style=""width:500px;"">
                            <p style=""font-size:50px; font-weight:bold;""
                            >positive</p>
                            <div style=""width:240px; margin: auto;"">
                                <img src=""images/B_D_S_5_darkshift.png"" style= ""width:200px""alt=""img"">
                            </div>
                        </div>","22","","0","images/B_D_S_5_darkshift.png","","","","positive","2","B","D","S","darkshift","",""
"","","","","","html-slider-response","92","212976","0.0-88.0","yvjpy146h4","7","NaN","<div style=""width:500px;"">
                            <p style=""font-size:50px; font-weight:bold;""
                            >positive</p>
                            <div style=""width:240px; margin: auto;"">
                                <img src=""images/Y_D_S_13_darkshift.png"" style= ""width:200px""alt=""img"">
                            </div>
                        </div>","-190","","0","images/Y_D_S_13_darkshift.png","","","","positive","2","Y","D","S","darkshift","",""
"","","","","","html-slider-response","93","214467","0.0-89.0","yvjpy146h4","7","NaN","<div style=""width:500px;"">
                            <p style=""font-size:50px; font-weight:bold;""
                            >positive</p>
                            <div style=""width:240px; margin: auto;"">
                                <img src=""images/B_D_S_5_lightshift.png"" style= ""width:200px""alt=""img"">
                            </div>
                        </div>","42","","0","images/B_D_S_5_lightshift.png","","","","positive","1","B","D","S","lightshift","",""
"","","","","","html-slider-response","94","216260","0.0-90.0","yvjpy146h4","7","NaN","<div style=""width:500px;"">
                            <p style=""font-size:50px; font-weight:bold;""
                            >positive</p>
                            <div style=""width:240px; margin: auto;"">
                                <img src=""images/R_L_U_26_darkshift.png"" style= ""width:200px""alt=""img"">
                            </div>
                        </div>","78","","0","images/R_L_U_26_darkshift.png","","","","positive","2","R","L","U","darkshift","",""
"","","","","","html-slider-response","95","218115","0.0-91.0","yvjpy146h4","7","NaN","<div style=""width:500px;"">
                            <p style=""font-size:50px; font-weight:bold;""
                            >positive</p>
                            <div style=""width:240px; margin: auto;"">
                                <img src=""images/Y_D_S_13_lightshift.png"" style= ""width:200px""alt=""img"">
                            </div>
                        </div>","-85","","0","images/Y_D_S_13_lightshift.png","","","","positive","1","Y","D","S","lightshift","",""
"","","","","","html-slider-response","96","219927","0.0-92.0","yvjpy146h4","7","NaN","<div style=""width:500px;"">
                            <p style=""font-size:50px; font-weight:bold;""
                            >positive</p>
                            <div style=""width:240px; margin: auto;"">
                                <img src=""images/R_L_U_26_darkshift.png"" style= ""width:200px""alt=""img"">
                            </div>
                        </div>","44","","0","images/R_L_U_26_darkshift.png","","","","positive","1","R","L","U","darkshift","",""
"","","","","","html-slider-response","97","221555","0.0-93.0","yvjpy146h4","7","NaN","<div style=""width:500px;"">
                            <p style=""font-size:50px; font-weight:bold;""
                            >positive</p>
                            <div style=""width:240px; margin: auto;"">
                                <img src=""images/G_L_S_30_lightshift.png"" style= ""width:200px""alt=""img"">
                            </div>
                        </div>","66","","0","images/G_L_S_30_lightshift.png","","","","positive","1","G","L","S","lightshift","",""
"","","","","","html-slider-response","98","223438","0.0-94.0","yvjpy146h4","7","NaN","<div style=""width:500px;"">
                            <p style=""font-size:50px; font-weight:bold;""
                            >positive</p>
                            <div style=""width:240px; margin: auto;"">
                                <img src=""images/B_L_S_44_darkshift.png"" style= ""width:200px""alt=""img"">
                            </div>
                        </div>","94","","0","images/B_L_S_44_darkshift.png","","","","positive","2","B","L","S","darkshift","",""
"","","","","","html-slider-response","99","225201","0.0-95.0","yvjpy146h4","7","NaN","<div style=""width:500px;"">
                            <p style=""font-size:50px; font-weight:bold;""
                            >positive</p>
                            <div style=""width:240px; margin: auto;"">
                                <img src=""images/G_L_S_30_darkshift.png"" style= ""width:200px""alt=""img"">
                            </div>
                        </div>","-42","","0","images/G_L_S_30_darkshift.png","","","","positive","1","G","L","S","darkshift","",""
"","","","","","html-slider-response","100","226847","0.0-96.0","yvjpy146h4","7","NaN","<div style=""width:500px;"">
                            <p style=""font-size:50px; font-weight:bold;""
                            >positive</p>
                            <div style=""width:240px; margin: auto;"">
                                <img src=""images/G_D_U_41_darkshift.png"" style= ""width:200px""alt=""img"">
                            </div>
                        </div>","-122","","0","images/G_D_U_41_darkshift.png","","","","positive","1","G","D","U","darkshift","",""
"","","","","","html-slider-response","101","228568","0.0-97.0","yvjpy146h4","7","NaN","<div style=""width:500px;"">
                            <p style=""font-size:50px; font-weight:bold;""
                            >positive</p>
                            <div style=""width:240px; margin: auto;"">
                                <img src=""images/R_D_S_27_lightshift.png"" style= ""width:200px""alt=""img"">
                            </div>
                        </div>","107","","0","images/R_D_S_27_lightshift.png","","","","positive","1","R","D","S","lightshift","",""
"","","","","","html-slider-response","102","231926","0.0-98.0","yvjpy146h4","7","NaN","<div style=""width:500px;"">
                            <p style=""font-size:50px; font-weight:bold;""
                            >positive</p>
                            <div style=""width:240px; margin: auto;"">
                                <img src=""images/B_D_U_7_darkshift.png"" style= ""width:200px""alt=""img"">
                            </div>
                        </div>","5","","0","images/B_D_U_7_darkshift.png","","","","positive","2","B","D","U","darkshift","",""
"","","","","","html-slider-response","103","233640","0.0-99.0","yvjpy146h4","7","NaN","<div style=""width:500px;"">
                            <p style=""font-size:50px; font-weight:bold;""
                            >positive</p>
                            <div style=""width:240px; margin: auto;"">
                                <img src=""images/R_L_S_23_lightshift.png"" style= ""width:200px""alt=""img"">
                            </div>
                        </div>","39","","0","images/R_L_S_23_lightshift.png","","","","positive","1","R","L","S","lightshift","",""
"","","","","","html-slider-response","104","235231","0.0-100.0","yvjpy146h4","7","NaN","<div style=""width:500px;"">
                            <p style=""font-size:50px; font-weight:bold;""
                            >positive</p>
                            <div style=""width:240px; margin: auto;"">
                                <img src=""images/Y_L_U_12_darkshift.png"" style= ""width:200px""alt=""img"">
                            </div>
                        </div>","-17","","0","images/Y_L_U_12_darkshift.png","","","","positive","2","Y","L","U","darkshift","",""
"","","","","","html-slider-response","105","237291","0.0-101.0","yvjpy146h4","7","NaN","<div style=""width:500px;"">
                            <p style=""font-size:50px; font-weight:bold;""
                            >positive</p>
                            <div style=""width:240px; margin: auto;"">
                                <img src=""images/B_L_U_2_darkshift.png"" style= ""width:200px""alt=""img"">
                            </div>
                        </div>","16","","0","images/B_L_U_2_darkshift.png","","","","positive","1","B","L","U","darkshift","",""
"","","","","","html-slider-response","106","239015","0.0-102.0","yvjpy146h4","7","NaN","<div style=""width:500px;"">
                            <p style=""font-size:50px; font-weight:bold;""
                            >positive</p>
                            <div style=""width:240px; margin: auto;"">
                                <img src=""images/Y_L_U_12_darkshift.png"" style= ""width:200px""alt=""img"">
                            </div>
                        </div>","-43","","0","images/Y_L_U_12_darkshift.png","","","","positive","1","Y","L","U","darkshift","",""
"","","","","","html-slider-response","107","241152","0.0-103.0","yvjpy146h4","7","NaN","<div style=""width:500px;"">
                            <p style=""font-size:50px; font-weight:bold;""
                            >positive</p>
                            <div style=""width:240px; margin: auto;"">
                                <img src=""images/B_D_U_7_lightshift.png"" style= ""width:200px""alt=""img"">
                            </div>
                        </div>","-50","","0","images/B_D_U_7_lightshift.png","","","","positive","2","B","D","U","lightshift","",""
"","","","","","html-slider-response","108","242848","0.0-104.0","yvjpy146h4","7","NaN","<div style=""width:500px;"">
                            <p style=""font-size:50px; font-weight:bold;""
                            >positive</p>
                            <div style=""width:240px; margin: auto;"">
                                <img src=""images/B_D_U_7_darkshift.png"" style= ""width:200px""alt=""img"">
                            </div>
                        </div>","-102","","0","images/B_D_U_7_darkshift.png","","","","positive","1","B","D","U","darkshift","",""
"","","","","","html-slider-response","109","244925","0.0-105.0","yvjpy146h4","7","NaN","<div style=""width:500px;"">
                            <p style=""font-size:50px; font-weight:bold;""
                            >positive</p>
                            <div style=""width:240px; margin: auto;"">
                                <img src=""images/B_L_U_2_lightshift.png"" style= ""width:200px""alt=""img"">
                            </div>
                        </div>","78","","0","images/B_L_U_2_lightshift.png","","","","positive","2","B","L","U","lightshift","",""
"","","","","","html-slider-response","110","246520","0.0-106.0","yvjpy146h4","7","NaN","<div style=""width:500px;"">
                            <p style=""font-size:50px; font-weight:bold;""
                            >positive</p>
                            <div style=""width:240px; margin: auto;"">
                                <img src=""images/R_D_U_28_lightshift.png"" style= ""width:200px""alt=""img"">
                            </div>
                        </div>","-18","","0","images/R_D_U_28_lightshift.png","","","","positive","2","R","D","U","lightshift","",""
"","","","","","html-slider-response","111","248134","0.0-107.0","yvjpy146h4","7","NaN","<div style=""width:500px;"">
                            <p style=""font-size:50px; font-weight:bold;""
                            >positive</p>
                            <div style=""width:240px; margin: auto;"">
                                <img src=""images/R_L_S_23_lightshift.png"" style= ""width:200px""alt=""img"">
                            </div>
                        </div>","136","","0","images/R_L_S_23_lightshift.png","","","","positive","2","R","L","S","lightshift","",""
"","","","","","html-slider-response","112","249779","0.0-108.0","yvjpy146h4","7","NaN","<div style=""width:500px;"">
                            <p style=""font-size:50px; font-weight:bold;""
                            >positive</p>
                            <div style=""width:240px; margin: auto;"">
                                <img src=""images/Y_L_U_12_lightshift.png"" style= ""width:200px""alt=""img"">
                            </div>
                        </div>","-61","","0","images/Y_L_U_12_lightshift.png","","","","positive","2","Y","L","U","lightshift","",""
"","","","","","html-slider-response","113","251485","0.0-109.0","yvjpy146h4","7","NaN","<div style=""width:500px;"">
                            <p style=""font-size:50px; font-weight:bold;""
                            >positive</p>
                            <div style=""width:240px; margin: auto;"">
                                <img src=""images/R_D_U_28_darkshift.png"" style= ""width:200px""alt=""img"">
                            </div>
                        </div>","26","","0","images/R_D_U_28_darkshift.png","","","","positive","2","R","D","U","darkshift","",""
"","","","","","html-slider-response","114","252883","0.0-110.0","yvjpy146h4","7","NaN","<div style=""width:500px;"">
                            <p style=""font-size:50px; font-weight:bold;""
                            >positive</p>
                            <div style=""width:240px; margin: auto;"">
                                <img src=""images/G_D_U_41_lightshift.png"" style= ""width:200px""alt=""img"">
                            </div>
                        </div>","-66","","0","images/G_D_U_41_lightshift.png","","","","positive","1","G","D","U","lightshift","",""
"","","","","","html-slider-response","115","254528","0.0-111.0","yvjpy146h4","7","NaN","<div style=""width:500px;"">
                            <p style=""font-size:50px; font-weight:bold;""
                            >positive</p>
                            <div style=""width:240px; margin: auto;"">
                                <img src=""images/B_L_U_2_lightshift.png"" style= ""width:200px""alt=""img"">
                            </div>
                        </div>","52","","0","images/B_L_U_2_lightshift.png","","","","positive","1","B","L","U","lightshift","",""
"","","","","","html-slider-response","116","255841","0.0-112.0","yvjpy146h4","7","NaN","<div style=""width:500px;"">
                            <p style=""font-size:50px; font-weight:bold;""
                            >positive</p>
                            <div style=""width:240px; margin: auto;"">
                                <img src=""images/B_D_U_7_lightshift.png"" style= ""width:200px""alt=""img"">
                            </div>
                        </div>","-40","","0","images/B_D_U_7_lightshift.png","","","","positive","1","B","D","U","lightshift","",""
"","","","","","html-slider-response","117","257365","0.0-113.0","yvjpy146h4","7","NaN","<div style=""width:500px;"">
                            <p style=""font-size:50px; font-weight:bold;""
                            >positive</p>
                            <div style=""width:240px; margin: auto;"">
                                <img src=""images/R_L_S_23_darkshift.png"" style= ""width:200px""alt=""img"">
                            </div>
                        </div>","142","","0","images/R_L_S_23_darkshift.png","","","","positive","2","R","L","S","darkshift","",""
"","","","","","html-slider-response","118","258969","0.0-114.0","yvjpy146h4","7","NaN","<div style=""width:500px;"">
                            <p style=""font-size:50px; font-weight:bold;""
                            >positive</p>
                            <div style=""width:240px; margin: auto;"">
                                <img src=""images/B_D_S_5_lightshift.png"" style= ""width:200px""alt=""img"">
                            </div>
                        </div>","-83","","0","images/B_D_S_5_lightshift.png","","","","positive","2","B","D","S","lightshift","",""
"","","","","","html-slider-response","119","260492","0.0-115.0","yvjpy146h4","7","NaN","<div style=""width:500px;"">
                            <p style=""font-size:50px; font-weight:bold;""
                            >positive</p>
                            <div style=""width:240px; margin: auto;"">
                                <img src=""images/R_D_U_28_darkshift.png"" style= ""width:200px""alt=""img"">
                            </div>
                        </div>","49","","0","images/R_D_U_28_darkshift.png","","","","positive","1","R","D","U","darkshift","",""
"","","","","","html-slider-response","120","262187","0.0-116.0","yvjpy146h4","7","NaN","<div style=""width:500px;"">
                            <p style=""font-size:50px; font-weight:bold;""
                            >positive</p>
                            <div style=""width:240px; margin: auto;"">
                                <img src=""images/G_L_S_30_lightshift.png"" style= ""width:200px""alt=""img"">
                            </div>
                        </div>","-7","","0","images/G_L_S_30_lightshift.png","","","","positive","2","G","L","S","lightshift","",""
"","","","","","html-slider-response","121","263609","0.0-117.0","yvjpy146h4","7","NaN","<div style=""width:500px;"">
                            <p style=""font-size:50px; font-weight:bold;""
                            >positive</p>
                            <div style=""width:240px; margin: auto;"">
                                <img src=""images/B_L_S_44_darkshift.png"" style= ""width:200px""alt=""img"">
                            </div>
                        </div>","102","","0","images/B_L_S_44_darkshift.png","","","","positive","1","B","L","S","darkshift","",""
"","","","","","html-slider-response","122","265085","0.0-118.0","yvjpy146h4","7","NaN","<div style=""width:500px;"">
                            <p style=""font-size:50px; font-weight:bold;""
                            >positive</p>
                            <div style=""width:240px; margin: auto;"">
                                <img src=""images/B_L_S_44_lightshift.png"" style= ""width:200px""alt=""img"">
                            </div>
                        </div>","-66","","0","images/B_L_S_44_lightshift.png","","","","positive","2","B","L","S","lightshift","",""
"","","","","","html-slider-response","123","266593","0.0-119.0","yvjpy146h4","7","NaN","<div style=""width:500px;"">
                            <p style=""font-size:50px; font-weight:bold;""
                            >positive</p>
                            <div style=""width:240px; margin: auto;"">
                                <img src=""images/R_D_S_27_darkshift.png"" style= ""width:200px""alt=""img"">
                            </div>
                        </div>","57","","0","images/R_D_S_27_darkshift.png","","","","positive","2","R","D","S","darkshift","",""
"","","","","","html-slider-response","124","268787","0.0-120.0","yvjpy146h4","7","NaN","<div style=""width:500px;"">
                            <p style=""font-size:50px; font-weight:bold;""
                            >positive</p>
                            <div style=""width:240px; margin: auto;"">
                                <img src=""images/Y_D_S_13_lightshift.png"" style= ""width:200px""alt=""img"">
                            </div>
                        </div>","-86","","0","images/Y_D_S_13_lightshift.png","","","","positive","2","Y","D","S","lightshift","",""
"","","","","","html-slider-response","125","270299","0.0-121.0","yvjpy146h4","7","NaN","<div style=""width:500px;"">
                            <p style=""font-size:50px; font-weight:bold;""
                            >positive</p>
                            <div style=""width:240px; margin: auto;"">
                                <img src=""images/Y_D_S_13_darkshift.png"" style= ""width:200px""alt=""img"">
                            </div>
                        </div>","-160","","0","images/Y_D_S_13_darkshift.png","","","","positive","1","Y","D","S","darkshift","",""
"","","","","","html-slider-response","126","271615","0.0-122.0","yvjpy146h4","7","NaN","<div style=""width:500px;"">
                            <p style=""font-size:50px; font-weight:bold;""
                            >positive</p>
                            <div style=""width:240px; margin: auto;"">
                                <img src=""images/B_L_U_2_darkshift.png"" style= ""width:200px""alt=""img"">
                            </div>
                        </div>","57","","0","images/B_L_U_2_darkshift.png","","","","positive","2","B","L","U","darkshift","",""
"","","","","","html-slider-response","127","273009","0.0-123.0","yvjpy146h4","7","NaN","<div style=""width:500px;"">
                            <p style=""font-size:50px; font-weight:bold;""
                            >positive</p>
                            <div style=""width:240px; margin: auto;"">
                                <img src=""images/G_L_U_33_lightshift.png"" style= ""width:200px""alt=""img"">
                            </div>
                        </div>","-14","","0","images/G_L_U_33_lightshift.png","","","","positive","1","G","L","U","lightshift","",""
"","","","","","html-slider-response","128","274716","0.0-124.0","yvjpy146h4","7","NaN","<div style=""width:500px;"">
                            <p style=""font-size:50px; font-weight:bold;""
                            >positive</p>
                            <div style=""width:240px; margin: auto;"">
                                <img src=""images/Y_L_S_10_darkshift.png"" style= ""width:200px""alt=""img"">
                            </div>
                        </div>","-94","","0","images/Y_L_S_10_darkshift.png","","","","positive","1","Y","L","S","darkshift","",""
"","","","","","html-slider-response","129","276709","0.0-125.0","yvjpy146h4","7","NaN","<div style=""width:500px;"">
                            <p style=""font-size:50px; font-weight:bold;""
                            >positive</p>
                            <div style=""width:240px; margin: auto;"">
                                <img src=""images/G_D_U_41_darkshift.png"" style= ""width:200px""alt=""img"">
                            </div>
                        </div>","-166","","0","images/G_D_U_41_darkshift.png","","","","positive","2","G","D","U","darkshift","",""
"","","","","","html-slider-response","130","281107","0.0-126.0","yvjpy146h4","7","NaN","<div style=""width:500px;"">
                            <p style=""font-size:50px; font-weight:bold;""
                            >positive</p>
                            <div style=""width:240px; margin: auto;"">
                                <img src=""images/G_D_S_37_darkshift.png"" style= ""width:200px""alt=""img"">
                            </div>
                        </div>","-95","","0","images/G_D_S_37_darkshift.png","","","","positive","1","G","D","S","darkshift","",""
"","","","","","html-slider-response","131","282685","0.0-127.0","yvjpy146h4","7","NaN","<div style=""width:500px;"">
                            <p style=""font-size:50px; font-weight:bold;""
                            >positive</p>
                            <div style=""width:240px; margin: auto;"">
                                <img src=""images/Y_D_U_15_lightshift.png"" style= ""width:200px""alt=""img"">
                            </div>
                        </div>","-130","","0","images/Y_D_U_15_lightshift.png","","","","positive","2","Y","D","U","lightshift","",""
"","","","","","html-slider-response","132","284140","0.0-128.0","yvjpy146h4","7","NaN","<div style=""width:500px;"">
                            <p style=""font-size:50px; font-weight:bold;""
                            >positive</p>
                            <div style=""width:240px; margin: auto;"">
                                <img src=""images/Y_L_S_10_lightshift.png"" style= ""width:200px""alt=""img"">
                            </div>
                        </div>","-160","","0","images/Y_L_S_10_lightshift.png","","","","positive","1","Y","L","S","lightshift","",""
"","","","","","html-slider-response","133","286236","0.0-129.0","yvjpy146h4","7","NaN","<div style=""width:500px;"">
                            <p style=""font-size:50px; font-weight:bold;""
                            >positive</p>
                            <div style=""width:240px; margin: auto;"">
                                <img src=""images/R_D_U_28_lightshift.png"" style= ""width:200px""alt=""img"">
                            </div>
                        </div>","-176","","0","images/R_D_U_28_lightshift.png","","","","positive","1","R","D","U","lightshift","",""
"","","","","","html-slider-response","134","287805","0.0-130.0","yvjpy146h4","7","NaN","<div style=""width:500px;"">
                            <p style=""font-size:50px; font-weight:bold;""
                            >positive</p>
                            <div style=""width:240px; margin: auto;"">
                                <img src=""images/G_D_S_37_lightshift.png"" style= ""width:200px""alt=""img"">
                            </div>
                        </div>","-146","","0","images/G_D_S_37_lightshift.png","","","","positive","2","G","D","S","lightshift","",""
"","","","","","html-slider-response","135","289098","0.0-131.0","yvjpy146h4","7","NaN","<div style=""width:500px;"">
                            <p style=""font-size:50px; font-weight:bold;""
                            >positive</p>
                            <div style=""width:240px; margin: auto;"">
                                <img src=""images/G_L_U_33_darkshift.png"" style= ""width:200px""alt=""img"">
                            </div>
                        </div>","-140","","0","images/G_L_U_33_darkshift.png","","","","positive","1","G","L","U","darkshift","",""
"","","","","","html-slider-response","136","290239","0.0-132.0","yvjpy146h4","7","NaN","<div style=""width:500px;"">
                            <p style=""font-size:50px; font-weight:bold;""
                            >positive</p>
                            <div style=""width:240px; margin: auto;"">
                                <img src=""images/G_D_S_37_lightshift.png"" style= ""width:200px""alt=""img"">
                            </div>
                        </div>","-140","","0","images/G_D_S_37_lightshift.png","","","","positive","1","G","D","S","lightshift","",""
"","","","","","html-slider-response","137","291717","0.0-133.0","yvjpy146h4","7","NaN","<div style=""width:500px;"">
                            <p style=""font-size:50px; font-weight:bold;""
                            >positive</p>
                            <div style=""width:240px; margin: auto;"">
                                <img src=""images/G_D_U_41_lightshift.png"" style= ""width:200px""alt=""img"">
                            </div>
                        </div>","-134","","0","images/G_D_U_41_lightshift.png","","","","positive","2","G","D","U","lightshift","",""
"","","","","","html-slider-response","138","293697","0.0-134.0","yvjpy146h4","7","NaN","<div style=""width:500px;"">
                            <p style=""font-size:50px; font-weight:bold;""
                            >positive</p>
                            <div style=""width:240px; margin: auto;"">
                                <img src=""images/Y_L_S_10_lightshift.png"" style= ""width:200px""alt=""img"">
                            </div>
                        </div>","-78","","0","images/Y_L_S_10_lightshift.png","","","","positive","2","Y","L","S","lightshift","",""
"","","","","","html-slider-response","139","295605","0.0-135.0","yvjpy146h4","7","NaN","<div style=""width:500px;"">
                            <p style=""font-size:50px; font-weight:bold;""
                            >positive</p>
                            <div style=""width:240px; margin: auto;"">
                                <img src=""images/B_L_S_44_lightshift.png"" style= ""width:200px""alt=""img"">
                            </div>
                        </div>","52","","0","images/B_L_S_44_lightshift.png","","","","positive","1","B","L","S","lightshift","",""
"","","","","","html-slider-response","140","297169","0.0-136.0","yvjpy146h4","7","NaN","<div style=""width:500px;"">
                            <p style=""font-size:50px; font-weight:bold;""
                            >positive</p>
                            <div style=""width:240px; margin: auto;"">
                                <img src=""images/G_L_U_33_lightshift.png"" style= ""width:200px""alt=""img"">
                            </div>
                        </div>","-21","","0","images/G_L_U_33_lightshift.png","","","","positive","2","G","L","U","lightshift","",""
"","","","","","html-slider-response","141","298396","0.0-137.0","yvjpy146h4","7","NaN","<div style=""width:500px;"">
                            <p style=""font-size:50px; font-weight:bold;""
                            >positive</p>
                            <div style=""width:240px; margin: auto;"">
                                <img src=""images/G_L_U_33_darkshift.png"" style= ""width:200px""alt=""img"">
                            </div>
                        </div>","-21","","0","images/G_L_U_33_darkshift.png","","","","positive","2","G","L","U","darkshift","",""
"","","","","","html-slider-response","142","300772","0.0-138.0","yvjpy146h4","7","NaN","<div style=""width:500px;"">
                            <p style=""font-size:50px; font-weight:bold;""
                            >positive</p>
                            <div style=""width:240px; margin: auto;"">
                                <img src=""images/B_D_S_5_darkshift.png"" style= ""width:200px""alt=""img"">
                            </div>
                        </div>","8","","0","images/B_D_S_5_darkshift.png","","","","positive","1","B","D","S","darkshift","",""
"","","","","","html-slider-response","143","302285","0.0-139.0","yvjpy146h4","7","NaN","<div style=""width:500px;"">
                            <p style=""font-size:50px; font-weight:bold;""
                            >positive</p>
                            <div style=""width:240px; margin: auto;"">
                                <img src=""images/R_L_U_26_lightshift.png"" style= ""width:200px""alt=""img"">
                            </div>
                        </div>","-76","","0","images/R_L_U_26_lightshift.png","","","","positive","1","R","L","U","lightshift","",""
"","","","","","html-slider-response","144","303761","0.0-140.0","yvjpy146h4","7","NaN","<div style=""width:500px;"">
                            <p style=""font-size:50px; font-weight:bold;""
                            >positive</p>
                            <div style=""width:240px; margin: auto;"">
                                <img src=""images/Y_L_S_10_darkshift.png"" style= ""width:200px""alt=""img"">
                            </div>
                        </div>","-69","","0","images/Y_L_S_10_darkshift.png","","","","positive","2","Y","L","S","darkshift","",""
"","","","","","html-slider-response","145","305536","0.0-141.0","yvjpy146h4","7","NaN","<div style=""width:500px;"">
                            <p style=""font-size:50px; font-weight:bold;""
                            >positive</p>
                            <div style=""width:240px; margin: auto;"">
                                <img src=""images/Y_D_U_15_darkshift.png"" style= ""width:200px""alt=""img"">
                            </div>
                        </div>","-186","","0","images/Y_D_U_15_darkshift.png","","","","positive","1","Y","D","U","darkshift","",""
"","","","","","html-slider-response","146","306976","0.0-142.0","yvjpy146h4","7","NaN","<div style=""width:500px;"">
                            <p style=""font-size:50px; font-weight:bold;""
                            >positive</p>
                            <div style=""width:240px; margin: auto;"">
                                <img src=""images/Y_D_U_15_darkshift.png"" style= ""width:200px""alt=""img"">
                            </div>
                        </div>","-200","","0","images/Y_D_U_15_darkshift.png","","","","positive","2","Y","D","U","darkshift","",""
"","","","","","html-slider-response","147","308705","0.0-143.0","yvjpy146h4","7","NaN","<div style=""width:500px;"">
                            <p style=""font-size:50px; font-weight:bold;""
                            >positive</p>
                            <div style=""width:240px; margin: auto;"">
                                <img src=""images/G_D_S_37_darkshift.png"" style= ""width:200px""alt=""img"">
                            </div>
                        </div>","-122","","0","images/G_D_S_37_darkshift.png","","","","positive","2","G","D","S","darkshift","",""
"","","","","","html-button-response","148","310313","0.0-144.0","yvjpy146h4","7","1106","<p>Great Job! You've finished block 2.<br></br> You have 2 block(s) left to go.<br></br></p>","0","","","","","","","","","","","","","",""
"","","","","","html-button-response","149","311079","0.0-145.0","yvjpy146h4","7","765","<p>In this block of trials, you will be asked to rate how much you associate each map with:</p > <p style = 'font-size:150%; font-weight: bold'>calm</p><br></br>","0","","","","","","","","","","","","","",""
"","","","","","html-slider-response","150","312114","0.0-146.0","yvjpy146h4","7","NaN","<div style=""width:500px;"">
                            <p style=""font-size:50px; font-weight:bold;""
                            >calm</p>
                            <div style=""width:240px; margin: auto;"">
                                <img src=""images/R_D_S_27_darkshift.png"" style= ""width:200px""alt=""img"">
                            </div>
                        </div>","-53","","0","images/R_D_S_27_darkshift.png","","","","calm","1","R","D","S","darkshift","",""
"","","","","","html-slider-response","151","314057","0.0-147.0","yvjpy146h4","7","NaN","<div style=""width:500px;"">
                            <p style=""font-size:50px; font-weight:bold;""
                            >calm</p>
                            <div style=""width:240px; margin: auto;"">
                                <img src=""images/Y_D_U_15_lightshift.png"" style= ""width:200px""alt=""img"">
                            </div>
                        </div>","-67","","0","images/Y_D_U_15_lightshift.png","","","","calm","1","Y","D","U","lightshift","",""
"","","","","","html-slider-response","152","316916","0.0-148.0","yvjpy146h4","7","NaN","<div style=""width:500px;"">
                            <p style=""font-size:50px; font-weight:bold;""
                            >calm</p>
                            <div style=""width:240px; margin: auto;"">
                                <img src=""images/R_L_U_26_darkshift.png"" style= ""width:200px""alt=""img"">
                            </div>
                        </div>","9","","0","images/R_L_U_26_darkshift.png","","","","calm","1","R","L","U","darkshift","",""
"","","","","","html-slider-response","153","318323","0.0-149.0","yvjpy146h4","7","NaN","<div style=""width:500px;"">
                            <p style=""font-size:50px; font-weight:bold;""
                            >calm</p>
                            <div style=""width:240px; margin: auto;"">
                                <img src=""images/G_L_S_30_lightshift.png"" style= ""width:200px""alt=""img"">
                            </div>
                        </div>","-9","","0","images/G_L_S_30_lightshift.png","","","","calm","1","G","L","S","lightshift","",""
"","","","","","html-slider-response","154","319451","0.0-150.0","yvjpy146h4","7","NaN","<div style=""width:500px;"">
                            <p style=""font-size:50px; font-weight:bold;""
                            >calm</p>
                            <div style=""width:240px; margin: auto;"">
                                <img src=""images/R_D_S_27_lightshift.png"" style= ""width:200px""alt=""img"">
                            </div>
                        </div>","-10","","0","images/R_D_S_27_lightshift.png","","","","calm","2","R","D","S","lightshift","",""
"","","","","","html-slider-response","155","321199","0.0-151.0","yvjpy146h4","7","NaN","<div style=""width:500px;"">
                            <p style=""font-size:50px; font-weight:bold;""
                            >calm</p>
                            <div style=""width:240px; margin: auto;"">
                                <img src=""images/Y_L_U_12_darkshift.png"" style= ""width:200px""alt=""img"">
                            </div>
                        </div>","13","","0","images/Y_L_U_12_darkshift.png","","","","calm","2","Y","L","U","darkshift","",""
"","","","","","html-slider-response","156","322358","0.0-152.0","yvjpy146h4","7","NaN","<div style=""width:500px;"">
                            <p style=""font-size:50px; font-weight:bold;""
                            >calm</p>
                            <div style=""width:240px; margin: auto;"">
                                <img src=""images/R_L_S_23_darkshift.png"" style= ""width:200px""alt=""img"">
                            </div>
                        </div>","26","","0","images/R_L_S_23_darkshift.png","","","","calm","1","R","L","S","darkshift","",""
"","","","","","html-slider-response","157","323450","0.0-153.0","yvjpy146h4","7","NaN","<div style=""width:500px;"">
                            <p style=""font-size:50px; font-weight:bold;""
                            >calm</p>
                            <div style=""width:240px; margin: auto;"">
                                <img src=""images/R_D_S_27_lightshift.png"" style= ""width:200px""alt=""img"">
                            </div>
                        </div>","26","","0","images/R_D_S_27_lightshift.png","","","","calm","1","R","D","S","lightshift","",""
"","","","","","html-slider-response","158","324911","0.0-154.0","yvjpy146h4","7","NaN","<div style=""width:500px;"">
                            <p style=""font-size:50px; font-weight:bold;""
                            >calm</p>
                            <div style=""width:240px; margin: auto;"">
                                <img src=""images/B_D_S_5_lightshift.png"" style= ""width:200px""alt=""img"">
                            </div>
                        </div>","111","","0","images/B_D_S_5_lightshift.png","","","","calm","1","B","D","S","lightshift","",""
"","","","","","html-slider-response","159","326857","0.0-155.0","yvjpy146h4","7","NaN","<div style=""width:500px;"">
                            <p style=""font-size:50px; font-weight:bold;""
                            >calm</p>
                            <div style=""width:240px; margin: auto;"">
                                <img src=""images/B_L_S_44_lightshift.png"" style= ""width:200px""alt=""img"">
                            </div>
                        </div>","86","","0","images/B_L_S_44_lightshift.png","","","","calm","1","B","L","S","lightshift","",""
"","","","","","html-slider-response","160","329067","0.0-156.0","yvjpy146h4","7","NaN","<div style=""width:500px;"">
                            <p style=""font-size:50px; font-weight:bold;""
                            >calm</p>
                            <div style=""width:240px; margin: auto;"">
                                <img src=""images/B_D_U_7_darkshift.png"" style= ""width:200px""alt=""img"">
                            </div>
                        </div>","192","","0","images/B_D_U_7_darkshift.png","","","","calm","1","B","D","U","darkshift","",""
"","","","","","html-slider-response","161","331938","0.0-157.0","yvjpy146h4","7","NaN","<div style=""width:500px;"">
                            <p style=""font-size:50px; font-weight:bold;""
                            >calm</p>
                            <div style=""width:240px; margin: auto;"">
                                <img src=""images/R_D_U_28_lightshift.png"" style= ""width:200px""alt=""img"">
                            </div>
                        </div>","-61","","0","images/R_D_U_28_lightshift.png","","","","calm","2","R","D","U","lightshift","",""
"","","","","","html-slider-response","162","358539","0.0-158.0","yvjpy146h4","7","NaN","<div style=""width:500px;"">
                            <p style=""font-size:50px; font-weight:bold;""
                            >calm</p>
                            <div style=""width:240px; margin: auto;"">
                                <img src=""images/G_L_U_33_darkshift.png"" style= ""width:200px""alt=""img"">
                            </div>
                        </div>","179","","0","images/G_L_U_33_darkshift.png","","","","calm","1","G","L","U","darkshift","",""
"","","","","","html-slider-response","163","359899","0.0-159.0","yvjpy146h4","7","NaN","<div style=""width:500px;"">
                            <p style=""font-size:50px; font-weight:bold;""
                            >calm</p>
                            <div style=""width:240px; margin: auto;"">
                                <img src=""images/Y_L_U_12_lightshift.png"" style= ""width:200px""alt=""img"">
                            </div>
                        </div>","-54","","0","images/Y_L_U_12_lightshift.png","","","","calm","2","Y","L","U","lightshift","",""
"","","","","","html-slider-response","164","361342","0.0-160.0","yvjpy146h4","7","NaN","<div style=""width:500px;"">
                            <p style=""font-size:50px; font-weight:bold;""
                            >calm</p>
                            <div style=""width:240px; margin: auto;"">
                                <img src=""images/B_D_S_5_darkshift.png"" style= ""width:200px""alt=""img"">
                            </div>
                        </div>","146","","0","images/B_D_S_5_darkshift.png","","","","calm","1","B","D","S","darkshift","",""
"","","","","","html-slider-response","165","362585","0.0-161.0","yvjpy146h4","7","NaN","<div style=""width:500px;"">
                            <p style=""font-size:50px; font-weight:bold;""
                            >calm</p>
                            <div style=""width:240px; margin: auto;"">
                                <img src=""images/R_D_U_28_darkshift.png"" style= ""width:200px""alt=""img"">
                            </div>
                        </div>","-36","","0","images/R_D_U_28_darkshift.png","","","","calm","2","R","D","U","darkshift","",""
"","","","","","html-slider-response","166","364792","0.0-162.0","yvjpy146h4","7","NaN","<div style=""width:500px;"">
                            <p style=""font-size:50px; font-weight:bold;""
                            >calm</p>
                            <div style=""width:240px; margin: auto;"">
                                <img src=""images/G_L_U_33_darkshift.png"" style= ""width:200px""alt=""img"">
                            </div>
                        </div>","167","","0","images/G_L_U_33_darkshift.png","","","","calm","2","G","L","U","darkshift","",""
"","","","","","html-slider-response","167","366370","0.0-163.0","yvjpy146h4","7","NaN","<div style=""width:500px;"">
                            <p style=""font-size:50px; font-weight:bold;""
                            >calm</p>
                            <div style=""width:240px; margin: auto;"">
                                <img src=""images/Y_D_U_15_lightshift.png"" style= ""width:200px""alt=""img"">
                            </div>
                        </div>","-184","","0","images/Y_D_U_15_lightshift.png","","","","calm","2","Y","D","U","lightshift","",""
"","","","","","html-slider-response","168","367527","0.0-164.0","yvjpy146h4","7","NaN","<div style=""width:500px;"">
                            <p style=""font-size:50px; font-weight:bold;""
                            >calm</p>
                            <div style=""width:240px; margin: auto;"">
                                <img src=""images/Y_D_U_15_darkshift.png"" style= ""width:200px""alt=""img"">
                            </div>
                        </div>","-140","","0","images/Y_D_U_15_darkshift.png","","","","calm","1","Y","D","U","darkshift","",""
"","","","","","html-slider-response","169","369452","0.0-165.0","yvjpy146h4","7","NaN","<div style=""width:500px;"">
                            <p style=""font-size:50px; font-weight:bold;""
                            >calm</p>
                            <div style=""width:240px; margin: auto;"">
                                <img src=""images/G_L_U_33_lightshift.png"" style= ""width:200px""alt=""img"">
                            </div>
                        </div>","-175","","0","images/G_L_U_33_lightshift.png","","","","calm","1","G","L","U","lightshift","",""
"","","","","","html-slider-response","170","371001","0.0-166.0","yvjpy146h4","7","NaN","<div style=""width:500px;"">
                            <p style=""font-size:50px; font-weight:bold;""
                            >calm</p>
                            <div style=""width:240px; margin: auto;"">
                                <img src=""images/Y_L_S_10_darkshift.png"" style= ""width:200px""alt=""img"">
                            </div>
                        </div>","-154","","0","images/Y_L_S_10_darkshift.png","","","","calm","1","Y","L","S","darkshift","",""
"","","","","","html-slider-response","171","372687","0.0-167.0","yvjpy146h4","7","NaN","<div style=""width:500px;"">
                            <p style=""font-size:50px; font-weight:bold;""
                            >calm</p>
                            <div style=""width:240px; margin: auto;"">
                                <img src=""images/G_D_S_37_darkshift.png"" style= ""width:200px""alt=""img"">
                            </div>
                        </div>","193","","0","images/G_D_S_37_darkshift.png","","","","calm","2","G","D","S","darkshift","",""
"","","","","","html-slider-response","172","374314","0.0-168.0","yvjpy146h4","7","NaN","<div style=""width:500px;"">
                            <p style=""font-size:50px; font-weight:bold;""
                            >calm</p>
                            <div style=""width:240px; margin: auto;"">
                                <img src=""images/R_L_S_23_lightshift.png"" style= ""width:200px""alt=""img"">
                            </div>
                        </div>","-26","","0","images/R_L_S_23_lightshift.png","","","","calm","2","R","L","S","lightshift","",""
